time,AccelerometerX,AccelerometerY,AccelerometerZ,GyroX,GyroY,GyroZ
0.0,0.1427,-0.3669,1.0559,0.350482702255249,-0.12144385278224945,0.02982831373810768
33.0,0.1427,-0.3669,1.0559,0.350482702255249,-0.12144385278224945,0.02982831373810768
119.0,0.2033,-0.2770,0.9826,0.350482702255249,-0.12144385278224945,0.02982831373810768
120.0,0.2033,-0.2770,0.9826,0.35580918192863464,-0.1693822145462036,0.015979453921318054
184.0,0.2033,-0.2770,0.9826,0.35580918192863464,-0.1693822145462036,0.015979453921318054
202.0,0.2033,-0.2770,0.9826,0.35580918192863464,-0.1693822145462036,0.015979453921318054
312.0,0.1827,-0.2350,0.9655,0.35580918192863464,-0.1693822145462036,0.015979453921318054
313.0,0.1827,-0.2350,0.9655,0.10759498924016953,-0.19814522564411163,0.23330003023147583
379.0,0.1827,-0.2350,0.9655,0.10759498924016953,-0.19814522564411163,0.23330003023147583
400.0,0.1827,-0.2350,0.9655,0.10759498924016953,-0.19814522564411163,0.23330003023147583
476.0,0.1827,-0.2350,0.9655,0.10759498924016953,-0.19814522564411163,0.23330003023147583
507.0,0.3621,-0.1725,0.9054,0.10759498924016953,-0.19814522564411163,0.23330003023147583
508.0,0.3621,-0.1725,0.9054,-0.6178722381591797,-3.5335898399353027,0.8820658922195435
575.0,0.3621,-0.1725,0.9054,-0.6178722381591797,-3.5335898399353027,0.8820658922195435
593.0,0.3621,-0.1725,0.9054,-0.6178722381591797,-3.5335898399353027,0.8820658922195435
672.0,0.3621,-0.1725,0.9054,-0.6178722381591797,-3.5335898399353027,0.8820658922195435
702.0,0.6523,-0.4813,0.3904,-0.6178722381591797,-3.5335898399353027,0.8820658922195435
703.0,0.6523,-0.4813,0.3904,-2.1114184856414795,-0.5518237948417664,1.0748846530914307
772.0,0.6523,-0.4813,0.3904,-2.1114184856414795,-0.5518237948417664,1.0748846530914307
789.0,0.6523,-0.4813,0.3904,-2.1114184856414795,-0.5518237948417664,1.0748846530914307
867.0,0.6523,-0.4813,0.3904,-2.1114184856414795,-0.5518237948417664,1.0748846530914307
896.0,0.5683,-0.2042,0.0283,-2.1114184856414795,-0.5518237948417664,1.0748846530914307
897.0,0.5683,-0.2042,0.0283,-0.9971179366111755,-0.5763256549835205,3.2044131755828857
967.0,0.5683,-0.2042,0.0283,-0.9971179366111755,-0.5763256549835205,3.2044131755828857
986.0,0.5683,-0.2042,0.0283,-0.9971179366111755,-0.5763256549835205,3.2044131755828857
1064.0,0.5683,-0.2042,0.0283,-0.9971179366111755,-0.5763256549835205,3.2044131755828857
1094.0,-0.1774,-0.6445,0.1104,-0.9971179366111755,-0.5763256549835205,3.2044131755828857
1095.0,-0.1774,-0.6445,0.1104,-0.2514100670814514,-0.8682169914245605,-0.11931325495243073
1163.0,-0.1774,-0.6445,0.1104,-0.2514100670814514,-0.8682169914245605,-0.11931325495243073
1182.0,-0.1774,-0.6445,0.1104,-0.2514100670814514,-0.8682169914245605,-0.11931325495243073
1290.0,0.2458,-1.0344,0.0181,-0.2514100670814514,-0.8682169914245605,-0.11931325495243073
1292.0,0.2458,-1.0344,0.0181,1.0130974054336548,1.7374993562698364,-0.2077329009771347
1359.0,0.2458,-1.0344,0.0181,1.0130974054336548,1.7374993562698364,-0.2077329009771347
1367.0,0.2458,-1.0344,0.0181,1.0130974054336548,1.7374993562698364,-0.2077329009771347
1376.0,0.2458,-1.0344,0.0181,1.0130974054336548,1.7374993562698364,-0.2077329009771347
1485.0,0.2472,-1.0070,-0.1803,1.0130974054336548,1.7374993562698364,-0.2077329009771347
1488.0,0.2472,-1.0070,-0.1803,-0.8788699507713318,1.5308316946029663,-1.4765015840530396
1555.0,0.2472,-1.0070,-0.1803,-0.8788699507713318,1.5308316946029663,-1.4765015840530396
1562.0,0.2472,-1.0070,-0.1803,-0.8788699507713318,1.5308316946029663,-1.4765015840530396
1573.0,0.2472,-1.0070,-0.1803,-0.8788699507713318,1.5308316946029663,-1.4765015840530396
1680.0,0.3279,-0.8585,-0.0748,-0.8788699507713318,1.5308316946029663,-1.4765015840530396
1681.0,0.3279,-0.8585,-0.0748,0.01811004802584648,-1.9239262342453003,-0.19814522564411163
1751.0,0.3279,-0.8585,-0.0748,0.01811004802584648,-1.9239262342453003,-0.19814522564411163
1769.0,0.3279,-0.8585,-0.0748,0.01811004802584648,-1.9239262342453003,-0.19814522564411163
1875.0,0.5795,-0.8946,-0.1353,0.01811004802584648,-1.9239262342453003,-0.19814522564411163
1877.0,0.5795,-0.8946,-0.1353,0.2993484437465668,-0.32385027408599854,0.19707992672920227
1946.0,0.5795,-0.8946,-0.1353,0.2993484437465668,-0.32385027408599854,0.19707992672920227
1961.0,0.5795,-0.8946,-0.1353,0.2993484437465668,-0.32385027408599854,0.19707992672920227
2066.0,0.5795,-0.8946,-0.1353,0.2993484437465668,-0.32385027408599854,0.19707992672920227
2081.0,-0.0117,-0.6767,0.2091,0.2993484437465668,-0.32385027408599854,0.19707992672920227
2082.0,-0.0117,-0.6767,0.2091,-0.02663242258131504,-0.27378129959106445,0.2631283402442932
2145.0,-0.0117,-0.6767,0.2091,-0.02663242258131504,-0.27378129959106445,0.2631283402442932
2157.0,-0.0117,-0.6767,0.2091,-0.02663242258131504,-0.27378129959106445,0.2631283402442932
2255.0,-0.0117,-0.6767,0.2091,-0.02663242258131504,-0.27378129959106445,0.2631283402442932
2266.0,0.0748,-0.7857,0.1036,-0.02663242258131504,-0.27378129959106445,0.2631283402442932
2271.0,0.0748,-0.7857,0.1036,0.474057137966156,1.741760492324829,0.9864649772644043
2337.0,0.0748,-0.7857,0.1036,0.474057137966156,1.741760492324829,0.9864649772644043
2354.0,0.0748,-0.7857,0.1036,0.474057137966156,1.741760492324829,0.9864649772644043
2463.0,0.0757,-0.9411,0.1158,0.474057137966156,1.741760492324829,0.9864649772644043
2465.0,0.0757,-0.9411,0.1158,0.2716507315635681,0.3749845325946808,0.06178722158074379
2512.0,0.0757,-0.9411,0.1158,0.2716507315635681,0.3749845325946808,0.06178722158074379
2532.0,0.0757,-0.9411,0.1158,0.2716507315635681,0.3749845325946808,0.06178722158074379
2554.0,0.0757,-0.9411,0.1158,0.2716507315635681,0.3749845325946808,0.06178722158074379
2656.0,0.2541,-1.0261,0.0938,0.2716507315635681,0.3749845325946808,0.06178722158074379
2658.0,0.2541,-1.0261,0.0938,-0.051134251058101654,-0.7989727258682251,0.22371235489845276
2726.0,0.2541,-1.0261,0.0938,-0.051134251058101654,-0.7989727258682251,0.22371235489845276
2746.0,0.2541,-1.0261,0.0938,-0.051134251058101654,-0.7989727258682251,0.22371235489845276
2857.0,-0.0078,-1.5064,0.0274,-0.051134251058101654,-0.7989727258682251,0.22371235489845276
2860.0,-0.0078,-1.5064,0.0274,-1.3848860263824463,-0.5475625991821289,-2.618499755859375
2892.0,-0.0078,-1.5064,0.0274,-1.3848860263824463,-0.5475625991821289,-2.618499755859375
2922.0,-0.0078,-1.5064,0.0274,-1.3848860263824463,-0.5475625991821289,-2.618499755859375
2941.0,-0.0078,-1.5064,0.0274,-1.3848860263824463,-0.5475625991821289,-2.618499755859375
3049.0,0.0943,-0.6543,-0.0464,-1.3848860263824463,-0.5475625991821289,-2.618499755859375
3053.0,0.0943,-0.6543,-0.0464,0.3803110122680664,0.5827174186706543,-1.104712963104248
3120.0,0.0943,-0.6543,-0.0464,0.3803110122680664,0.5827174186706543,-1.104712963104248
3137.0,0.0943,-0.6543,-0.0464,0.3803110122680664,0.5827174186706543,-1.104712963104248
3245.0,0.2951,-0.7510,-0.1226,0.3803110122680664,0.5827174186706543,-1.104712963104248
3247.0,0.2951,-0.7510,-0.1226,0.00745707843452692,-0.40481284260749817,0.7307937145233154
3313.0,0.2951,-0.7510,-0.1226,0.00745707843452692,-0.40481284260749817,0.7307937145233154
3334.0,0.2951,-0.7510,-0.1226,0.00745707843452692,-0.40481284260749817,0.7307937145233154
3439.0,0.2937,-1.5010,-0.2585,0.00745707843452692,-0.40481284260749817,0.7307937145233154
3440.0,0.2937,-1.5010,-0.2585,1.0216197967529297,0.6807247400283813,1.1089740991592407
3508.0,0.2937,-1.5010,-0.2585,1.0216197967529297,0.6807247400283813,1.1089740991592407
3530.0,0.2937,-1.5010,-0.2585,1.0216197967529297,0.6807247400283813,1.1089740991592407
3634.0,-0.2013,-1.5929,0.1637,1.0216197967529297,0.6807247400283813,1.1089740991592407
3637.0,-0.2013,-1.5929,0.1637,-0.12677033245563507,-0.4602082669734955,1.2975317239761353
3702.0,-0.2013,-1.5929,0.1637,-0.12677033245563507,-0.4602082669734955,1.2975317239761353
3712.0,-0.2013,-1.5929,0.1637,-0.12677033245563507,-0.4602082669734955,1.2975317239761353
3721.0,-0.2013,-1.5929,0.1637,-0.12677033245563507,-0.4602082669734955,1.2975317239761353
3829.0,0.0401,-0.8903,0.1407,-0.12677033245563507,-0.4602082669734955,1.2975317239761353
3830.0,0.0401,-0.8903,0.1407,0.2194511741399765,0.544366717338562,0.3163931965827942
3900.0,0.0401,-0.8903,0.1407,0.2194511741399765,0.544366717338562,0.3163931965827942
3908.0,0.0401,-0.8903,0.1407,0.2194511741399765,0.544366717338562,0.3163931965827942
3919.0,0.0401,-0.8903,0.1407,0.2194511741399765,0.544366717338562,0.3163931965827942
4026.0,0.1681,-1.0354,0.0992,0.2194511741399765,0.544366717338562,0.3163931965827942
4027.0,0.1681,-1.0354,0.0992,0.025567125529050827,-0.27910780906677246,0.2428877055644989
4096.0,0.1681,-1.0354,0.0992,0.025567125529050827,-0.27910780906677246,0.2428877055644989
4103.0,0.1681,-1.0354,0.0992,0.025567125529050827,-0.27910780906677246,0.2428877055644989
4114.0,0.1681,-1.0354,0.0992,0.025567125529050827,-0.27910780906677246,0.2428877055644989
4220.0,0.0733,-1.5733,0.1480,0.025567125529050827,-0.27910780906677246,0.2428877055644989
4292.0,0.0733,-1.5733,0.1480,-2.1497693061828613,-2.8379509449005127,-3.0360963344573975
4295.0,0.0733,-1.5733,0.1480,-2.1497693061828613,-2.8379509449005127,-3.0360963344573975
4295.0,0.0733,-1.5733,0.1480,-2.1497693061828613,-2.8379509449005127,-3.0360963344573975
4306.0,0.0733,-1.5733,0.1480,-2.1497693061828613,-2.8379509449005127,-3.0360963344573975
4414.0,0.0288,-0.7520,-0.1007,-2.1497693061828613,-2.8379509449005127,-3.0360963344573975
4415.0,0.0288,-0.7520,-0.1007,-0.3568744659423828,-1.8983591794967651,-1.189936637878418
4483.0,0.0288,-0.7520,-0.1007,-0.3568744659423828,-1.8983591794967651,-1.189936637878418
4491.0,0.0288,-0.7520,-0.1007,-0.3568744659423828,-1.8983591794967651,-1.189936637878418
4504.0,0.0288,-0.7520,-0.1007,-0.3568744659423828,-1.8983591794967651,-1.189936637878418
4617.0,0.5394,-0.9025,-0.1090,-0.3568744659423828,-1.8983591794967651,-1.189936637878418
4620.0,0.5394,-0.9025,-0.1090,0.9513101577758789,0.7244018912315369,0.10120321065187454
4681.0,0.5394,-0.9025,-0.1090,0.9513101577758789,0.7244018912315369,0.10120321065187454
4699.0,0.5394,-0.9025,-0.1090,0.9513101577758789,0.7244018912315369,0.10120321065187454
4808.0,0.1959,-1.4204,0.0669,0.9513101577758789,0.7244018912315369,0.10120321065187454
4811.0,0.1959,-1.4204,0.0669,1.64907968044281,0.14488038420677185,-0.0703095942735672
4856.0,0.1959,-1.4204,0.0669,1.64907968044281,0.14488038420677185,-0.0703095942735672
4881.0,0.1959,-1.4204,0.0669,1.64907968044281,0.14488038420677185,-0.0703095942735672
4895.0,0.1959,-1.4204,0.0669,1.64907968044281,0.14488038420677185,-0.0703095942735672
5002.0,-0.2316,-0.6220,0.2467,1.64907968044281,0.14488038420677185,-0.0703095942735672
5003.0,-0.2316,-0.6220,0.2467,0.6093498468399048,-0.7158795595169067,1.346535325050354
5051.0,-0.2316,-0.6220,0.2467,0.6093498468399048,-0.7158795595169067,1.346535325050354
5077.0,-0.2316,-0.6220,0.2467,0.6093498468399048,-0.7158795595169067,1.346535325050354
5090.0,-0.2316,-0.6220,0.2467,0.6093498468399048,-0.7158795595169067,1.346535325050354
5197.0,0.0005,-0.9650,-0.0577,0.6093498468399048,-0.7158795595169067,1.346535325050354
5199.0,0.0005,-0.9650,-0.0577,0.5070813298225403,2.1391162872314453,0.028763016685843468
5247.0,0.0005,-0.9650,-0.0577,0.5070813298225403,2.1391162872314453,0.028763016685843468
5266.0,0.0005,-0.9650,-0.0577,0.5070813298225403,2.1391162872314453,0.028763016685843468
5285.0,0.0005,-0.9650,-0.0577,0.5070813298225403,2.1391162872314453,0.028763016685843468
5395.0,0.2888,-1.1517,0.1109,0.5070813298225403,2.1391162872314453,0.028763016685843468
5397.0,0.2888,-1.1517,0.1109,-1.5020686388015747,0.7925809025764465,-1.894097924232483
5444.0,0.2888,-1.1517,0.1109,-1.5020686388015747,0.7925809025764465,-1.894097924232483
5462.0,0.2888,-1.1517,0.1109,-1.5020686388015747,0.7925809025764465,-1.894097924232483
5481.0,0.2888,-1.1517,0.1109,-1.5020686388015747,0.7925809025764465,-1.894097924232483
5590.0,-0.0743,-0.5932,0.0303,-1.5020686388015747,0.7925809025764465,-1.894097924232483
5593.0,-0.0743,-0.5932,0.0303,-0.8692823052406311,-0.95344078540802,-1.3795595169067383
5637.0,-0.0743,-0.5932,0.0303,-0.8692823052406311,-0.95344078540802,-1.3795595169067383
5659.0,-0.0743,-0.5932,0.0303,-0.8692823052406311,-0.95344078540802,-1.3795595169067383
5678.0,-0.0743,-0.5932,0.0303,-0.8692823052406311,-0.95344078540802,-1.3795595169067383
5784.0,-0.1363,-0.5253,-0.0161,-0.8692823052406311,-0.95344078540802,-1.3795595169067383
5785.0,-0.1363,-0.5253,-0.0161,0.7680791020393372,0.398421049118042,1.444542646408081
5854.0,-0.1363,-0.5253,-0.0161,0.7680791020393372,0.398421049118042,1.444542646408081
5875.0,-0.1363,-0.5253,-0.0161,0.7680791020393372,0.398421049118042,1.444542646408081
5877.0,-0.1363,-0.5253,-0.0161,0.7680791020393372,0.398421049118042,1.444542646408081
5979.0,0.2858,-1.2753,0.4354,0.7680791020393372,0.398421049118042,1.444542646408081
5981.0,0.2858,-1.2753,0.4354,-0.5763256549835205,-0.3888333737850189,0.8533028364181519
6048.0,0.2858,-1.2753,0.4354,-0.5763256549835205,-0.3888333737850189,0.8533028364181519
6067.0,0.2858,-1.2753,0.4354,-0.5763256549835205,-0.3888333737850189,0.8533028364181519
6070.0,0.2858,-1.2753,0.4354,-0.5763256549835205,-0.3888333737850189,0.8533028364181519
6175.0,-0.1603,-1.7585,0.1422,-0.5763256549835205,-0.3888333737850189,0.8533028364181519
6177.0,-0.1603,-1.7585,0.1422,-0.29721784591674805,-1.2357444763183594,2.9359583854675293
6244.0,-0.1603,-1.7585,0.1422,-0.29721784591674805,-1.2357444763183594,2.9359583854675293
6265.0,-0.1603,-1.7585,0.1422,-0.29721784591674805,-1.2357444763183594,2.9359583854675293
6266.0,-0.1603,-1.7585,0.1422,-0.29721784591674805,-1.2357444763183594,2.9359583854675293
6371.0,0.0796,-0.8585,0.0689,-0.29721784591674805,-1.2357444763183594,2.9359583854675293
6373.0,0.0796,-0.8585,0.0689,0.4836448132991791,1.091929316520691,0.5986968874931335
6439.0,0.0796,-0.8585,0.0689,0.4836448132991791,1.091929316520691,0.5986968874931335
6459.0,0.0796,-0.8585,0.0689,0.4836448132991791,1.091929316520691,0.5986968874931335
6461.0,0.0796,-0.8585,0.0689,0.4836448132991791,1.091929316520691,0.5986968874931335
6567.0,0.3420,-1.0026,-0.0117,0.4836448132991791,1.091929316520691,0.5986968874931335
6569.0,0.3420,-1.0026,-0.0117,-0.580586850643158,0.3036096394062042,-0.03835069015622139
6634.0,0.3420,-1.0026,-0.0117,-0.580586850643158,0.3036096394062042,-0.03835069015622139
6657.0,0.3420,-1.0026,-0.0117,-0.580586850643158,0.3036096394062042,-0.03835069015622139
6762.0,-0.4588,-1.1722,0.0625,-0.580586850643158,0.3036096394062042,-0.03835069015622139
6763.0,-0.4588,-1.1722,0.0625,-0.5028201341629028,-0.7819279432296753,0.726532518863678
6821.0,-0.4588,-1.1722,0.0625,-0.5028201341629028,-0.7819279432296753,0.726532518863678
6829.0,-0.4588,-1.1722,0.0625,-0.5028201341629028,-0.7819279432296753,0.726532518863678
6849.0,-0.4588,-1.1722,0.0625,-0.5028201341629028,-0.7819279432296753,0.726532518863678
6959.0,-0.2829,-0.6254,0.0821,-0.5028201341629028,-0.7819279432296753,0.726532518863678
6961.0,-0.2829,-0.6254,0.0821,0.12677033245563507,0.970485508441925,0.566737949848175
7015.0,-0.2829,-0.6254,0.0821,0.12677033245563507,0.970485508441925,0.566737949848175
7026.0,-0.2829,-0.6254,0.0821,0.12677033245563507,0.970485508441925,0.566737949848175
7044.0,-0.2829,-0.6254,0.0821,0.12677033245563507,0.970485508441925,0.566737949848175
7157.0,1.4795,-1.2127,0.1578,0.12677033245563507,0.970485508441925,0.566737949848175
7161.0,1.4795,-1.2127,0.1578,0.274846613407135,1.8301801681518555,-1.8781185150146484
7221.0,1.4795,-1.2127,0.1578,0.274846613407135,1.8301801681518555,-1.8781185150146484
7241.0,1.4795,-1.2127,0.1578,0.274846613407135,1.8301801681518555,-1.8781185150146484
7345.0,-0.4700,-0.8546,0.2321,0.274846613407135,1.8301801681518555,-1.8781185150146484
7345.0,-0.4700,-0.8546,0.2321,-0.9545060396194458,-0.8788699507713318,2.0016930103302
7399.0,-0.4700,-0.8546,0.2321,-0.9545060396194458,-0.8788699507713318,2.0016930103302
7416.0,-0.4700,-0.8546,0.2321,-0.9545060396194458,-0.8788699507713318,2.0016930103302
7433.0,-0.4700,-0.8546,0.2321,-0.9545060396194458,-0.8788699507713318,2.0016930103302
7544.0,0.3010,-1.0920,0.2770,-0.9545060396194458,-0.8788699507713318,2.0016930103302
7545.0,0.3010,-1.0920,0.2770,2.1966423988342285,1.9281874895095825,0.26738953590393066
7596.0,0.3010,-1.0920,0.2770,2.1966423988342285,1.9281874895095825,0.26738953590393066
7612.0,0.3010,-1.0920,0.2770,2.1966423988342285,1.9281874895095825,0.26738953590393066
7633.0,0.3010,-1.0920,0.2770,2.1966423988342285,1.9281874895095825,0.26738953590393066
7740.0,0.1705,-1.0407,0.1705,2.1966423988342285,1.9281874895095825,0.26738953590393066
7741.0,0.1705,-1.0407,0.1705,-0.3483521044254303,-1.4690444469451904,0.5145384073257446
7786.0,0.1705,-1.0407,0.1705,-0.3483521044254303,-1.4690444469451904,0.5145384073257446
7805.0,0.1705,-1.0407,0.1705,-0.3483521044254303,-1.4690444469451904,0.5145384073257446
7826.0,0.1705,-1.0407,0.1705,-0.3483521044254303,-1.4690444469451904,0.5145384073257446
7939.0,0.0992,-1.7854,-0.1207,-0.3483521044254303,-1.4690444469451904,0.5145384073257446
7941.0,0.0992,-1.7854,-0.1207,-0.4889712929725647,2.3937222957611084,-3.936272144317627
7983.0,0.0992,-1.7854,-0.1207,-0.4889712929725647,2.3937222957611084,-3.936272144317627
8003.0,0.0992,-1.7854,-0.1207,-0.4889712929725647,2.3937222957611084,-3.936272144317627
8022.0,0.0992,-1.7854,-0.1207,-0.4889712929725647,2.3937222957611084,-3.936272144317627
8130.000000000001,0.1945,-0.5668,-0.0547,-0.4889712929725647,2.3937222957611084,-3.936272144317627
8132.999999999999,0.1945,-0.5668,-0.0547,-0.2077329009771347,-1.8759878873825073,-0.9513101577758789
8177.0,0.1945,-0.5668,-0.0547,-0.2077329009771347,-1.8759878873825073,-0.9513101577758789
8198.0,0.1945,-0.5668,-0.0547,-0.2077329009771347,-1.8759878873825073,-0.9513101577758789
8279.0,0.1945,-0.5668,-0.0547,-0.2077329009771347,-1.8759878873825073,-0.9513101577758789
8322.0,0.5995,-1.2557,-0.1275,-0.2077329009771347,-1.8759878873825073,-0.9513101577758789
8323.0,0.5995,-1.2557,-0.1275,0.6743329763412476,0.04793836176395416,0.5464973449707031
8371.0,0.5995,-1.2557,-0.1275,0.6743329763412476,0.04793836176395416,0.5464973449707031
8394.0,0.5995,-1.2557,-0.1275,0.6743329763412476,0.04793836176395416,0.5464973449707031
8413.0,0.5995,-1.2557,-0.1275,0.6743329763412476,0.04793836176395416,0.5464973449707031
8520.0,0.0713,-0.9650,0.1041,0.6743329763412476,0.04793836176395416,0.5464973449707031
8521.0,0.0713,-0.9650,0.1041,0.9342654347419739,-1.0589051246643066,-0.26738953590393066
8588.0,0.0713,-0.9650,0.1041,0.9342654347419739,-1.0589051246643066,-0.26738953590393066
8605.0,0.0713,-0.9650,0.1041,0.9342654347419739,-1.0589051246643066,-0.26738953590393066
8713.0,-0.0992,-0.4593,0.1529,0.9342654347419739,-1.0589051246643066,-0.26738953590393066
8715.0,-0.0992,-0.4593,0.1529,0.03835069015622139,-2.1210062503814697,1.1803489923477173
8789.0,-0.0992,-0.4593,0.1529,0.03835069015622139,-2.1210062503814697,1.1803489923477173
8796.0,-0.0992,-0.4593,0.1529,0.03835069015622139,-2.1210062503814697,1.1803489923477173
8801.0,-0.0992,-0.4593,0.1529,0.03835069015622139,-2.1210062503814697,1.1803489923477173
8909.0,0.0728,-1.1502,-0.2257,0.03835069015622139,-2.1210062503814697,1.1803489923477173
8914.0,0.0728,-1.1502,-0.2257,1.4264326095581055,2.0997002124786377,0.1438150852918625
8979.0,0.0728,-1.1502,-0.2257,1.4264326095581055,2.0997002124786377,0.1438150852918625
8998.0,0.0728,-1.1502,-0.2257,1.4264326095581055,2.0997002124786377,0.1438150852918625
9105.0,0.0728,-1.1502,-0.2257,1.4264326095581055,2.0997002124786377,0.1438150852918625
9107.0,0.3860,-1.1326,0.0235,1.4264326095581055,2.0997002124786377,0.1438150852918625
9108.0,0.3860,-1.1326,0.0235,-0.7116183638572693,0.2865648865699768,-1.6980832815170288
9174.0,0.3860,-1.1326,0.0235,-0.7116183638572693,0.2865648865699768,-1.6980832815170288
9197.0,0.3860,-1.1326,0.0235,-0.7116183638572693,0.2865648865699768,-1.6980832815170288
9301.0,0.3860,-1.1326,0.0235,-0.7116183638572693,0.2865648865699768,-1.6980832815170288
9302.0,-0.2399,-0.6049,-0.2614,-0.7116183638572693,0.2865648865699768,-1.6980832815170288
9304.0,-0.2399,-0.6049,-0.2614,0.082027867436409,1.0397298336029053,-1.0312074422836304
9371.0,-0.2399,-0.6049,-0.2614,0.082027867436409,1.0397298336029053,-1.0312074422836304
9388.0,-0.2399,-0.6049,-0.2614,0.082027867436409,1.0397298336029053,-1.0312074422836304
9496.0,-0.2399,-0.6049,-0.2614,0.082027867436409,1.0397298336029053,-1.0312074422836304
9499.0,0.1437,-0.6415,0.0327,0.082027867436409,1.0397298336029053,-1.0312074422836304
9500.0,0.1437,-0.6415,0.0327,0.8181480169296265,-0.8927188515663147,1.3177722692489624
9565.0,0.1437,-0.6415,0.0327,0.8181480169296265,-0.8927188515663147,1.3177722692489624
9584.0,0.1437,-0.6415,0.0327,0.8181480169296265,-0.8927188515663147,1.3177722692489624
9690.0,0.1437,-0.6415,0.0327,0.8181480169296265,-0.8927188515663147,1.3177722692489624
9693.0,0.3709,-1.4991,0.5463,0.8181480169296265,-0.8927188515663147,1.3177722692489624
9694.0,0.3709,-1.4991,0.5463,-0.5294525623321533,-0.6647452712059021,0.5518237948417664
9760.0,0.3709,-1.4991,0.5463,-0.5294525623321533,-0.6647452712059021,0.5518237948417664
9779.0,0.3709,-1.4991,0.5463,-0.5294525623321533,-0.6647452712059021,0.5518237948417664
9888.0,0.3709,-1.4991,0.5463,-0.5294525623321533,-0.6647452712059021,0.5518237948417664
9893.0,-0.5360,-1.2484,-0.0928,-0.5294525623321533,-0.6647452712059021,0.5518237948417664
9895.0,-0.5360,-1.2484,-0.0928,0.3547438681125641,-0.5411708354949951,3.1948254108428955
9956.0,-0.5360,-1.2484,-0.0928,0.3547438681125641,-0.5411708354949951,3.1948254108428955
9977.0,-0.5360,-1.2484,-0.0928,0.3547438681125641,-0.5411708354949951,3.1948254108428955
10082.00,-0.5360,-1.2484,-0.0928,0.3547438681125641,-0.5411708354949951,3.1948254108428955
10083.00,0.1583,-0.7471,0.0577,0.3547438681125641,-0.5411708354949951,3.1948254108428955
10085.00,0.1583,-0.7471,0.0577,0.4836448132991791,0.9278736114501953,0.46979594230651855
10153.00,0.1583,-0.7471,0.0577,0.4836448132991791,0.9278736114501953,0.46979594230651855
10171.00,0.1583,-0.7471,0.0577,0.4836448132991791,0.9278736114501953,0.46979594230651855
10279.00,0.1583,-0.7471,0.0577,0.4836448132991791,0.9278736114501953,0.46979594230651855
10282.00,0.3850,-1.2083,-0.0855,0.4836448132991791,0.9278736114501953,0.46979594230651855
10283.00,0.3850,-1.2083,-0.0855,0.7126836776733398,-0.2578018605709076,0.4282493591308594
10349.00,0.3850,-1.2083,-0.0855,0.7126836776733398,-0.2578018605709076,0.4282493591308594
10365.00,0.3850,-1.2083,-0.0855,0.7126836776733398,-0.2578018605709076,0.4282493591308594
10474.00,0.3850,-1.2083,-0.0855,0.7126836776733398,-0.2578018605709076,0.4282493591308594
10475.00,-0.1388,-1.7331,0.1373,0.7126836776733398,-0.2578018605709076,0.4282493591308594
10477.00,-0.1388,-1.7331,0.1373,-1.4349550008773804,1.753478765487671,0.34728679060935974
10543.00,-0.1388,-1.7331,0.1373,-1.4349550008773804,1.753478765487671,0.34728679060935974
10560.00,-0.1388,-1.7331,0.1373,-1.4349550008773804,1.753478765487671,0.34728679060935974
10670.00,-0.1388,-1.7331,0.1373,-1.4349550008773804,1.753478765487671,0.34728679060935974
10672.00,-0.1871,-0.6152,0.2384,-1.4349550008773804,1.753478765487671,0.34728679060935974
10673.00,-0.1871,-0.6152,0.2384,0.5177342891693115,1.2463973760604858,0.04793836176395416
10737.00,-0.1871,-0.6152,0.2384,0.5177342891693115,1.2463973760604858,0.04793836176395416
10756.00,-0.1871,-0.6152,0.2384,0.5177342891693115,1.2463973760604858,0.04793836176395416
10865.00,-0.1871,-0.6152,0.2384,0.5177342891693115,1.2463973760604858,0.04793836176395416
10866.00,1.2308,-1.5890,-0.1055,0.5177342891693115,1.2463973760604858,0.04793836176395416
10868.00,1.2308,-1.5890,-0.1055,0.4751224219799042,1.3081846237182617,-0.5390402674674988
10932.00,1.2308,-1.5890,-0.1055,0.4751224219799042,1.3081846237182617,-0.5390402674674988
10955.00,1.2308,-1.5890,-0.1055,0.4751224219799042,1.3081846237182617,-0.5390402674674988
11060.00,1.2308,-1.5890,-0.1055,0.4751224219799042,1.3081846237182617,-0.5390402674674988
11062.00,-0.1124,-0.5385,0.3161,0.4751224219799042,1.3081846237182617,-0.5390402674674988
11064.00,-0.1124,-0.5385,0.3161,-1.332686424255371,-0.6594188213348389,0.49962425231933594
11129.00,-0.1124,-0.5385,0.3161,-1.332686424255371,-0.6594188213348389,0.49962425231933594
11148.00,-0.1124,-0.5385,0.3161,-1.332686424255371,-0.6594188213348389,0.49962425231933594
11257.00,-0.1124,-0.5385,0.3161,-1.332686424255371,-0.6594188213348389,0.49962425231933594
11260.00,0.0728,-1.1346,-0.0381,-1.332686424255371,-0.6594188213348389,0.49962425231933594
11261.00,0.0728,-1.1346,-0.0381,0.743577241897583,-0.8106909394264221,0.42611876130104065
11324.00,0.0728,-1.1346,-0.0381,0.743577241897583,-0.8106909394264221,0.42611876130104065
11343.00,0.0728,-1.1346,-0.0381,0.743577241897583,-0.8106909394264221,0.42611876130104065
11451.00,0.0728,-1.1346,-0.0381,0.743577241897583,-0.8106909394264221,0.42611876130104065
11458.00,0.2546,-1.1409,0.1823,0.743577241897583,-0.8106909394264221,0.42611876130104065
11460.00,0.2546,-1.1409,0.1823,1.5500069856643677,1.2474627494812012,0.13529270887374878
11520.00,0.2546,-1.1409,0.1823,1.5500069856643677,1.2474627494812012,0.13529270887374878
11542.00,0.2546,-1.1409,0.1823,1.5500069856643677,1.2474627494812012,0.13529270887374878
11646.00,0.2546,-1.1409,0.1823,1.5500069856643677,1.2474627494812012,0.13529270887374878
11649.00,0.2570,-2.2163,0.1251,1.5500069856643677,1.2474627494812012,0.13529270887374878
11650.00,0.2570,-2.2163,0.1251,-2.735682487487793,-2.873105764389038,-4.393284797668457
11716.00,0.2570,-2.2163,0.1251,-2.735682487487793,-2.873105764389038,-4.393284797668457
11733.00,0.2570,-2.2163,0.1251,-2.735682487487793,-2.873105764389038,-4.393284797668457
11844.00,0.2570,-2.2163,0.1251,-2.735682487487793,-2.873105764389038,-4.393284797668457
11846.00,0.0552,-0.6723,-0.0699,-2.735682487487793,-2.873105764389038,-4.393284797668457
11847.00,0.0552,-0.6723,-0.0699,-0.7158795595169067,-3.1404953002929688,-0.8543681502342224
11911.00,0.0552,-0.6723,-0.0699,-0.7158795595169067,-3.1404953002929688,-0.8543681502342224
11929.00,0.0552,-0.6723,-0.0699,-0.7158795595169067,-3.1404953002929688,-0.8543681502342224
12036.00,0.0552,-0.6723,-0.0699,-0.7158795595169067,-3.1404953002929688,-0.8543681502342224
12037.00,0.3924,-1.4038,-0.1671,-0.7158795595169067,-3.1404953002929688,-0.8543681502342224
12039.00,0.3924,-1.4038,-0.1671,1.0823416709899902,2.815579891204834,0.4442288279533386
12106.00,0.3924,-1.4038,-0.1671,1.0823416709899902,2.815579891204834,0.4442288279533386
12123.00,0.3924,-1.4038,-0.1671,1.0823416709899902,2.815579891204834,0.4442288279533386
12232.00,0.3924,-1.4038,-0.1671,1.0823416709899902,2.815579891204834,0.4442288279533386
12316.00,-0.1305,-0.9064,-0.2326,1.0823416709899902,2.815579891204834,0.4442288279533386
12317.00,-0.1305,-0.9064,-0.2326,1.2634421586990356,1.1196271181106567,-0.9630284309387207
12318.00,-0.1305,-0.9064,-0.2326,1.2634421586990356,1.1196271181106567,-0.9630284309387207
12318.00,-0.1305,-0.9064,-0.2326,1.2634421586990356,1.1196271181106567,-0.9630284309387207
12430.00,-0.1305,-0.9064,-0.2326,1.2634421586990356,1.1196271181106567,-0.9630284309387207
12431.00,-0.1207,-0.5326,0.1070,1.2634421586990356,1.1196271181106567,-0.9630284309387207
12433.00,-0.1207,-0.5326,0.1070,-0.15979453921318054,-1.94097101688385,1.1910020112991333
12495.00,-0.1207,-0.5326,0.1070,-0.15979453921318054,-1.94097101688385,1.1910020112991333
12515.00,-0.1207,-0.5326,0.1070,-0.15979453921318054,-1.94097101688385,1.1910020112991333
12624.00,-0.1207,-0.5326,0.1070,-0.15979453921318054,-1.94097101688385,1.1910020112991333
12627.00,0.2272,-0.9030,0.0112,-0.15979453921318054,-1.94097101688385,1.1910020112991333
12628.00,0.2272,-0.9030,0.0112,1.5436152219772339,2.686678886413574,0.34941738843917847
12694.00,0.2272,-0.9030,0.0112,1.5436152219772339,2.686678886413574,0.34941738843917847
12714.00,0.2272,-0.9030,0.0112,1.5436152219772339,2.686678886413574,0.34941738843917847
12819.00,0.2272,-0.9030,0.0112,1.5436152219772339,2.686678886413574,0.34941738843917847
12823.00,0.2858,-1.0373,0.1539,1.5436152219772339,2.686678886413574,0.34941738843917847
12825.00,0.2858,-1.0373,0.1539,-1.90688157081604,-0.45807766914367676,-1.1068434715270996
12888.00,0.2858,-1.0373,0.1539,-1.90688157081604,-0.45807766914367676,-1.1068434715270996
12906.00,0.2858,-1.0373,0.1539,-1.90688157081604,-0.45807766914367676,-1.1068434715270996
13014.00,0.2858,-1.0373,0.1539,-1.90688157081604,-0.45807766914367676,-1.1068434715270996
13016.00,-0.4994,-0.6797,-0.0557,-1.90688157081604,-0.45807766914367676,-1.1068434715270996
13017.00,-0.4994,-0.6797,-0.0557,1.4765015840530396,-1.1665000915527344,0.15872924029827118
13083.00,-0.4994,-0.6797,-0.0557,1.4765015840530396,-1.1665000915527344,0.15872924029827118
13102.00,-0.4994,-0.6797,-0.0557,1.4765015840530396,-1.1665000915527344,0.15872924029827118
13210.00,-0.4994,-0.6797,-0.0557,1.4765015840530396,-1.1665000915527344,0.15872924029827118
13211.00,-0.1940,-0.7388,0.0176,1.4765015840530396,-1.1665000915527344,0.15872924029827118
13213.00,-0.1940,-0.7388,0.0176,0.8959147334098816,0.3334379494190216,0.5880439281463623
13277.00,-0.1940,-0.7388,0.0176,0.8959147334098816,0.3334379494190216,0.5880439281463623
13299.00,-0.1940,-0.7388,0.0176,0.8959147334098816,0.3334379494190216,0.5880439281463623
13407.00,0.6948,-0.7173,0.1798,0.8959147334098816,0.3334379494190216,0.5880439281463623
13409.00,0.6948,-0.7173,0.1798,-0.02663242258131504,-0.474057137966156,0.2833689749240875
13474.00,0.6948,-0.7173,0.1798,-0.02663242258131504,-0.474057137966156,0.2833689749240875
13493.00,0.6948,-0.7173,0.1798,-0.02663242258131504,-0.474057137966156,0.2833689749240875
13551.00,0.6948,-0.7173,0.1798,-0.02663242258131504,-0.474057137966156,0.2833689749240875
13600.00,-0.1554,-0.2927,0.1378,-0.02663242258131504,-0.474057137966156,0.2833689749240875
13601.00,-0.1554,-0.2927,0.1378,-1.341208815574646,-0.8362581133842468,0.47618773579597473
13669.00,-0.1554,-0.2927,0.1378,-1.341208815574646,-0.8362581133842468,0.47618773579597473
13689.00,-0.1554,-0.2927,0.1378,-1.341208815574646,-0.8362581133842468,0.47618773579597473
13746.00,-0.1554,-0.2927,0.1378,-1.341208815574646,-0.8362581133842468,0.47618773579597473
13795.00,0.3015,-0.9528,-0.0948,-1.341208815574646,-0.8362581133842468,0.47618773579597473
13795.00,0.3015,-0.9528,-0.0948,1.808874249458313,0.20027582347393036,0.24501828849315643
13863.00,0.3015,-0.9528,-0.0948,1.808874249458313,0.20027582347393036,0.24501828849315643
13882.00,0.3015,-0.9528,-0.0948,1.808874249458313,0.20027582347393036,0.24501828849315643
13941.00,0.3015,-0.9528,-0.0948,1.808874249458313,0.20027582347393036,0.24501828849315643
13994.00,0.1099,-0.8775,0.0943,1.808874249458313,0.20027582347393036,0.24501828849315643
13995.00,0.1099,-0.8775,0.0943,0.9949873089790344,-0.07137489318847656,0.2141246795654297
14060.00,0.1099,-0.8775,0.0943,0.9949873089790344,-0.07137489318847656,0.2141246795654297
14079.00,0.1099,-0.8775,0.0943,0.9949873089790344,-0.07137489318847656,0.2141246795654297
14138.00,0.1099,-0.8775,0.0943,0.9949873089790344,-0.07137489318847656,0.2141246795654297
14187.00,0.0308,-2.2286,0.1358,0.9949873089790344,-0.07137489318847656,0.2141246795654297
14189.00,0.0308,-2.2286,0.1358,-1.458391547203064,0.23543062806129456,-1.4946116209030151
14254.00,0.0308,-2.2286,0.1358,-1.458391547203064,0.23543062806129456,-1.4946116209030151
14273.00,0.0308,-2.2286,0.1358,-1.458391547203064,0.23543062806129456,-1.4946116209030151
14383.00,-1.1111,-0.8937,-0.0621,-1.458391547203064,0.23543062806129456,-1.4946116209030151
14385.00,-1.1111,-0.8937,-0.0621,-2.19877290725708,4.69689416885376,2.804926872253418
14451.00,-1.1111,-0.8937,-0.0621,-2.19877290725708,4.69689416885376,2.804926872253418
14470.00,-1.1111,-0.8937,-0.0621,-2.19877290725708,4.69689416885376,2.804926872253418
14577.00,0.0875,-0.9958,0.3088,-2.19877290725708,4.69689416885376,2.804926872253418
14579.00,0.0875,-0.9958,0.3088,1.7545440196990967,-0.40481284260749817,1.433889627456665
14638.00,0.0875,-0.9958,0.3088,1.7545440196990967,-0.40481284260749817,1.433889627456665
14648.00,0.0875,-0.9958,0.3088,1.7545440196990967,-0.40481284260749817,1.433889627456665
14666.00,0.0875,-0.9958,0.3088,1.7545440196990967,-0.40481284260749817,1.433889627456665
14773.00,0.2937,-0.8306,-0.0733,1.7545440196990967,-0.40481284260749817,1.433889627456665
14774.00,0.2937,-0.8306,-0.0733,1.9026203155517578,3.559157133102417,-0.3046749234199524
14833.00,0.2937,-0.8306,-0.0733,1.9026203155517578,3.559157133102417,-0.3046749234199524
14841.00,0.2937,-0.8306,-0.0733,1.9026203155517578,3.559157133102417,-0.3046749234199524
14860.00,0.2937,-0.8306,-0.0733,1.9026203155517578,3.559157133102417,-0.3046749234199524
14974.00,-0.1637,-0.7368,0.2580,1.9026203155517578,3.559157133102417,-0.3046749234199524
14976.00,-0.1637,-0.7368,0.2580,-1.0312074422836304,1.1547819375991821,0.5092119574546814
15027.00,-0.1637,-0.7368,0.2580,-1.0312074422836304,1.1547819375991821,0.5092119574546814
15037.00,-0.1637,-0.7368,0.2580,-1.0312074422836304,1.1547819375991821,0.5092119574546814
15056.00,-0.1637,-0.7368,0.2580,-1.0312074422836304,1.1547819375991821,0.5092119574546814
15164.00,0.2321,-0.9264,0.1725,-1.0312074422836304,1.1547819375991821,0.5092119574546814
15166.00,0.2321,-0.9264,0.1725,1.2602462768554688,5.4734954833984375,-0.2918913662433624
15222.00,0.2321,-0.9264,0.1725,1.2602462768554688,5.4734954833984375,-0.2918913662433624
15233.00,0.2321,-0.9264,0.1725,1.2602462768554688,5.4734954833984375,-0.2918913662433624
15252.00,0.2321,-0.9264,0.1725,1.2602462768554688,5.4734954833984375,-0.2918913662433624
15359.00,0.2091,-0.9269,0.0552,1.2602462768554688,5.4734954833984375,-0.2918913662433624
15360.00,0.2091,-0.9269,0.0552,0.11931325495243073,-0.3547438681125641,0.35793977975845337
15427.00,0.2091,-0.9269,0.0552,0.11931325495243073,-0.3547438681125641,0.35793977975845337
15447.00,0.2091,-0.9269,0.0552,0.11931325495243073,-0.3547438681125641,0.35793977975845337
15554.00,0.1808,-1.1776,0.2976,0.11931325495243073,-0.3547438681125641,0.35793977975845337
15556.00,0.1808,-1.1776,0.2976,-1.4999381303787231,-1.1792837381362915,-0.18110047280788422
15624.00,0.1808,-1.1776,0.2976,-1.4999381303787231,-1.1792837381362915,-0.18110047280788422
15642.00,0.1808,-1.1776,0.2976,-1.4999381303787231,-1.1792837381362915,-0.18110047280788422
15748.00,-0.3689,-1.1868,0.3215,-1.4999381303787231,-1.1792837381362915,-0.18110047280788422
15749.00,-0.3689,-1.1868,0.3215,-0.765948474407196,-2.025129556655884,-1.4519996643066406
15777.00,-0.3689,-1.1868,0.3215,-0.765948474407196,-2.025129556655884,-1.4519996643066406
15817.00,-0.3689,-1.1868,0.3215,-0.765948474407196,-2.025129556655884,-1.4519996643066406
15836.00,-0.3689,-1.1868,0.3215,-0.765948474407196,-2.025129556655884,-1.4519996643066406
15944.00,0.4134,-0.8683,0.2419,-0.765948474407196,-2.025129556655884,-1.4519996643066406
15945.00,0.4134,-0.8683,0.2419,-0.1725780963897705,-1.8227230310440063,-0.4687306582927704
15973.00,0.4134,-0.8683,0.2419,-0.1725780963897705,-1.8227230310440063,-0.4687306582927704
16014.00,0.4134,-0.8683,0.2419,-0.1725780963897705,-1.8227230310440063,-0.4687306582927704
16032.00,0.4134,-0.8683,0.2419,-0.1725780963897705,-1.8227230310440063,-0.4687306582927704
16140.00,0.5873,-1.3178,-0.3713,-0.1725780963897705,-1.8227230310440063,-0.4687306582927704
16140.9999999999980,0.5873,-1.3178,-0.3713,0.43464115262031555,-1.240005612373352,-0.10439909994602203
16170.0000000000020,0.5873,-1.3178,-0.3713,0.43464115262031555,-1.240005612373352,-0.10439909994602203
16210.00,0.5873,-1.3178,-0.3713,0.43464115262031555,-1.240005612373352,-0.10439909994602203
16228.0000000000020,0.5873,-1.3178,-0.3713,0.43464115262031555,-1.240005612373352,-0.10439909994602203
16334.00,0.0743,-0.2575,0.1920,0.43464115262031555,-1.240005612373352,-0.10439909994602203
16335.00,0.0743,-0.2575,0.1920,0.6775288581848145,1.490350365638733,0.6690064668655396
16364.00,0.0743,-0.2575,0.1920,0.6775288581848145,1.490350365638733,0.6690064668655396
16403.00,0.0743,-0.2575,0.1920,0.6775288581848145,1.490350365638733,0.6690064668655396
16422.00,0.0743,-0.2575,0.1920,0.6775288581848145,1.490350365638733,0.6690064668655396
16532.00,0.2673,-1.0031,0.1334,0.6775288581848145,1.490350365638733,0.6690064668655396
16533.00,0.2673,-1.0031,0.1334,-0.48471009731292725,-1.2954010963439941,0.9587672352790833
16600.00,0.2673,-1.0031,0.1334,-0.48471009731292725,-1.2954010963439941,0.9587672352790833
16602.00,0.2673,-1.0031,0.1334,-0.48471009731292725,-1.2954010963439941,0.9587672352790833
16620.00,0.2673,-1.0031,0.1334,-0.48471009731292725,-1.2954010963439941,0.9587672352790833
16726.00,0.0997,-0.9259,0.1187,-0.48471009731292725,-1.2954010963439941,0.9587672352790833
16729.00,0.0997,-0.9259,0.1187,-0.17470869421958923,1.7236504554748535,0.3547438681125641
16796.00,0.0997,-0.9259,0.1187,-0.17470869421958923,1.7236504554748535,0.3547438681125641
16815.00,0.0997,-0.9259,0.1187,-0.17470869421958923,1.7236504554748535,0.3547438681125641
16922.00,0.4319,-1.0657,-0.0479,-0.17470869421958923,1.7236504554748535,0.3547438681125641
16923.00,0.4319,-1.0657,-0.0479,-0.31532788276672363,0.6338516473770142,-1.9910399913787842
16992.00,0.4319,-1.0657,-0.0479,-0.31532788276672363,0.6338516473770142,-1.9910399913787842
17009.00,0.4319,-1.0657,-0.0479,-0.31532788276672363,0.6338516473770142,-1.9910399913787842
17049.00,0.4319,-1.0657,-0.0479,-0.31532788276672363,0.6338516473770142,-1.9910399913787842
17117.00,0.0640,-0.6635,-0.0640,-0.31532788276672363,0.6338516473770142,-1.9910399913787842
17120.00,0.0640,-0.6635,-0.0640,-0.26419365406036377,3.3769912719726563,-1.497807502746582
17187.00,0.0640,-0.6635,-0.0640,-0.26419365406036377,3.3769912719726563,-1.497807502746582
17206.00,0.0640,-0.6635,-0.0640,-0.26419365406036377,3.3769912719726563,-1.497807502746582
17245.00,0.0640,-0.6635,-0.0640,-0.26419365406036377,3.3769912719726563,-1.497807502746582
17316.00,0.3337,-0.6948,-0.1378,-0.26419365406036377,3.3769912719726563,-1.497807502746582
17319.00,0.3337,-0.6948,-0.1378,0.5315831899642944,0.08735434710979462,0.6839206218719482
17382.00,0.3337,-0.6948,-0.1378,0.5315831899642944,0.08735434710979462,0.6839206218719482
17401.00,0.3337,-0.6948,-0.1378,0.5315831899642944,0.08735434710979462,0.6839206218719482
17439.00,0.3337,-0.6948,-0.1378,0.5315831899642944,0.08735434710979462,0.6839206218719482
17510.00,0.1324,-1.1810,0.4173,0.5315831899642944,0.08735434710979462,0.6839206218719482
17515.00,0.1324,-1.1810,0.4173,-0.4303799569606781,0.08628904819488525,0.31745848059654236
17577.00,0.1324,-1.1810,0.4173,-0.4303799569606781,0.08628904819488525,0.31745848059654236
17597.00,0.1324,-1.1810,0.4173,-0.4303799569606781,0.08628904819488525,0.31745848059654236
17635.00,0.1324,-1.1810,0.4173,-0.4303799569606781,0.08628904819488525,0.31745848059654236
17704.00,-0.1114,-1.0881,0.0503,-0.4303799569606781,0.08628904819488525,0.31745848059654236
17705.00,-0.1114,-1.0881,0.0503,-0.4122699201107025,-2.9551336765289307,1.4626526832580566
17774.00,-0.1114,-1.0881,0.0503,-0.4122699201107025,-2.9551336765289307,1.4626526832580566
17791.00,-0.1114,-1.0881,0.0503,-0.4122699201107025,-2.9551336765289307,1.4626526832580566
17833.00,-0.1114,-1.0881,0.0503,-0.4122699201107025,-2.9551336765289307,1.4626526832580566
17900.00,0.0967,-0.8350,0.1544,-0.4122699201107025,-2.9551336765289307,1.4626526832580566
17902.00,0.0967,-0.8350,0.1544,0.3952251672744751,1.8610737323760986,0.1960146427154541
17969.00,0.0967,-0.8350,0.1544,0.3952251672744751,1.8610737323760986,0.1960146427154541
17987.00,0.0967,-0.8350,0.1544,0.3952251672744751,1.8610737323760986,0.1960146427154541
18025.00,0.0967,-0.8350,0.1544,0.3952251672744751,1.8610737323760986,0.1960146427154541
18097.00,0.3845,-1.2127,0.1950,0.3952251672744751,1.8610737323760986,0.1960146427154541
18098.00,0.3845,-1.2127,0.1950,0.17044751346111298,-0.6221334338188171,0.7574261426925659
18164.00,0.3845,-1.2127,0.1950,0.17044751346111298,-0.6221334338188171,0.7574261426925659
18185.00,0.3845,-1.2127,0.1950,0.17044751346111298,-0.6221334338188171,0.7574261426925659
18222.00,0.3845,-1.2127,0.1950,0.17044751346111298,-0.6221334338188171,0.7574261426925659
18291.00,0.1671,-2.2892,0.2316,0.17044751346111298,-0.6221334338188171,0.7574261426925659
18292.00,0.1671,-2.2892,0.2316,-1.944166898727417,-1.0365339517593384,-1.851486086845398
18360.00,0.1671,-2.2892,0.2316,-1.944166898727417,-1.0365339517593384,-1.851486086845398
18377.00,0.1671,-2.2892,0.2316,-1.944166898727417,-1.0365339517593384,-1.851486086845398
18417.00,0.1671,-2.2892,0.2316,-1.944166898727417,-1.0365339517593384,-1.851486086845398
18487.00,-0.0923,-0.5184,0.0875,-1.944166898727417,-1.0365339517593384,-1.851486086845398
18489.00,-0.0923,-0.5184,0.0875,0.11292147636413574,-0.017044750973582268,-0.7158795595169067
18554.00,-0.0923,-0.5184,0.0875,0.11292147636413574,-0.017044750973582268,-0.7158795595169067
18573.00,-0.0923,-0.5184,0.0875,0.11292147636413574,-0.017044750973582268,-0.7158795595169067
18613.00,-0.0923,-0.5184,0.0875,0.11292147636413574,-0.017044750973582268,-0.7158795595169067
18681.00,0.9914,-1.7473,-0.1691,0.11292147636413574,-0.017044750973582268,-0.7158795595169067
18682.00,0.9914,-1.7473,-0.1691,-0.051134251058101654,1.9644075632095337,-0.7819279432296753
18753.00,0.9914,-1.7473,-0.1691,-0.051134251058101654,1.9644075632095337,-0.7819279432296753
18769.00,0.9914,-1.7473,-0.1691,-0.051134251058101654,1.9644075632095337,-0.7819279432296753
18808.00,0.9914,-1.7473,-0.1691,-0.051134251058101654,1.9644075632095337,-0.7819279432296753
18877.00,-0.2077,-0.3806,0.1940,-0.051134251058101654,1.9644075632095337,-0.7819279432296753
18878.00,-0.2077,-0.3806,0.1940,-0.8596946001052856,-0.521995484828949,-0.20240642130374908
18944.00,-0.2077,-0.3806,0.1940,-0.8596946001052856,-0.521995484828949,-0.20240642130374908
18963.00,-0.2077,-0.3806,0.1940,-0.8596946001052856,-0.521995484828949,-0.20240642130374908
19014.00,-0.2077,-0.3806,0.1940,-0.8596946001052856,-0.521995484828949,-0.20240642130374908
19072.00,0.2077,-0.6733,-0.0308,-0.8596946001052856,-0.521995484828949,-0.20240642130374908
19074.00,0.2077,-0.6733,-0.0308,1.049317479133606,-0.8149521350860596,0.9662243127822876
19141.00,0.2077,-0.6733,-0.0308,1.049317479133606,-0.8149521350860596,0.9662243127822876
19160.00,0.2077,-0.6733,-0.0308,1.049317479133606,-0.8149521350860596,0.9662243127822876
19265.00,0.1060,-1.0686,0.0186,1.049317479133606,-0.8149521350860596,0.9662243127822876
19266.00,0.1060,-1.0686,0.0186,0.9012411832809448,1.3092498779296875,0.39309456944465637
19334.00,0.1060,-1.0686,0.0186,0.9012411832809448,1.3092498779296875,0.39309456944465637
19353.00,0.1060,-1.0686,0.0186,0.9012411832809448,1.3092498779296875,0.39309456944465637
19394.00,0.1060,-1.0686,0.0186,0.9012411832809448,1.3092498779296875,0.39309456944465637
19462.00,0.3318,-0.8912,-0.0049,0.9012411832809448,1.3092498779296875,0.39309456944465637
19463.00,0.3318,-0.8912,-0.0049,-0.9108288884162903,1.0109667778015137,-2.518362045288086
19533.00,0.3318,-0.8912,-0.0049,-0.9108288884162903,1.0109667778015137,-2.518362045288086
19553.00,0.3318,-0.8912,-0.0049,-0.9108288884162903,1.0109667778015137,-2.518362045288086
19652.00,0.3318,-0.8912,-0.0049,-0.9108288884162903,1.0109667778015137,-2.518362045288086
19659.00,0.0010,-0.7466,-0.1163,-0.9108288884162903,1.0109667778015137,-2.518362045288086
19660.00,0.0010,-0.7466,-0.1163,0.05646073818206787,2.523688554763794,-1.6448184251785278
19728.00,0.0010,-0.7466,-0.1163,0.05646073818206787,2.523688554763794,-1.6448184251785278
19747.00,0.0010,-0.7466,-0.1163,0.05646073818206787,2.523688554763794,-1.6448184251785278
19845.00,0.0010,-0.7466,-0.1163,0.05646073818206787,2.523688554763794,-1.6448184251785278
19853.00,0.1622,-0.5707,-0.0982,0.05646073818206787,2.523688554763794,-1.6448184251785278
19855.00,0.1622,-0.5707,-0.0982,0.45807766914367676,0.06285251677036285,1.253854513168335
19923.00,0.1622,-0.5707,-0.0982,0.45807766914367676,0.06285251677036285,1.253854513168335
19941.00,0.1622,-0.5707,-0.0982,0.45807766914367676,0.06285251677036285,1.253854513168335
20043.00,0.1622,-0.5707,-0.0982,0.45807766914367676,0.06285251677036285,1.253854513168335
20050.00,0.2893,-1.2968,0.3718,0.45807766914367676,0.06285251677036285,1.253854513168335
20051.00,0.2893,-1.2968,0.3718,0.0351547971367836,-1.1377371549606323,0.9523754715919495
20117.00,0.2893,-1.2968,0.3718,0.0351547971367836,-1.1377371549606323,0.9523754715919495
20135.00,0.2893,-1.2968,0.3718,0.0351547971367836,-1.1377371549606323,0.9523754715919495
20234.00,0.2893,-1.2968,0.3718,0.0351547971367836,-1.1377371549606323,0.9523754715919495
20245.00,-0.3386,-1.2616,-0.0850,0.0351547971367836,-1.1377371549606323,0.9523754715919495
20246.00,-0.3386,-1.2616,-0.0850,0.7574261426925659,-2.098634958267212,2.2989108562469482
20334.00,-0.3386,-1.2616,-0.0850,0.7574261426925659,-2.098634958267212,2.2989108562469482
20334.00,-0.3386,-1.2616,-0.0850,0.7574261426925659,-2.098634958267212,2.2989108562469482
20430.00,-0.3386,-1.2616,-0.0850,0.7574261426925659,-2.098634958267212,2.2989108562469482
20440.00,0.1109,-0.7510,0.1490,0.7574261426925659,-2.098634958267212,2.2989108562469482
20441.00,0.1109,-0.7510,0.1490,-0.3366338312625885,0.5582156181335449,0.4708612561225891
20509.00,0.1109,-0.7510,0.1490,-0.3366338312625885,0.5582156181335449,0.4708612561225891
20528.00,0.1109,-0.7510,0.1490,-0.3366338312625885,0.5582156181335449,0.4708612561225891
20635.00,0.4310,-1.2860,0.1261,-0.3366338312625885,0.5582156181335449,0.4708612561225891
20640.00,0.4310,-1.2860,0.1261,0.27378129959106445,1.2655727863311768,0.35261330008506775
20706.00,0.4310,-1.2860,0.1261,0.27378129959106445,1.2655727863311768,0.35261330008506775
20723.00,0.4310,-1.2860,0.1261,0.27378129959106445,1.2655727863311768,0.35261330008506775
20791.00,0.4310,-1.2860,0.1261,0.27378129959106445,1.2655727863311768,0.35261330008506775
20833.00,0.1559,-2.4817,0.1652,0.27378129959106445,1.2655727863311768,0.35261330008506775
20835.00,0.1559,-2.4817,0.1652,-1.447738528251648,1.003509759902954,-0.6924430131912231
20899.00,0.1559,-2.4817,0.1652,-1.447738528251648,1.003509759902954,-0.6924430131912231
20918.00,0.1559,-2.4817,0.1652,-1.447738528251648,1.003509759902954,-0.6924430131912231
20988.00,0.1559,-2.4817,0.1652,-1.447738528251648,1.003509759902954,-0.6924430131912231
21027.00,-0.1158,-0.5912,0.1397,-1.447738528251648,1.003509759902954,-0.6924430131912231
21029.00,-0.1158,-0.5912,0.1397,0.12144385278224945,-0.3302420377731323,-0.433575838804245
21095.00,-0.1158,-0.5912,0.1397,0.12144385278224945,-0.3302420377731323,-0.433575838804245
21117.00,-0.1158,-0.5912,0.1397,0.12144385278224945,-0.3302420377731323,-0.433575838804245
21184.00,-0.1158,-0.5912,0.1397,0.12144385278224945,-0.3302420377731323,-0.433575838804245
21222.00,1.1810,-1.8259,-0.1803,0.12144385278224945,-0.3302420377731323,-0.433575838804245
21224.00,1.1810,-1.8259,-0.1803,0.00745707843452692,1.1004517078399658,-0.6892471313476563
21292.00,1.1810,-1.8259,-0.1803,0.00745707843452692,1.1004517078399658,-0.6892471313476563
21309.00,1.1810,-1.8259,-0.1803,0.00745707843452692,1.1004517078399658,-0.6892471313476563
21377.00,1.1810,-1.8259,-0.1803,0.00745707843452692,1.1004517078399658,-0.6892471313476563
21416.00,-0.1383,-0.3318,0.1759,0.00745707843452692,1.1004517078399658,-0.6892471313476563
21422.00,-0.1383,-0.3318,0.1759,-1.3028581142425537,-0.24501828849315643,-0.20240642130374908
21487.00,-0.1383,-0.3318,0.1759,-1.3028581142425537,-0.24501828849315643,-0.20240642130374908
21505.00,-0.1383,-0.3318,0.1759,-1.3028581142425537,-0.24501828849315643,-0.20240642130374908
21572.00,-0.1383,-0.3318,0.1759,-1.3028581142425537,-0.24501828849315643,-0.20240642130374908
21614.00,0.2463,-0.6611,-0.1505,-1.3028581142425537,-0.24501828849315643,-0.20240642130374908
21616.00,0.2463,-0.6611,-0.1505,0.8575640320777893,-0.8000379800796509,0.8692823052406311
21682.00,0.2463,-0.6611,-0.1505,0.8575640320777893,-0.8000379800796509,0.8692823052406311
21701.00,0.2463,-0.6611,-0.1505,0.8575640320777893,-0.8000379800796509,0.8692823052406311
21776.00,0.2463,-0.6611,-0.1505,0.8575640320777893,-0.8000379800796509,0.8692823052406311
21809.00,0.1055,-1.0163,0.1007,0.8575640320777893,-0.8000379800796509,0.8692823052406311
21810.00,0.1055,-1.0163,0.1007,1.2783563137054443,1.604337215423584,0.3249155580997467
21876.00,0.1055,-1.0163,0.1007,1.2783563137054443,1.604337215423584,0.3249155580997467
21895.00,0.1055,-1.0163,0.1007,1.2783563137054443,1.604337215423584,0.3249155580997467
21965.00,0.1055,-1.0163,0.1007,1.2783563137054443,1.604337215423584,0.3249155580997467
22003.00,0.3332,-0.8585,-0.0708,1.2783563137054443,1.604337215423584,0.3249155580997467
22005.00,0.3332,-0.8585,-0.0708,-1.5894230604171753,0.7073571681976318,-3.166062593460083
22074.00,0.3332,-0.8585,-0.0708,-1.5894230604171753,0.7073571681976318,-3.166062593460083
22091.00,0.3332,-0.8585,-0.0708,-1.5894230604171753,0.7073571681976318,-3.166062593460083
22159.00,0.3332,-0.8585,-0.0708,-1.5894230604171753,0.7073571681976318,-3.166062593460083
22199.00,0.2169,-0.6054,-0.0103,-1.5894230604171753,0.7073571681976318,-3.166062593460083
22200.00,0.2169,-0.6054,-0.0103,-0.7062918543815613,-0.13848860561847687,-1.4828933477401733
22269.00,0.2169,-0.6054,-0.0103,-0.7062918543815613,-0.13848860561847687,-1.4828933477401733
22287.00,0.2169,-0.6054,-0.0103,-0.7062918543815613,-0.13848860561847687,-1.4828933477401733
22394.00,0.2282,-0.6288,-0.1275,-0.7062918543815613,-0.13848860561847687,-1.4828933477401733
22397.00,0.2282,-0.6288,-0.1275,0.900175929069519,-0.7446425557136536,1.8951632976531982
22464.00,0.2282,-0.6288,-0.1275,0.900175929069519,-0.7446425557136536,1.8951632976531982
22483.00,0.2282,-0.6288,-0.1275,0.900175929069519,-0.7446425557136536,1.8951632976531982
22502.00,0.2282,-0.6288,-0.1275,0.900175929069519,-0.7446425557136536,1.8951632976531982
22588.00,0.2726,-2.1005,0.2985,0.900175929069519,-0.7446425557136536,1.8951632976531982
22589.00,0.2726,-2.1005,0.2985,-0.08948494493961334,-0.7563608288764954,0.5678032636642456
22656.00,0.2726,-2.1005,0.2985,-0.08948494493961334,-0.7563608288764954,0.5678032636642456
22675.00,0.2726,-2.1005,0.2985,-0.08948494493961334,-0.7563608288764954,0.5678032636642456
22785.00,-0.3357,-1.1478,0.1876,-0.08948494493961334,-0.7563608288764954,0.5678032636642456
22786.00,-0.3357,-1.1478,0.1876,0.08948494493961334,-1.2272220849990845,1.73430335521698
22822.00,-0.3357,-1.1478,0.1876,0.08948494493961334,-1.2272220849990845,1.73430335521698
22853.00,-0.3357,-1.1478,0.1876,0.08948494493961334,-1.2272220849990845,1.73430335521698
22874.00,-0.3357,-1.1478,0.1876,0.08948494493961334,-1.2272220849990845,1.73430335521698
22979.00,0.2194,-0.6914,0.1363,0.08948494493961334,-1.2272220849990845,1.73430335521698
22980.00,0.2194,-0.6914,0.1363,0.9502448439598083,1.396604299545288,0.802168607711792
23019.00,0.2194,-0.6914,0.1363,0.9502448439598083,1.396604299545288,0.802168607711792
23049.00,0.2194,-0.6914,0.1363,0.9502448439598083,1.396604299545288,0.802168607711792
23068.00,0.2194,-0.6914,0.1363,0.9502448439598083,1.396604299545288,0.802168607711792
23175.00,0.3914,-1.2367,0.1339,0.9502448439598083,1.396604299545288,0.802168607711792
23177.00,0.3914,-1.2367,0.1339,-1.1004517078399658,0.5816521048545837,-0.5571503043174744
23219.00,0.3914,-1.2367,0.1339,-1.1004517078399658,0.5816521048545837,-0.5571503043174744
23245.00,0.3914,-1.2367,0.1339,-1.1004517078399658,0.5816521048545837,-0.5571503043174744
23263.00,0.3914,-1.2367,0.1339,-1.1004517078399658,0.5816521048545837,-0.5571503043174744
23371.00,-0.2042,-1.1961,0.2228,-1.1004517078399658,0.5816521048545837,-0.5571503043174744
23372.00,-0.2042,-1.1961,0.2228,-0.7350549101829529,-1.2133731842041016,0.28549957275390625
23410.00,-0.2042,-1.1961,0.2228,-0.7350549101829529,-1.2133731842041016,0.28549957275390625
23440.00,-0.2042,-1.1961,0.2228,-0.7350549101829529,-1.2133731842041016,0.28549957275390625
23459.00,-0.2042,-1.1961,0.2228,-0.7350549101829529,-1.2133731842041016,0.28549957275390625
23568.00,0.0068,-0.7202,0.1676,-0.7350549101829529,-1.2133731842041016,0.28549957275390625
23572.00,0.0068,-0.7202,0.1676,0.1874922662973404,0.32704615592956543,0.02343653328716755
23605.00,0.0068,-0.7202,0.1676,0.1874922662973404,0.32704615592956543,0.02343653328716755
23635.00,0.0068,-0.7202,0.1676,0.1874922662973404,0.32704615592956543,0.02343653328716755
23652.00,0.0068,-0.7202,0.1676,0.1874922662973404,0.32704615592956543,0.02343653328716755
23762.00,1.2679,-1.2303,0.0049,0.1874922662973404,0.32704615592956543,0.02343653328716755
23764.00,1.2679,-1.2303,0.0049,0.1491415649652481,1.0855375528335571,-1.511656403541565
23802.00,1.2679,-1.2303,0.0049,0.1491415649652481,1.0855375528335571,-1.511656403541565
23832.00,1.2679,-1.2303,0.0049,0.1491415649652481,1.0855375528335571,-1.511656403541565
23851.00,1.2679,-1.2303,0.0049,0.1491415649652481,1.0855375528335571,-1.511656403541565
23956.00,-0.0401,-1.0774,0.2047,0.1491415649652481,1.0855375528335571,-1.511656403541565
23958.00,-0.0401,-1.0774,0.2047,-1.3561229705810547,-1.3145763874053955,1.755609393119812
23997.00,-0.0401,-1.0774,0.2047,-1.3561229705810547,-1.3145763874053955,1.755609393119812
24024.00,-0.0401,-1.0774,0.2047,-1.3561229705810547,-1.3145763874053955,1.755609393119812
24044.00,-0.0401,-1.0774,0.2047,-1.3561229705810547,-1.3145763874053955,1.755609393119812
24153.00,0.2658,-1.0178,0.1520,-1.3561229705810547,-1.3145763874053955,1.755609393119812
24154.00,0.2658,-1.0178,0.1520,0.566737949848175,0.08841964602470398,0.4591429829597473
24196.00,0.2658,-1.0178,0.1520,0.566737949848175,0.08841964602470398,0.4591429829597473
24222.00,0.2658,-1.0178,0.1520,0.566737949848175,0.08841964602470398,0.4591429829597473
24240.00,0.2658,-1.0178,0.1520,0.566737949848175,0.08841964602470398,0.4591429829597473
24346.00,0.2433,-1.0046,0.0630,0.566737949848175,0.08841964602470398,0.4591429829597473
24346.00,0.2433,-1.0046,0.0630,1.1782183647155762,1.1622389554977417,0.252475380897522
24407.00,0.2433,-1.0046,0.0630,1.1782183647155762,1.1622389554977417,0.252475380897522
24416.00,0.2433,-1.0046,0.0630,1.1782183647155762,1.1622389554977417,0.252475380897522
24435.00,0.2433,-1.0046,0.0630,1.1782183647155762,1.1622389554977417,0.252475380897522
24545.00,0.2223,-1.4751,0.0836,1.1782183647155762,1.1622389554977417,0.252475380897522
24547.00,0.2223,-1.4751,0.0836,-1.7374993562698364,-1.1185617446899414,-3.356750726699829
24601.00,0.2223,-1.4751,0.0836,-1.7374993562698364,-1.1185617446899414,-3.356750726699829
24613.00,0.2223,-1.4751,0.0836,-1.7374993562698364,-1.1185617446899414,-3.356750726699829
24632.00,0.2223,-1.4751,0.0836,-1.7374993562698364,-1.1185617446899414,-3.356750726699829
24739.00,0.4652,-0.6982,-0.1182,-1.7374993562698364,-1.1185617446899414,-3.356750726699829
24741.00,0.4652,-0.6982,-0.1182,-0.13848860561847687,-1.0738192796707153,-1.2687686681747437
24809.00,0.4652,-0.6982,-0.1182,-0.13848860561847687,-1.0738192796707153,-1.2687686681747437
24829.00,0.4652,-0.6982,-0.1182,-0.13848860561847687,-1.0738192796707153,-1.2687686681747437
24856.00,0.4652,-0.6982,-0.1182,-0.13848860561847687,-1.0738192796707153,-1.2687686681747437
24935.00,0.3332,-0.8815,-0.2086,-0.13848860561847687,-1.0738192796707153,-1.2687686681747437
24937.00,0.3332,-0.8815,-0.2086,0.7648832201957703,0.877804696559906,1.4626526832580566
25003.00,0.3332,-0.8815,-0.2086,0.7648832201957703,0.877804696559906,1.4626526832580566
25022.00,0.3332,-0.8815,-0.2086,0.7648832201957703,0.877804696559906,1.4626526832580566
25112.00,0.3332,-0.8815,-0.2086,0.7648832201957703,0.877804696559906,1.4626526832580566
25131.00,0.1432,-2.0018,-0.3836,0.7648832201957703,0.877804696559906,1.4626526832580566
25135.00,0.1432,-2.0018,-0.3836,2.4128975868225098,1.8418984413146973,-0.31213200092315674
25199.00,0.1432,-2.0018,-0.3836,2.4128975868225098,1.8418984413146973,-0.31213200092315674
25215.00,0.1432,-2.0018,-0.3836,2.4128975868225098,1.8418984413146973,-0.31213200092315674
25304.00,0.1432,-2.0018,-0.3836,2.4128975868225098,1.8418984413146973,-0.31213200092315674
25324.00,-0.0855,-0.7784,0.1681,2.4128975868225098,1.8418984413146973,-0.31213200092315674
25324.00,-0.0855,-0.7784,0.1681,-0.20666760206222534,-1.8674654960632324,0.8266704082489014
25394.00,-0.0855,-0.7784,0.1681,-0.20666760206222534,-1.8674654960632324,0.8266704082489014
25415.00,-0.0855,-0.7784,0.1681,-0.20666760206222534,-1.8674654960632324,0.8266704082489014
25501.00,-0.0855,-0.7784,0.1681,-0.20666760206222534,-1.8674654960632324,0.8266704082489014
25521.00,0.1925,-1.0021,0.1446,-0.20666760206222534,-1.8674654960632324,0.8266704082489014
25522.00,0.1925,-1.0021,0.1446,0.3973557651042938,1.7172586917877197,0.3462215065956116
25591.00,0.1925,-1.0021,0.1446,0.3973557651042938,1.7172586917877197,0.3462215065956116
25610.00,0.1925,-1.0021,0.1446,0.3973557651042938,1.7172586917877197,0.3462215065956116
25697.00,0.1925,-1.0021,0.1446,0.3973557651042938,1.7172586917877197,0.3462215065956116
25716.00,0.3498,-1.2274,0.1774,0.3973557651042938,1.7172586917877197,0.3462215065956116
25719.00,0.3498,-1.2274,0.1774,-0.8394539952278137,0.3249155580997467,-0.5539544224739075
25785.00,0.3498,-1.2274,0.1774,-0.8394539952278137,0.3249155580997467,-0.5539544224739075
25805.00,0.3498,-1.2274,0.1774,-0.8394539952278137,0.3249155580997467,-0.5539544224739075
25894.00,0.3498,-1.2274,0.1774,-0.8394539952278137,0.3249155580997467,-0.5539544224739075
25914.00,-0.3186,-1.0842,0.2966,-0.8394539952278137,0.3249155580997467,-0.5539544224739075
25916.00,-0.3186,-1.0842,0.2966,-0.5880439281463623,-1.2155038118362427,0.49855896830558777
25980.00,-0.3186,-1.0842,0.2966,-0.5880439281463623,-1.2155038118362427,0.49855896830558777
25998.00,-0.3186,-1.0842,0.2966,-0.5880439281463623,-1.2155038118362427,0.49855896830558777
26085.00,-0.3186,-1.0842,0.2966,-0.5880439281463623,-1.2155038118362427,0.49855896830558777
26105.00,-0.1134,-0.6635,0.1637,-0.5880439281463623,-1.2155038118362427,0.49855896830558777
26105.00,-0.1134,-0.6635,0.1637,0.18110047280788422,0.3835068941116333,0.18962284922599792
26175.00,-0.1134,-0.6635,0.1637,0.18110047280788422,0.3835068941116333,0.18962284922599792
26192.00,-0.1134,-0.6635,0.1637,0.18110047280788422,0.3835068941116333,0.18962284922599792
26280.00,-0.1134,-0.6635,0.1637,0.18110047280788422,0.3835068941116333,0.18962284922599792
26300.00,1.2802,-1.1883,-0.0200,0.18110047280788422,0.3835068941116333,0.18962284922599792
26301.00,1.2802,-1.1883,-0.0200,0.69563889503479,0.7893850207328796,-1.2847480773925781
26370.00,1.2802,-1.1883,-0.0200,0.69563889503479,0.7893850207328796,-1.2847480773925781
26388.00,1.2802,-1.1883,-0.0200,0.69563889503479,0.7893850207328796,-1.2847480773925781
26476.00,1.2802,-1.1883,-0.0200,0.69563889503479,0.7893850207328796,-1.2847480773925781
26496.00,-0.1309,-0.4314,0.1104,0.69563889503479,0.7893850207328796,-1.2847480773925781
26497.00,-0.1309,-0.4314,0.1104,0.1672516167163849,0.10333380103111267,-0.04154657945036888
26564.00,-0.1309,-0.4314,0.1104,0.1672516167163849,0.10333380103111267,-0.04154657945036888
26583.00,-0.1309,-0.4314,0.1104,0.1672516167163849,0.10333380103111267,-0.04154657945036888
26673.00,-0.1309,-0.4314,0.1104,0.1672516167163849,0.10333380103111267,-0.04154657945036888
26693.00,0.2570,-0.7608,-0.1564,0.1672516167163849,0.10333380103111267,-0.04154657945036888
26694.00,0.2570,-0.7608,-0.1564,0.700965404510498,-2.054957866668701,0.6519617438316345
26761.00,0.2570,-0.7608,-0.1564,0.700965404510498,-2.054957866668701,0.6519617438316345
26780.00,0.2570,-0.7608,-0.1564,0.700965404510498,-2.054957866668701,0.6519617438316345
26867.00,0.2570,-0.7608,-0.1564,0.700965404510498,-2.054957866668701,0.6519617438316345
26888.00,0.1876,-0.9660,0.1021,0.700965404510498,-2.054957866668701,0.6519617438316345
26889.00,0.1876,-0.9660,0.1021,0.6881818175315857,1.2687686681747437,0.23862650990486145
26956.00,0.1876,-0.9660,0.1021,0.6881818175315857,1.2687686681747437,0.23862650990486145
26975.00,0.1876,-0.9660,0.1021,0.6881818175315857,1.2687686681747437,0.23862650990486145
27064.00,0.1876,-0.9660,0.1021,0.6881818175315857,1.2687686681747437,0.23862650990486145
27084.00,0.3733,-1.1380,0.0845,0.6881818175315857,1.2687686681747437,0.23862650990486145
27088.00,0.3733,-1.1380,0.0845,-0.9417225122451782,0.6008274555206299,-1.4349550008773804
27153.00,0.3733,-1.1380,0.0845,-0.9417225122451782,0.6008274555206299,-1.4349550008773804
27173.00,0.3733,-1.1380,0.0845,-0.9417225122451782,0.6008274555206299,-1.4349550008773804
27267.00,0.3733,-1.1380,0.0845,-0.9417225122451782,0.6008274555206299,-1.4349550008773804
27278.00,-0.2751,-0.7876,-0.0728,-0.9417225122451782,0.6008274555206299,-1.4349550008773804
27281.00,-0.2751,-0.7876,-0.0728,0.7094877362251282,-2.2818660736083984,-0.40268224477767944
27348.00,-0.2751,-0.7876,-0.0728,0.7094877362251282,-2.2818660736083984,-0.40268224477767944
27366.00,-0.2751,-0.7876,-0.0728,0.7094877362251282,-2.2818660736083984,-0.40268224477767944
27474.00,-0.0215,-0.8321,-0.1007,0.7094877362251282,-2.2818660736083984,-0.40268224477767944
27475.00,-0.0215,-0.8321,-0.1007,0.4357064366340637,-0.7073571681976318,0.10972558706998825
27544.00,-0.0215,-0.8321,-0.1007,0.4357064366340637,-0.7073571681976318,0.10972558706998825
27561.00,-0.0215,-0.8321,-0.1007,0.4357064366340637,-0.7073571681976318,0.10972558706998825
27669.00,0.3445,-0.8438,-0.0342,0.4357064366340637,-0.7073571681976318,0.10972558706998825
27672.00,0.3445,-0.8438,-0.0342,0.9587672352790833,-1.6352307796478271,1.0557092428207397
27740.00,0.3445,-0.8438,-0.0342,0.9587672352790833,-1.6352307796478271,1.0557092428207397
27757.00,0.3445,-0.8438,-0.0342,0.9587672352790833,-1.6352307796478271,1.0557092428207397
27776.00,0.3445,-0.8438,-0.0342,0.9587672352790833,-1.6352307796478271,1.0557092428207397
27865.00,-0.3445,-0.3801,0.2839,0.9587672352790833,-1.6352307796478271,1.0557092428207397
27866.00,-0.3445,-0.3801,0.2839,1.0226850509643555,-6.247966766357422,1.0631663799285889
27933.00,-0.3445,-0.3801,0.2839,1.0226850509643555,-6.247966766357422,1.0631663799285889
27953.00,-0.3445,-0.3801,0.2839,1.0226850509643555,-6.247966766357422,1.0631663799285889
27973.00,-0.3445,-0.3801,0.2839,1.0226850509643555,-6.247966766357422,1.0631663799285889
28060.00,-0.0073,-0.9342,0.4251,1.0226850509643555,-6.247966766357422,1.0631663799285889
28061.00,-0.0073,-0.9342,0.4251,0.39415985345840454,-0.6977695226669312,0.15766394138336182
28127.00,-0.0073,-0.9342,0.4251,0.39415985345840454,-0.6977695226669312,0.15766394138336182
28147.00,-0.0073,-0.9342,0.4251,0.39415985345840454,-0.6977695226669312,0.15766394138336182
28256.00,-0.0621,-0.9098,0.0958,0.39415985345840454,-0.6977695226669312,0.15766394138336182
28256.00,-0.0621,-0.9098,0.0958,0.8682169914245605,0.8000379800796509,0.6807247400283813
28324.00,-0.0621,-0.9098,0.0958,0.8682169914245605,0.8000379800796509,0.6807247400283813
28404.00,-0.0621,-0.9098,0.0958,0.8682169914245605,0.8000379800796509,0.6807247400283813
28413.00,-0.0621,-0.9098,0.0958,0.8682169914245605,0.8000379800796509,0.6807247400283813
28450.00,-0.1915,-0.7544,0.6318,0.8682169914245605,0.8000379800796509,0.6807247400283813
28450.00,-0.1915,-0.7544,0.6318,-2.0411088466644287,7.038416862487793,0.6626147031784058
28520.00,-0.1915,-0.7544,0.6318,-2.0411088466644287,7.038416862487793,0.6626147031784058
28541.00,-0.1915,-0.7544,0.6318,-2.0411088466644287,7.038416862487793,0.6626147031784058
28607.00,-0.1915,-0.7544,0.6318,-2.0411088466644287,7.038416862487793,0.6626147031784058
28645.00,-0.3308,-0.7539,-0.2194,-2.0411088466644287,7.038416862487793,0.6626147031784058
28646.00,-0.3308,-0.7539,-0.2194,-0.6530269980430603,-2.2062299251556396,0.6423740386962891
28715.00,-0.3308,-0.7539,-0.2194,-0.6530269980430603,-2.2062299251556396,0.6423740386962891
28734.00,-0.3308,-0.7539,-0.2194,-0.6530269980430603,-2.2062299251556396,0.6423740386962891
28802.00,-0.3308,-0.7539,-0.2194,-0.6530269980430603,-2.2062299251556396,0.6423740386962891
28843.00,-0.0518,-0.9469,0.4779,-0.6530269980430603,-2.2062299251556396,0.6423740386962891
28844.00,-0.0518,-0.9469,0.4779,0.03302420675754547,-1.2708992958068848,-0.8927188515663147
28913.00,-0.0518,-0.9469,0.4779,0.03302420675754547,-1.2708992958068848,-0.8927188515663147
28932.00,-0.0518,-0.9469,0.4779,0.03302420675754547,-1.2708992958068848,-0.8927188515663147
28999.00,-0.0518,-0.9469,0.4779,0.03302420675754547,-1.2708992958068848,-0.8927188515663147
29037.00,0.0728,-0.8878,0.1309,0.03302420675754547,-1.2708992958068848,-0.8927188515663147
29038.00,0.0728,-0.8878,0.1309,0.03728539124131203,-0.23010413348674774,0.17044751346111298
29107.00,0.0728,-0.8878,0.1309,0.03728539124131203,-0.23010413348674774,0.17044751346111298
29127.00,0.0728,-0.8878,0.1309,0.03728539124131203,-0.23010413348674774,0.17044751346111298
29233.00,-0.1124,-0.9846,0.3166,0.03728539124131203,-0.23010413348674774,0.17044751346111298
29234.00,-0.1124,-0.9846,0.3166,0.192818745970726,0.00745707843452692,-0.5102772116661072
29302.00,-0.1124,-0.9846,0.3166,0.192818745970726,0.00745707843452692,-0.5102772116661072
29320.00,-0.1124,-0.9846,0.3166,0.192818745970726,0.00745707843452692,-0.5102772116661072
29431.00,0.0635,-1.1390,0.2023,0.192818745970726,0.00745707843452692,-0.5102772116661072
29432.00,0.0635,-1.1390,0.2023,0.2993484437465668,0.9885955452919006,-0.8692823052406311
29498.00,0.0635,-1.1390,0.2023,0.2993484437465668,0.9885955452919006,-0.8692823052406311
29515.00,0.0635,-1.1390,0.2023,0.2993484437465668,0.9885955452919006,-0.8692823052406311
29626.00,0.2702,-0.8922,0.5360,0.2993484437465668,0.9885955452919006,-0.8692823052406311
29628.00,0.2702,-0.8922,0.5360,1.6085983514785767,2.703723669052124,-1.3657106161117554
29693.00,0.2702,-0.8922,0.5360,1.6085983514785767,2.703723669052124,-1.3657106161117554
29714.00,0.2702,-0.8922,0.5360,1.6085983514785767,2.703723669052124,-1.3657106161117554
29741.00,0.2702,-0.8922,0.5360,1.6085983514785767,2.703723669052124,-1.3657106161117554
29819.00,0.1798,-0.3894,0.9376,1.6085983514785767,2.703723669052124,-1.3657106161117554
29821.00,0.1798,-0.3894,0.9376,1.447738528251648,0.43144527077674866,-1.35718834400177
29888.00,0.1798,-0.3894,0.9376,1.447738528251648,0.43144527077674866,-1.35718834400177
29908.00,0.1798,-0.3894,0.9376,1.447738528251648,0.43144527077674866,-1.35718834400177
29935.00,0.1798,-0.3894,0.9376,1.447738528251648,0.43144527077674866,-1.35718834400177
30015.00,0.0880,-0.2985,0.7647,1.447738528251648,0.43144527077674866,-1.35718834400177
30016.00,0.0880,-0.2985,0.7647,1.4061919450759888,0.12357444316148758,-0.7808626294136047
30083.00,0.0880,-0.2985,0.7647,1.4061919450759888,0.12357444316148758,-0.7808626294136047
30102.00,0.0880,-0.2985,0.7647,1.4061919450759888,0.12357444316148758,-0.7808626294136047
30133.00,0.0880,-0.2985,0.7647,1.4061919450759888,0.12357444316148758,-0.7808626294136047
30211.00,0.3660,-0.2634,1.1761,1.4061919450759888,0.12357444316148758,-0.7808626294136047
30213.00,0.3660,-0.2634,1.1761,0.9140247702598572,0.31213200092315674,0.5305178761482239
30280.00,0.3660,-0.2634,1.1761,0.9140247702598572,0.31213200092315674,0.5305178761482239
30297.00,0.3660,-0.2634,1.1761,0.9140247702598572,0.31213200092315674,0.5305178761482239
30404.00,0.3025,0.1094,1.1033,0.9140247702598572,0.31213200092315674,0.5305178761482239
30404.00,0.3025,0.1094,1.1033,0.350482702255249,-0.1054643988609314,0.20347172021865845