@ HyperIMU - ianovir - 2016
@ Date: Thu Nov 03 16:23:56 PDT 2016
@ Sensors: BMI160_accelerometer - BMI160_gyroscope
@ SamplingTime: 100ms

time,accelerometer-x,accelerometer-y,accelerometer-z,gyro-x,gyro-y,gyro-z
1478215436098,0.0,0.0,0.0,0.0,0.0,0.0#
1478215436200,-0.95561284,8.902288,-0.85741705,0.14168017,0.07350325,-0.16085494#
1478215436306,-0.81191164,9.189691,-0.43349856,0.11504856,0.10546118,-0.034088463#
1478215436411,-1.465752,9.22801,-0.26584718,-0.36432046,0.45593318,0.20985709#
1478215436516,0.3305127,9.711804,1.585503,-0.25885928,0.25672874,0.4857606#
1478215436621,0.07185059,9.304651,1.8944606,-0.6295713,0.17150758,0.20133498#
1478215436724,0.37362307,5.767207,2.7782228,-0.22583607,0.8085357,-0.20559604#
1478215436829,1.8920655,9.623189,1.219065,0.3717773,1.3124058,0.041545313#
1478215436936,0.48139894,11.00751,1.089734,0.49321744,1.1867046,-0.32810146#
1478215437043,-0.25147706,5.130132,-1.8800904,0.5496765,0.5454154,-0.0010652645#
1478215437150,-0.019160157,6.2725563,0.28500733,0.5006743,-0.26844665,0.6061355#
1478215437254,1.2430152,7.8580594,-1.6645386,0.9619338,-0.17789917,0.5400891#
1478215437361,-1.9830762,8.749006,-1.3986914,0.55606806,-0.3323625,-0.37816888#
1478215437468,6.6557593,8.392149,-3.4368532,0.8564726,-1.3603427,1.2559468#
1478215437575,-8.073611,14.530584,-8.655601,-1.0333065,0.10546118,0.96086854#
1478215437681,-1.6669337,10.341695,-2.694397,-0.55074173,-0.049002163,0.46339005#
1478215437788,2.3423293,3.9493873,0.34967285,-0.6317018,1.4689997,-0.37390783#
1478215437895,2.7710378,7.220984,2.201023,0.27803403,1.2900352,-0.52624065#
1478215438000,-2.6345215,18.39854,5.8007374,0.00958738,1.0908308,-0.98856544#
1478215438108,-4.998406,5.695357,-2.8428884,-0.78083885,0.09161274,-0.9076053#
1478215438214,-2.3303542,10.075848,-4.6104126,1.0301107,-0.6221144,0.30679616#
1478215438321,0.11256592,9.283096,-4.6846585,1.2676647,-1.0439591,-0.08841695#
1478215438428,-0.7711963,9.6615095,-1.4178516,0.49215218,-1.3166668,-0.330232#
1478215438536,7.9562554,6.8186207,0.05508545,1.2644689,-0.09374327,0.3568636#
1478215438644,-5.254673,16.525635,-5.127737,-1.4455639,-0.624245,1.9004318#
1478215438753,4.6918435,7.8820095,-2.1411476,-1.4572818,0.008522116,0.86392945#
1478215438861,-0.8646021,2.2800586,0.37601808,0.1587244,2.2817965,-0.4314321#
1478215438967,3.2045362,8.669971,2.320774,0.5432849,1.1259845,-0.46552056#
1478215439075,2.6129665,6.0689797,-4.373306,0.20240025,0.7275756,-0.4495416#
1478215439183,-7.6233473,1.7699195,-2.4022048,-1.7427727,-0.25992453,0.24927188#
1478215439291,4.605623,15.205979,-0.4622388,1.5222629,0.06391586,-0.406931#
1478215439399,0.7113208,3.906277,-0.3281177,0.3089267,-1.8407769,-0.10759171#
1478215439507,1.6813037,9.347761,1.0035132,0.31851408,-2.2487733,-0.29614353#
1478215439616,-3.1087356,10.691368,-10.9644,2.0804615,1.1249193,0.97471696#
1478215439723,4.1242237,11.304493,-2.320774,-1.2751216,-0.58056915,1.0705907#
1478215439831,2.8213332,4.167334,-0.68737066,-0.737163,1.6170714,-0.31851408#
1478215439940,2.9099488,4.1098537,0.70174074,0.572047,1.3997575,-0.18216023#
1478215440047,-3.6404297,20.858227,4.471502,-0.21731395,0.96086854,-0.608266#
1478215440152,1.5926881,11.441009,6.368357,-2.1805964,-0.6711166,-1.470065#
1478215440258,-4.018843,19.98165,-3.4823585,0.7946873,-0.56459016,-0.2876214#
1478215440364,3.6212697,6.231841,-3.1566358,1.6426378,-0.67005134,0.22050974#
1478215440469,-1.719624,10.253079,-1.1208692,0.035153728,-1.7129452,-0.72011876#
1478215440575,8.720266,7.6257424,-2.0285816,0.89162636,-1.1771172,0.46019423#
1478215440684,-6.583909,17.955462,-10.768008,-0.5965481,0.45167214,0.8841695#
1478215440790,-0.8214917,12.099639,-1.8154249,-0.700944,0.5230448,-0.03089267#
1478215440895,2.7590625,2.0261867,1.6238233,-1.0162623,1.0492855,-0.22050974#
1478215441003,4.148174,6.198311,2.2537134,0.6945524,1.3102753,-0.13741912#
1478215441109,-3.8104763,18.963766,7.7359133,-0.06391586,-0.084155895,-0.8309063#
1478215441214,-2.5914114,7.6353226,-0.44547364,-0.49641323,-0.36645097,-0.6562029#
1478215441319,-2.9794044,12.631333,-3.9326222,1.1419635,-0.27164245,-0.5858955#
1478215441426,2.3830445,11.335628,-3.2021413,0.96299905,-1.4253238,-0.0010652645#
1478215441534,-0.098195806,9.917776,-1.1735597,0.33981937,-1.0183928,-0.49215218#
1478215441639,10.820699,5.336104,0.08861572,0.6359629,-1.3954965,0.7414241#
1478215441744,-5.134922,16.741188,-7.2832546,-1.4114754,-0.15978967,1.9579561#
1478215441848,-1.1735597,10.487791,-2.5267458,-0.6870956,0.567786,0.22370553#
1478215441954,2.4764502,1.6884888,1.4346168,-0.49534798,1.4945661,-0.6199839#
1478215442059,3.051255,8.042476,0.6706055,0.5422196,1.6777915,-0.21624869#
1478215442165,-1.9591261,15.526913,6.4330225,0.23755397,-0.5368933,-0.72970617#
1478215442271,-3.9709425,1.8657203,-3.6548,0.13741912,0.3685815,-0.42077947#
1478215442377,-1.9758912,8.499925,-3.2811768,0.59122175,-0.8873653,0.25353295#
1478215442483,0.92208254,1.9663111,-0.5029541,1.103614,-1.1984226,0.30999196#
1478215442588,1.7938697,9.812395,0.5364844,-0.15978967,-1.8375812,-0.34088463#
1478215442693,0.24668702,11.51765,-0.7065308,2.1965754,0.6135923,0.5049353#
1478215442798,0.17962648,14.64315,-7.220984,-1.4391723,-0.43569317,2.1742048#
1478215442904,3.4871485,6.595884,-2.320774,-1.4881744,0.39627838,0.30040458#
1478215443011,0.85023195,2.8668385,2.3064039,-0.20772657,1.1792477,-0.070307456#
1478215443118,4.711004,10.820699,-2.1674929,0.45806372,2.171009,-0.38456047#
1478215443223,1.1280543,10.30098,-8.734636,-0.57311225,0.47191215,-0.6295713#
1478215443332,-1.0011182,2.4644752,-1.9064356,-0.664725,-0.8948221,0.81918836#
1478215443437,-2.4213648,2.3902297,-1.101709,-0.30679616,-1.9430424,0.92997587#
1478215443543,0.9029224,3.4488282,0.48139894,0.10652645,-1.3677995,-0.57098174#
1478215443648,3.3458424,10.600357,1.7124391,0.35260254,-1.9185413,-0.09161274#
1478215443754,-3.647615,11.167976,-11.328443,2.2370553,0.8873653,0.9715212#
1478215443859,3.283572,12.152329,-2.9841945,-1.3592775,0.39521313,0.4527374#
1478215443966,4.967271,4.1218286,0.45744875,-1.0077401,1.010936,-0.15233281#
1478215444071,2.2321582,5.022356,3.0296998,0.39414784,1.2676647,-0.06178534#
1478215444176,0.3784131,13.5869465,0.9627979,0.11930962,2.223207,-0.6018744#
1478215444283,1.8465601,22.573061,-4.505032,-1.8098843,-0.6103965,-1.2090752#
1478215444389,2.0333717,10.130933,0.6179151,0.8788432,0.11824436,-0.09054748#
1478215444495,1.1136842,3.915857,-1.4441968,0.95660746,-1.4359765,0.33662358#
1478215444602,1.5519727,6.696475,-0.2778223,0.39627838,-1.3603427,-0.73290193#
1478215444708,4.9337406,9.541759,-0.26105714,0.38775626,-1.7726,0.25033715#
1478215444815,-3.8727467,13.603711,-12.509188,0.24714136,1.2175972,1.2293152#
1478215444922,2.4022048,10.432706,-1.0394385,-1.0652645,0.19707392,0.024501082#
1478215445027,1.2813355,4.0356083,-0.07424561,-0.7669904,1.4349113,-0.31851408#
1478215445132,4.0811133,6.1552005,1.6262183,0.19387813,0.52411014,-0.04474111#
1478215445238,-1.1879297,17.627344,7.2904396,-0.20559604,1.0578076,-0.3834952#
1478215445345,2.059717,22.426964,-3.2692018,-0.5954828,0.3920173,-1.7555559#
1478215445450,2.668052,5.836663,0.3784131,0.7819041,-0.5390238,0.1555286#
1478215445555,3.4799635,6.8952613,-0.5340894,1.0428939,-1.5084145,0.17150758#
1478215445660,0.18681154,5.1852174,0.5724097,0.58056915,-1.2900352,-0.958738#
1478215445765,0.18681154,5.1852174,0.5724097,0.58056915,-1.2900352,-0.958738#
1478215445872,-3.6308498,11.896063,-10.37283,0.10759171,0.829841,1.3933659#
1478215445978,-0.97956306,12.372671,-1.6238233,-0.83729786,0.41438788,-0.002130529#
1478215446084,2.1818628,3.9014869,0.016765138,-0.67963874,1.7555559,-0.37923414#
1478215446190,5.3480787,5.886958,1.0274634,0.5091964,0.9960223,-0.47404268#
1478215446297,-2.6153615,17.536333,8.217313,-0.084155895,0.56459016,-0.64768076#
1478215446403,0.24908204,14.983243,0.89573735,0.18748654,0.12144015,-0.65194184#
1478215446509,2.919529,13.079203,-1.2813355,1.5787219,0.037284255,-0.27803403#
1478215446615,1.5687379,7.3838453,-2.7973828,1.4253238,-0.69668293,0.099069595#
1478215446721,-0.019160157,8.837623,-0.09580079,-0.00958738,-1.8535602,-0.5592638#
1478215446827,10.904525,5.9468336,1.1663746,0.8905611,-0.6487461,0.5230448#
1478215446934,-3.8176613,13.745018,-8.840017,-1.2740563,-0.7392935,1.7395768#
1478215447040,-0.9053174,12.3415365,-2.0166066,-1.0855045,0.28016454,-0.10333065#
1478215447147,-0.035925295,4.157754,-2.8452833,-1.196292,1.2026836,-0.2695119#
1478215447253,5.8342676,6.3228517,2.1028273,0.60933125,1.5925703,-0.5411543#
1478215447359,0.56522465,13.728252,9.977652,0.2514024,-0.49002165,-0.5113269#
1478215447465,-1.4825171,11.53681,-3.1973512,0.58269966,0.6508766,-0.9757822#
1478215447572,3.0249097,18.089582,-2.7710378,1.768339,0.058589544,-0.314253#
1478215447677,3.271597,8.938213,-2.3878345,1.2953615,-0.6785734,-0.17789917#
1478215447782,-0.119750984,10.483001,-1.219065,0.07350325,-1.6948358,-0.48682585#
1478215447888,12.16191,5.7791824,2.9626393,0.9598033,-0.71798825,0.4133226#
1478215447995,-4.8499146,16.65257,-6.444998,-1.9813919,-0.30253512,1.603223#
1478215448100,2.3614893,8.54064,-1.2837305,-1.010936,0.3334278,0.25033715#
1478215448208,0.23710695,4.169729,0.48139894,-0.3057309,1.8716697,-0.26844665#
1478215448314,4.3158255,8.119117,1.219065,0.55287224,1.3837786,-0.38562572#
1478215448428,3.1374757,8.150251,-4.4188113,0.34088463,0.014913702,-0.45380265#
1478215448534,-4.9481106,2.2800586,-3.396138,-0.4612595,0.08841695,-0.4101268#
1478215448640,-1.829795,5.242698,-2.1603076,-0.29614353,-1.6309199,0.7850999#
1478215448746,2.2800586,9.455538,-1.839375,0.47830373,-1.0567423,-0.20133498#
1478215448851,1.465752,9.941727,0.58677983,-0.036218993,-1.4721955,-0.17896444#
1478215448958,1.465752,9.941727,0.58677983,0.06178534,-1.5861788,-0.05539375#
1478215449065,5.384004,11.314073,-3.3673975,-1.180313,0.37603834,1.257012#
1478215449171,2.411785,5.357659,-1.2909156,-1.1845741,1.2548815,0.10439592#
1478215449279,1.7723145,3.4584084,3.551814,-0.09054748,0.4111921,-0.040480047#
1478215449385,2.5818312,13.376184,-2.7231374,0.42717105,1.6905746,-0.26205507#
1478215449493,0.23710695,22.156326,-2.1555176,-1.4082797,-0.018109497,-0.9853696#
1478215449601,3.3506324,9.405242,1.094524,0.06498113,-0.28442562,0.027696876#
1478215449707,0.61552006,0.33290774,1.0466236,0.4708469,-1.6767262,0.5251754#
1478215449814,0.6945557,5.4127445,0.6322852,0.71585774,-0.77444726,-0.7797736#
1478215449920,5.9324636,7.4916215,-1.9926564,0.21092236,-1.5520903,0.535828#
1478215450025,-0.55803955,14.650335,-9.843531,-1.0737866,0.9864349,1.5765914#
1478215450132,0.19639161,10.710527,-0.122146,-0.87777793,0.16192019,0.07137272#
1478215450239,-0.019160157,3.9374123,0.48379397,-0.30253512,1.216532,-0.30679616#
1478215450345,3.6068995,7.6353226,1.5615528,0.43888897,0.99921805,-0.28868666#
1478215450450,4.481082,12.387041,0.7664063,0.6679208,0.05219796,-0.5550028#
1478215450556,-2.5339308,6.2869267,-1.2837305,0.6711166,0.5784386,-0.8085357#
1478215450662,-0.60833496,10.003997,-4.4523416,0.94595486,-0.5795039,0.33449304#
1478215450769,2.066902,10.499766,-4.1888895,0.74035877,-1.196292,-0.22903186#
1478215450876,0.60354495,9.946517,0.45026368,-0.101200126,-1.5190672,-0.19068234#
1478215450983,0.5221143,12.23855,-1.5567628,1.7353158,0.4261058,0.50173956#
1478215451090,0.9268726,15.146104,-4.119434,-1.1707256,0.40906155,1.1653993#
1478215451195,5.3241286,4.636758,-1.0130934,-0.8852348,1.2612731,0.27377295#
1478215451302,0.6849756,4.718189,2.1746778,0.16298546,0.7680557,-0.08735169#
1478215451406,4.416416,9.74773,-4.1625443,0.40906155,1.8578212,-0.28975195#
1478215451512,2.0525317,16.092136,-10.106983,-1.5222629,0.6785734,-0.67963874#
1478215451618,-0.30895755,5.4534597,-1.5591577,-0.721184,-0.6135923,0.87564737#
1478215451726,0.4406836,3.173401,0.8669971,0.049002163,-2.0431771,0.49641323#
1478215451832,0.7831714,6.974297,1.6477735,-0.29827404,-0.66579026,-0.35260254#
1478215451935,4.0499783,4.485872,-2.6297317,-0.083090626,-1.3464943,-0.04580637#
1478215452039,1.4489869,12.090059,-0.18920656,-0.080960095,-0.24074976,0.79042625#
1478215452152,1.092129,13.871954,-3.1494508,0.037284255,-0.04580637,0.67963874#
1478215452257,-1.4226416,10.219549,0.7831714,0.1107875,0.7414241,-0.14168017#
