timeInMs,loggingSample,accelerometerTimestamp_sinceReboot,accelerometerAccelerationX,accelerometerAccelerationY,accelerometerAccelerationZ,gyroTimestamp_sinceReboot,gyroRotationX,gyroRotationY,gyroRotationZ,gyroRotationZ0,1,140785.144,-0.018722534,1.00402832,-0.038024902,140785.138,-0.007861119,0.027611122,0.048302285,0.04830228510.00000001,2,140785.154,-0.02041626,1.013046265,-0.041244507,140785.148,-0.020772923,0.036117791,0.0557365,0.055736519.99999999,3,140785.164,-0.009765625,1.010879517,-0.026031494,140785.158,-0.026164492,0.046761913,0.057826282,0.05782628230,4,140785.174,-0.004623413,1.009902954,-0.029907227,140785.168,-0.025143436,0.069122879,0.056689112,0.05668911240.00000001,5,140785.184,-0.002212524,1.006744385,-0.02255249,140785.178,-0.033800574,0.072296301,0.070620907,0.07062090749.99999999,6,140785.194,-0.003250122,1.007965088,-0.012542725,140785.188,-0.032739571,0.062705726,0.076036711,0.07603671160,7,140785.204,-0.004669189,1.006988525,-0.019638062,140785.198,-0.027409254,0.065896725,0.078210117,0.07821011770.10000001,8,140785.2141,-0.003936768,0.997467041,-0.018386841,140785.208,-0.025288579,0.060565077,0.083619263,0.08361926380.09999999,9,140785.2241,-0.001052856,1.002838135,-0.013504028,140785.2181,-0.018874622,0.058432417,0.085814773,0.08581477390,10,140785.234,0.008224487,1.003585815,-0.015396118,140785.2281,-0.014582671,0.0648272,0.081515366,0.081515366100.1,11,140785.2441,0.0131073,1.004074097,-0.017074585,140785.2381,-0.002711897,0.049935336,0.071941835,0.071941835110.1,12,140785.2541,0.00340271,1.004302979,-0.025924683,140785.2481,0.00163598,0.028643895,0.069877885,0.069877885120.1,13,140785.2641,-0.004150391,1.008682251,-0.02671814,140785.2581,-0.001569667,0.015860722,0.074202592,0.074202592130.1,14,140785.2741,0.003860474,1.008209229,-0.02154541,140785.2681,0.000596282,0.024389762,0.066655993,0.066655993140.1,15,140785.2841,0.01902771,1.003341675,-0.027786255,140785.2781,0.004948153,0.03612578,0.050502589,0.050502589150.1,16,140785.2941,0.02394104,0.997253418,-0.033599854,140785.2881,0.003992345,0.016976587,0.039792154,0.039792154160.1,17,140785.3041,0.020736694,1.000915527,-0.028747559,140785.2981,-0.000158458,-0.019214707,0.03341921,0.03341921170.1,18,140785.3141,0.01512146,1.002609253,-0.02633667,140785.3081,-0.003204315,-0.05326695,0.020588898,0.020588898180.1,19,140785.3241,0.012237549,1.00163269,-0.034164429,140785.3181,0.006569752,-0.072409752,0.005634983,0.005634983190.1,20,140785.3341,0.005432129,1.002105713,-0.039581299,140785.3281,0.016307867,-0.079842102,-0.008277904,-0.008277904200.1,21,140785.3441,-0.000183105,1.00038147,-0.036682129,140785.3381,0.01421915,-0.08196038,-0.015817046,-0.015817046210.1,22,140785.3541,-0.005584717,0.999649048,-0.031097412,140785.3481,0.007825166,-0.085149782,-0.019072761,-0.019072761220.1,23,140785.3641,-0.000671387,1.000869751,-0.035705566,140785.3581,0.016390425,-0.080887659,-0.021188909,-0.021188909230.2,24,140785.3742,0.002761841,1.002090454,-0.041061401,140785.3681,0.013195431,-0.065968631,-0.029861493,-0.029861493240.2,25,140785.3842,0.00567627,1.002593994,-0.038848877,140785.3782,0.006822752,-0.077675887,-0.033091641,-0.033091641250.2,26,140785.3942,0.00541687,1.004058838,-0.037399292,140785.3882,0.001512409,-0.086188948,-0.036325251,-0.036325251260.2,27,140785.4042,0.001495361,1.005767822,-0.033996582,140785.3982,0.000479369,-0.095768338,-0.038454981,-0.038454981270.2,28,140785.4142,-0.008499146,1.003067017,-0.032104492,140785.4082,-0.003792608,-0.102158327,-0.037384124,-0.037384124280.2,29,140785.4242,-0.015853882,1.005004883,-0.027755737,140785.4182,-0.011331484,-0.107496367,-0.027725371,-0.027725371290.2,30,140785.4342,-0.014404297,1.003311157,-0.023590088,140785.4282,-0.012497682,-0.095800296,-0.017004816,-0.017004816300.2,31,140785.4442,-0.004394531,1.003799438,-0.025970459,140785.4382,-0.010451576,-0.071319454,-0.011685152,-0.011685152310.2,32,140785.4542,0.001449585,1.009185791,-0.026199341,140785.4482,-0.011587148,-0.058550662,-0.00634871,-0.00634871320.2,33,140785.4642,-0.001464844,1.0050354,-0.024978638,140785.4582,-0.012678777,-0.060686517,-0.00204371,-0.00204371330.2,34,140785.4742,-0.013717651,0.998916626,-0.016494751,140785.4682,-0.010536797,-0.07453602,0.003391003,0.003391003340.2,35,140785.4842,-0.019577026,0.989883423,-0.014312744,140785.4782,-0.006347378,-0.072427329,0.017399497,0.017399497350.2,36,140785.4942,-0.01272583,0.997451782,-0.018432617,140785.4882,-0.00538358,-0.056472331,0.028119519,0.028119519360.2,37,140785.5042,-0.00151062,1.002105713,-0.0181427,140785.4982,-0.00328421,-0.042632415,0.029166408,0.029166408370.2,38,140785.5142,0.010421753,1.004074097,-0.017333984,140785.5082,-0.001140898,-0.054350857,0.033518545,0.033518545380.2,39,140785.5242,0.011169434,1.00553894,-0.019042969,140785.5182,-0.001123588,-0.079915605,0.041128528,0.041128528390.2,40,140785.5342,0.007766724,1.002120972,-0.020278931,140785.5282,0.002147307,-0.101208644,0.040134637,0.040134637400.3,41,140785.5443,-0.000762939,0.994293213,-0.019821167,140785.5382,0.01183349,-0.106522715,0.033748643,0.033748643410.3,42,140785.5543,-0.002487183,0.9894104,-0.016647339,140785.5483,0.017227723,-0.123558424,0.033830402,0.033830402420.3,43,140785.5643,-0.004425049,0.99331665,-0.019592285,140785.5583,0.022584671,-0.141668452,0.040372457,0.040372457430.3,44,140785.5743,-0.006088257,0.968902588,-0.023696899,140785.5683,0.022552713,-0.15019909,0.04900749,0.04900749440.3,45,140785.5843,-0.010025024,0.964996338,-0.018081665,140785.5783,0.026772758,-0.162998242,0.064136909,0.064136909450.3,46,140785.5943,-0.012466431,0.978668213,-0.020095825,140785.5883,0.030946198,-0.159828015,0.080294573,0.080294573460.3,47,140785.6043,0.006362915,0.969161987,-0.027282715,140785.5983,0.031920649,-0.153458799,0.093195724,0.093195724470.3,48,140785.6143,0.017440796,0.985031128,-0.047286987,140785.6083,0.047971521,-0.138544564,0.087861945,0.087861945480.3,49,140785.6243,0.014053345,0.999664307,-0.052719116,140785.6183,0.064110277,-0.142785914,0.07612859,0.07612859490.3,50,140785.6343,0.021575928,0.95916748,-0.043273926,140785.6283,0.076094236,-0.14167005,0.041754904,0.041754904500.3,51,140785.6443,0.017791748,0.898620605,-0.05607605,140785.6383,0.093480416,-0.15013038,0.003135872,0.003135872510.3,52,140785.6543,-0.001174927,0.879058838,-0.062240601,140785.6483,0.098979844,-0.190579003,-0.004245345,-0.004245345520.3,53,140785.6643,-0.016616821,0.909072876,-0.054367065,140785.6583,0.089195124,-0.225772677,0.034547591,0.034547591530.3,54,140785.6743,-0.001831055,0.961334229,-0.042694092,140785.6683,0.093393864,-0.230053975,0.049651443,0.049651443540.3,55,140785.6843,0.009902954,0.95451355,-0.047485352,140785.6783,0.098995823,-0.228928523,0.008783904,0.008783904550.3,56,140785.6943,0.008270264,0.951080322,-0.060180664,140785.6883,0.089460108,-0.259800952,0.005592905,0.005592905560.4,57,140785.7044,0.010177612,0.982086182,-0.056838989,140785.6983,0.073561037,-0.330078044,0.008940498,0.008940498570.4,58,140785.7144,0.01348877,1.0128479,-0.041519165,140785.7084,0.062984292,-0.351355104,-0.002894856,-0.002894856580.4,59,140785.7244,0.03036499,1.04800415,-0.051773071,140785.7184,0.063205335,-0.338517602,-0.043828175,-0.043828175590.4,60,140785.7344,0.048171997,1.053649902,-0.053878784,140785.7284,0.056041964,-0.350157746,-0.092264151,-0.092264151600.4,61,140785.7444,0.056686401,1.07611084,-0.051193237,140785.7384,0.034868502,-0.344774965,-0.132221421,-0.132221421610.4,62,140785.7544,0.041702271,1.057556152,-0.031707764,140785.7484,0.023470439,-0.35107707,-0.190383527,-0.190383527620.4,63,140785.7644,0.014144897,1.045074463,-0.032562256,140785.7584,0.020637634,-0.37442447,-0.241988399,-0.241988399630.4,64,140785.7744,0.000701904,1.057022095,-0.029998779,140785.7684,0.008946623,-0.354162608,-0.263640165,-0.263640165640.4,65,140785.7844,-0.018386841,1.091415405,-0.021179199,140785.7784,0.000463923,-0.290221176,-0.302623517,-0.302623517650.4,66,140785.7944,-0.059997559,1.014953613,-0.032699585,140785.7884,0.014195714,-0.241257894,-0.293005244,-0.293005244660.4,67,140785.8044,-0.095535278,0.958511353,-0.04057312,140785.7984,0.015872973,-0.269068752,-0.206815231,-0.206815231670.4,68,140785.8144,-0.08895874,0.96194458,-0.039810181,140785.8084,0.00773089,-0.259636368,-0.105725631,-0.105725631680.4,69,140785.8244,-0.059249878,0.996398926,-0.03288269,140785.8184,0.010459831,-0.194764427,-0.054245396,-0.054245396690.4,70,140785.8344,-0.029220581,1.042327881,-0.040145874,140785.8284,0.006885337,-0.14797535,-0.014585601,-0.014585601700.4,71,140785.8444,-0.017547607,1.042098999,-0.033493042,140785.8384,-0.006083725,-0.151201504,0.006874151,0.006874151710.4,72,140785.8544,-0.009811401,1.060668945,-0.022018433,140785.8484,-0.005179848,-0.167222015,0.040289899,0.040289899720.4,73,140785.8644,0.000335693,1.093154907,-0.011291504,140785.8584,-0.002036786,-0.169369056,0.052152684,0.052152684730.5,74,140785.8745,0.003051758,1.100723267,-0.017410278,140785.8684,0.00222587,-0.156589078,0.049986468,0.049986468740.5,75,140785.8845,0.000137329,1.099731445,-0.020111084,140785.8785,0.010815097,-0.167236396,0.050067428,0.050067428750.5,76,140785.8945,-0.009613037,1.098007202,-0.02015686,140785.8885,0.017218402,-0.170436983,0.054418501,0.054418501760.5,77,140785.9045,-0.008392334,1.099716187,-0.018936157,140785.8985,0.022526082,-0.176839755,0.064153953,0.064153953770.4,78,140785.9144,0.00718689,1.117080688,-0.01864624,140785.9085,0.034226414,-0.182184187,0.078227694,0.078227694780.5,79,140785.9245,0.032333374,1.146636963,-0.023696899,140785.9185,0.043895286,-0.199221494,0.079410137,0.079410137790.5,80,140785.9345,0.042602539,1.182769775,-0.032531738,140785.9284,0.055860603,-0.233267345,0.062360846,0.062360846800.5,81,140785.9445,0.046554565,1.208389282,-0.043075562,140785.9385,0.061402641,-0.253463694,0.039852342,0.039852342810.5,82,140785.9545,0.039321899,1.221542358,-0.060501099,140785.9485,0.057261159,-0.269410702,0.023733026,0.023733026820.5,83,140785.9645,0.009857178,1.212463379,-0.070419312,140785.9585,0.039077628,-0.282192278,0.026895796,0.026895796830.5,84,140785.9745,-0.027191162,1.170196533,-0.068084717,140785.9685,0.001625594,-0.261947992,0.016935041,0.016935041840.5,85,140785.9845,-0.082275391,1.082260132,-0.070373535,140785.9785,-0.048915345,-0.186363219,0.023953536,0.023953536850.5,86,140785.9945,-0.134918213,0.971374512,-0.068191528,140785.9885,-0.109420767,-0.092746715,0.077138461,0.077138461860.5,87,140786.0045,-0.181243896,0.875152588,-0.062835693,140785.9985,-0.166053687,0.044451887,0.178645112,0.178645112870.5,88,140786.0145,-0.197128296,0.841217041,-0.05355835,140786.0085,-0.215435351,0.222076742,0.302673052,0.302673052880.5,89,140786.0245,-0.164749146,0.822235107,-0.039398193,140786.0185,-0.24990571,0.452952569,0.416941304,0.416941304890.5,90,140786.0345,-0.084228516,0.809906006,-0.038619995,140786.0285,-0.267920397,0.70736275,0.456974475,0.456974475900.5,91,140786.0445,0.061080933,0.763748169,-0.016616821,140786.0385,-0.271264529,0.883117001,0.406924357,0.406924357910.5,92,140786.0545,0.226791382,0.710983276,-0.058197021,140786.0485,-0.212316523,0.881262375,0.222157969,0.222157969920.6,93,140786.0646,0.435516357,0.775680542,-0.086166382,140786.0585,-0.12104946,0.53027319,-0.027029753,-0.027029753930.6,94,140786.0746,0.262786865,0.919143677,-0.149154663,140786.0686,-0.035607529,-0.279490767,-0.358825271,-0.358825271940.5,95,140786.0845,-0.041809082,1.097198486,-0.065292358,140786.0786,-0.117062708,-0.925132095,-0.078622641,-0.078622641950.6,96,140786.0946,-0.179321289,1.050201416,0.007980347,140786.0886,-0.156705991,-0.980541292,-0.049626143,-0.049626143960.6,97,140786.1046,-0.178924561,0.960372925,-0.009094238,140786.0986,-0.156469236,-0.476820884,-0.120007365,-0.120007365970.6,98,140786.1146,-0.090255737,0.96585083,-0.025909424,140786.1086,-0.160897274,-0.118082965,-0.06944592,-0.06944592980.6,99,140786.1246,0.012451172,1.005783081,-0.03125,140786.1186,-0.179911712,0.036199283,-6.15E-05,-6.15E-05990.6,100,140786.1346,0.06060791,1.006317139,-0.04536438,140786.1286,-0.191621365,0.074567978,-0.026072347,-0.0260723471000.6,101,140786.1446,0.048919678,0.99458313,-0.050048828,140786.1386,-0.195464572,0.003293265,-0.067853882,-0.0678538821010.6,102,140786.1546,0.017379761,0.998214722,-0.038040161,140786.1486,-0.209003284,-0.077584807,-0.095671399,-0.0956713991020.6,103,140786.1646,-0.001754761,1.004547119,-0.018630981,140786.1586,-0.221707362,-0.104185525,-0.107503025,-0.1075030251030.6,104,140786.1746,0.000595093,1.006271362,-0.005187988,140786.1686,-0.232425254,-0.085012363,-0.113002719,-0.1130027191040.6,105,140786.1846,0.01133728,1.007019043,-0.005371094,140786.1786,-0.234525955,-0.069022211,-0.125977107,-0.1259771071050.6,106,140786.1946,0.026031494,1.005325317,-0.015777588,140786.1886,-0.237582465,-0.093488672,-0.140988547,-0.1409885471060.6,107,140786.2046,0.018539429,1.002365112,-0.026809692,140786.1986,-0.245913366,-0.143505501,-0.158106281,-0.1581062811070.6,108,140786.2146,0.001220703,0.999176025,-0.027389526,140786.2086,-0.256383583,-0.191391268,-0.176318841,-0.1763188411080.7,109,140786.2247,-0.014633179,0.997940063,-0.026016235,140786.2186,-0.26910364,-0.195623031,-0.194674679,-0.1946746791090.7,110,140786.2347,-0.027633667,1.001586914,-0.014389038,140786.2287,-0.282019438,-0.156221562,-0.19917116,-0.199171161100.6,111,140786.2446,-0.033355713,1.010375977,0.002380371,140786.2387,-0.297047923,-0.114682641,-0.2090672,-0.20906721110.7,112,140786.2547,-0.029541016,1.010391235,0.018768311,140786.2487,-0.294956542,-0.08699482,-0.212366591,-0.2123665911120.7,113,140786.2647,-0.013946533,1.003341675,0.023773193,140786.2587,-0.293928828,-0.075285966,-0.210243252,-0.2102432521130.7,114,140786.2747,-0.000534058,1.002868652,0.023849487,140786.2687,-0.282103328,-0.088057954,-0.213366075,-0.2133660751140.7,115,140786.2847,-0.000747681,1.002380371,0.020431519,140786.2787,-0.278776507,-0.115729796,-0.220797892,-0.2207978921150.7,116,140786.2947,-0.010986328,1.006515503,0.0184021,140786.2887,-0.285029343,-0.170023128,-0.226052575,-0.2260525751160.7,117,140786.3047,-0.027099609,1.003326416,0.019287109,140786.2987,-0.286014446,-0.198767691,-0.228124781,-0.2281247811170.7,118,140786.3147,-0.048828125,0.999145508,0.022598267,140786.3087,-0.288192379,-0.189188301,-0.226013427,-0.2260134271180.7,119,140786.3247,-0.067642212,1.004486084,0.027832031,140786.3187,-0.293605254,-0.164699469,-0.226117557,-0.2261175571190.7,120,140786.3347,-0.073242188,0.999359131,0.025863647,140786.3287,-0.28839478,-0.118922393,-0.221919616,-0.2219196161200.7,121,140786.3447,-0.056793213,0.99911499,0.00617981,140786.3387,-0.285384875,-0.057179134,-0.214553312,-0.2145533121210.7,122,140786.3547,-0.030654907,1.002563477,0.000228882,140786.3487,-0.313395737,0.013091567,-0.213847308,-0.2138473081220.7,123,140786.3647,-0.020309448,0.996261597,0.027420044,140786.3587,-0.330454349,-0.024180437,-0.209528726,-0.2095287261230.7,124,140786.3747,-0.023254395,0.99772644,0.031784058,140786.3687,-0.333446943,-0.111488445,-0.209285047,-0.2092850471240.7,125,140786.3847,-0.030014038,1.006729126,0.017318726,140786.3787,-0.323582328,-0.156178419,-0.228466997,-0.2284669971250.8,126,140786.3948,-0.047805786,0.996704102,0.015762329,140786.3887,-0.341671317,-0.172133417,-0.239285024,-0.2392850241260.8,127,140786.4048,-0.053192139,0.983032227,0.0206604,140786.3988,-0.361035694,-0.175353179,-0.222166757,-0.2221667571270.7,128,140786.4147,-0.034484863,0.997955322,0.031967163,140786.4088,-0.380514587,-0.122135763,-0.209522601,-0.2095226011280.8,129,140786.4248,-0.043304443,1.009689331,0.078765869,140786.4188,-0.393375791,-0.117878434,-0.208532704,-0.2085327041290.8,130,140786.4348,-0.06703186,0.997467041,0.092330933,140786.4288,-0.389039898,-0.147695718,-0.20519017,-0.205190171300.8,131,140786.4448,-0.086975098,0.996459961,0.081466675,140786.4388,-0.362257819,-0.15195145,-0.207176622,-0.2071766221310.8,132,140786.4548,-0.097900391,0.99520874,0.071380615,140786.4488,-0.351657106,-0.124276412,-0.201817543,-0.2018175431320.8,133,140786.4648,-0.090957642,1.004272461,0.094116211,140786.4588,-0.355069148,-0.099821137,-0.179309571,-0.1793095711330.8,134,140786.4748,-0.073760986,1.010650635,0.114227295,140786.4688,-0.349809405,-0.071078172,-0.176136681,-0.1761366811340.8,135,140786.4848,-0.069595337,0.998947144,0.113555908,140786.4788,-0.339159424,-0.044456681,-0.17830769,-0.178307691350.8,136,140786.4948,-0.058319092,0.991134644,0.103622437,140786.4888,-0.339120808,-0.073212429,-0.172840486,-0.1728404861360.8,137,140786.5048,-0.036773682,0.999938965,0.090301514,140786.4988,-0.345560065,-0.0689551,-0.171813838,-0.1718138381370.8,138,140786.5148,-0.021591187,1.001419067,0.07989502,140786.5088,-0.358340043,-0.051893824,-0.189157408,-0.1891574081380.8,139,140786.5248,-0.018707275,0.998260498,0.088226318,140786.5188,-0.374228462,-0.073161296,-0.207480489,-0.2074804891390.8,140,140786.5348,-0.043655396,0.99432373,0.099319458,140786.5288,-0.385745035,-0.11997594,-0.230007103,-0.2300071031400.8,141,140786.5448,-0.060409546,0.985015869,0.087997437,140786.5388,-0.388720319,-0.163599584,-0.250341936,-0.2503419361410.9,142,140786.5549,-0.079727173,0.993545532,0.092254639,140786.5488,-0.388640424,-0.163580409,-0.263256137,-0.2632561371420.9,143,140786.5649,-0.103744507,0.99937439,0.110900879,140786.5589,-0.401473665,-0.125224498,-0.280663623,-0.2806636231430.9,144,140786.5749,-0.133163452,0.979598999,0.139099121,140786.5689,-0.404783175,-0.101809985,-0.274295206,-0.2742952061440.9,145,140786.5849,-0.124359131,0.974716187,0.135269165,140786.5789,-0.400593756,-0.089047585,-0.264623404,-0.2646234041450.9,146,140786.5949,-0.094268799,0.98890686,0.120025635,140786.5889,-0.399699201,-0.018775286,-0.264828201,-0.2648282011460.9,147,140786.6049,-0.089187622,0.992095947,0.127120972,140786.5989,-0.409462615,0.028069718,-0.262871576,-0.2628715761470.9,148,140786.6149,-0.093811035,0.999649048,0.124389648,140786.6089,-0.401859823,0.018507904,-0.276790322,-0.2767903221480.9,149,140786.6249,-0.096481323,1.01184082,0.118972778,140786.6189,-0.392081761,0.000431432,-0.292823617,-0.2928236171490.9,150,140786.6349,-0.10899353,1.009887695,0.133300781,140786.6289,-0.392061787,-0.036851758,-0.280873746,-0.2808737461500.9,151,140786.6449,-0.111236572,0.999389648,0.142105103,140786.6389,-0.376994687,-0.053877879,-0.28719396,-0.287193961510.9,152,140786.6549,-0.12097168,0.985473633,0.138916016,140786.6489,-0.363012559,-0.041077129,-0.303295432,-0.3032954321520.9,153,140786.6649,-0.147415161,0.987640381,0.153396606,140786.6589,-0.354439311,-0.061316621,-0.29672861,-0.296728611530.9,154,140786.6749,-0.174041748,0.992736816,0.159088135,140786.6689,-0.34061564,-0.073057433,-0.277242526,-0.2772425261540.9,155,140786.6849,-0.162399292,0.984695435,0.171630859,140786.6789,-0.32690116,-0.06245166,-0.249214087,-0.2492140871550.9,156,140786.6949,-0.132949829,0.97328186,0.188201904,140786.6889,-0.329358725,-0.015651398,-0.217081451,-0.2170814511560.9,157,140786.7049,-0.082931519,0.977493286,0.186782837,140786.6989,-0.324092324,0.00776631,-0.212816399,-0.2128163991570.9,158,140786.7149,-0.058761597,0.990707397,0.182006836,140786.7089,-0.315425865,-0.007123956,-0.223484489,-0.2234844891581,159,140786.725,-0.073883057,0.985565186,0.183395386,140786.7189,-0.308814834,-0.072066204,-0.227557528,-0.2275575281591,160,140786.735,-0.098770142,0.976501465,0.184249878,140786.729,-0.298944892,-0.188134754,-0.218544592,-0.2185445921601,161,140786.745,-0.119522095,0.981842041,0.183868408,140786.739,-0.302101271,-0.239259458,-0.206571552,-0.2065715521611,162,140786.755,-0.155639648,0.993026733,0.184356689,140786.749,-0.318322585,-0.228645695,-0.184095538,-0.1840955381621,163,140786.765,-0.181152344,0.999801636,0.166107178,140786.759,-0.3314541,-0.12430837,-0.180177495,-0.1801774951631,164,140786.775,-0.162384033,1.00227356,0.168411255,140786.769,-0.33589785,-0.032725456,-0.191238668,-0.1912386681641,165,140786.785,-0.150054932,0.99156189,0.18951416,140786.779,-0.341426573,0.030088927,-0.188229296,-0.1882292961651,166,140786.795,-0.160354614,0.972518921,0.200744629,140786.789,-0.332938546,0.027940288,-0.175259702,-0.1752597021661,167,140786.805,-0.163330078,0.981307983,0.208999634,140786.799,-0.317924709,0.000247674,-0.168633757,-0.1686337571671,168,140786.815,-0.142242432,0.983795166,0.233535767,140786.809,-0.299895641,0.005534581,-0.143793388,-0.1437933881681,169,140786.825,-0.151290894,0.97354126,0.237182617,140786.819,-0.283983253,0.011892612,-0.123273199,-0.1232731991691,170,140786.835,-0.173294067,0.974243164,0.243881226,140786.829,-0.276652104,0.05233804,-0.113666112,-0.1136661121701,171,140786.845,-0.175994873,0.983276367,0.24798584,140786.839,-0.260780995,0.093843405,-0.100784668,-0.1007846681711,172,140786.855,-0.178009033,0.98815918,0.256759644,140786.849,-0.250395998,0.159820025,-0.076169337,-0.0761693371721,173,140786.865,-0.158004761,0.981109619,0.259338379,140786.859,-0.236690839,0.22475748,-0.068751368,-0.0687513681731,174,140786.875,-0.132095337,0.988952637,0.24848938,140786.869,-0.229366347,0.291835584,-0.068909826,-0.0689098261741.1,175,140786.8851,-0.128921509,0.993591309,0.247512817,140786.879,-0.226276547,0.348271163,-0.072289377,-0.0722893771751.1,176,140786.8951,-0.132247925,0.98991394,0.234313965,140786.8891,-0.218772292,0.362123862,-0.079821329,-0.0798213291761.1,177,140786.9051,-0.124847412,0.992599487,0.218475342,140786.8991,-0.213314143,0.362149428,-0.097009637,-0.0970096371771.1,178,140786.9151,-0.126617432,0.987228394,0.229721069,140786.9091,-0.20997667,0.356852933,-0.1152704,-0.11527041781.1,179,140786.9251,-0.134689331,0.967712402,0.237045288,140786.9191,-0.202307299,0.336653389,-0.135614288,-0.1356142881791.1,180,140786.9351,-0.131820679,0.966247559,0.246109009,140786.9291,-0.190368614,0.291947437,-0.144022154,-0.1440221541801.1,181,140786.9451,-0.11680603,0.968734741,0.266220093,140786.9391,-0.180693083,0.280238583,-0.146084239,-0.1460842391811.1,182,140786.9551,-0.10395813,0.945083618,0.283935547,140786.9491,-0.169884644,0.262152523,-0.155654309,-0.1556543091821.1,183,140786.9651,-0.103607178,0.938995361,0.307891846,140786.9591,-0.154717675,0.207862386,-0.162938853,-0.1629388531831.1,184,140786.9751,-0.125305176,0.934814453,0.30557251,140786.9691,-0.141672713,0.172753401,-0.181055007,-0.1810550071841.1,185,140786.9851,-0.170730591,0.953277588,0.268127441,140786.9791,-0.140539804,0.177029905,-0.192899682,-0.1928996821851.1,186,140786.9951,-0.180587769,0.984970093,0.237945557,140786.9891,-0.127713222,0.213248363,-0.204772853,-0.2047728531861.1,187,140787.0051,-0.163879395,0.98425293,0.218017578,140786.9991,-0.131030721,0.282471909,-0.215760789,-0.2157607891871.1,188,140787.0151,-0.151062012,0.98059082,0.195404053,140787.0091,-0.144899665,0.322966872,-0.239637893,-0.2396378931881.1,189,140787.0251,-0.150726318,1.00668335,0.176773071,140787.0192,-0.152138936,0.312373882,-0.276239047,-0.2762390471891.1,190,140787.0351,-0.161468506,1.012039185,0.176940918,140787.0291,-0.162530591,0.289010503,-0.317124962,-0.3171249621901.2,191,140787.0452,-0.173751831,0.997146606,0.193267822,140787.0391,-0.180547675,0.281595729,-0.343035122,-0.3430351221911.2,192,140787.0552,-0.172653198,0.990585327,0.217224121,140787.0491,-0.191117761,0.286954542,-0.366788389,-0.3667883891921.2,193,140787.0652,-0.148025513,0.991867065,0.2605896,140787.0592,-0.183445726,0.30297825,-0.402307501,-0.4023075011931.2,194,140787.0752,-0.12322998,0.966781616,0.281326294,140787.0692,-0.166124793,0.339247841,-0.448594039,-0.4485940391941.2,195,140787.0852,-0.149169922,0.948684692,0.294891357,140787.0792,-0.161509269,0.304170813,-0.488282863,-0.4882828631951.2,196,140787.0952,-0.193466187,0.96862793,0.274047852,140787.0892,-0.16451651,0.241362822,-0.49564597,-0.495645971961.2,197,140787.1052,-0.213867188,0.982498169,0.25630188,140787.0992,-0.167710173,0.247759203,-0.501064438,-0.5010644381971.2,198,140787.1152,-0.212310791,0.981262207,0.239471436,140787.1092,-0.182838526,0.31590843,-0.505659456,-0.5056594561981.2,199,140787.1252,-0.183944702,0.988861084,0.227905273,140787.1192,-0.185005806,0.385151151,-0.529555468,-0.5295554681991.2,200,140787.1352,-0.157348633,0.98475647,0.227828979,140787.1292,-0.194436326,0.394788065,-0.566229593,-0.5662295932001.2,201,140787.1452,-0.160339355,0.971572876,0.241271973,140787.1392,-0.209058678,0.324560507,-0.59623756,-0.596237562011.2,202,140787.1552,-0.184768677,0.954467773,0.248504639,140787.1492,-0.222590732,0.243684033,-0.62513126,-0.625131262021.2,203,140787.1652,-0.223358154,0.941726685,0.255874634,140787.1592,-0.241542319,0.176641084,-0.648716214,-0.6487162142031.2,204,140787.1752,-0.263717651,0.959259033,0.271209717,140787.1692,-0.243519184,0.129804069,-0.656121134,-0.6561211342041.2,205,140787.1852,-0.297348022,0.977752686,0.263626099,140787.1792,-0.225322337,0.169223115,-0.672277999,-0.6722779992051.2,206,140787.1952,-0.309112549,0.989425659,0.227874756,140787.1893,-0.217948576,0.261881946,-0.690808274,-0.6908082742061.2,207,140787.2052,-0.295303345,1.009918213,0.19859314,140787.1992,-0.238583015,0.338517069,-0.673935817,-0.6739358172071.3,208,140787.2153,-0.264190674,1.023864746,0.176040649,140787.2092,-0.24617116,0.382174269,-0.676262088,-0.6762620882081.3,209,140787.2253,-0.242889404,1.02192688,0.162979126,140787.2193,-0.251296413,0.382228598,-0.71288295,-0.712882952091.3,210,140787.2353,-0.24319458,1.012176514,0.174728394,140787.2293,-0.268079388,0.333303665,-0.748348,-0.7483482101.3,211,140787.2453,-0.257171631,1.008743286,0.188568115,140787.2393,-0.279497425,0.273728219,-0.781598099,-0.7815980992111.3,212,140787.2553,-0.274383545,1.012161255,0.209701538,140787.2493,-0.290982041,0.246097923,-0.817096438,-0.8170964382121.3,213,140787.2653,-0.282531738,1.008010864,0.227493286,140787.2593,-0.295110207,0.267442094,-0.850546541,-0.8505465412131.3,214,140787.2753,-0.273239136,1.014404297,0.265625,140787.2693,-0.2928364,0.278127761,-0.876394649,-0.8763946492141.3,215,140787.2853,-0.268615723,1.010742188,0.268844604,140787.2793,-0.279786111,0.283504151,-0.911851177,-0.9118511772151.3,216,140787.2953,-0.280609131,1.010238647,0.275115967,140787.2893,-0.283819735,0.285694334,-0.952777039,-0.9527770392161.3,217,140787.3053,-0.293960571,1.032180786,0.262771606,140787.2993,-0.27084801,0.298509466,-0.978570287,-0.9785702872171.3,218,140787.3153,-0.309646606,1.0362854,0.230911255,140787.3093,-0.257837669,0.319856832,-1.014074751,-1.0140747512181.3,219,140787.3253,-0.312911987,1.039672852,0.203292847,140787.3193,-0.250213572,0.328411438,-1.038809659,-1.0388096592191.3,220,140787.3353,-0.305969238,1.059448242,0.181304932,140787.3293,-0.239366517,0.334838179,-1.064595983,-1.0645959832201.4,221,140787.3454,-0.293136597,1.072128296,0.155700684,140787.3393,-0.218740068,0.314665799,-1.103161485,-1.1031614852211.3,222,140787.3553,-0.284103394,1.109481812,0.150527954,140787.3494,-0.19910538,0.265747258,-1.142723009,-1.1427230092221.3,223,140787.3653,-0.262878418,1.172470093,0.142181396,140787.3594,-0.166600167,0.227488818,-1.190852455,-1.1908524552231.4,224,140787.3754,-0.24017334,1.233276367,0.134094238,140787.3693,-0.131954306,0.215864653,-1.24981138,-1.249811382241.4,225,140787.3854,-0.210388184,1.267471313,0.127349854,140787.3794,-0.106944027,0.205305219,-1.308828627,-1.3088286272251.4,226,140787.3954,-0.182861328,1.265319824,0.133865356,140787.3894,-0.093695333,0.197944774,-1.37115139,-1.371151392261.4,227,140787.4054,-0.179489136,1.264846802,0.143173218,140787.3994,-0.115789983,0.218278542,-1.441292662,-1.4412926622271.4,228,140787.4154,-0.171859741,1.321456909,0.124740601,140787.4094,-0.117619042,0.274817984,-1.51465476,-1.514654762281.4,229,140787.4254,-0.140563965,1.387390137,0.106674194,140787.4194,-0.130458941,0.398401975,-1.565679595,-1.5656795952291.4,230,140787.4354,-0.108261108,1.435012817,0.084762573,140787.4294,-0.153431102,0.660364348,-1.592422793,-1.5924227932301.4,231,140787.4454,-0.056091309,1.459213257,0.047409058,140787.4394,-0.181993238,1.01495679,-1.618398467,-1.6183984672311.4,232,140787.4554,0.030044556,1.467590332,-0.000915527,140787.4494,-0.235302,1.413198443,-1.6414175,-1.64141752321.4,233,140787.4654,0.120025635,1.472579956,-0.035049438,140787.4594,-0.318329509,1.700701596,-1.659970944,-1.6599709442331.4,234,140787.4754,0.137237549,1.486251831,-0.059158325,140787.4694,-0.402355171,1.659279321,-1.729205942,-1.7292059422341.4,235,140787.4854,0.063842773,1.486175537,-0.024932861,140787.4794,-0.478995887,1.116555321,-1.922818552,-1.9228185522351.4,236,140787.4954,-0.05770874,1.467773438,0.072525024,140787.4894,-0.507471737,0.289634215,-2.173422277,-2.1734222772361.4,237,140787.5054,-0.129196167,1.460754395,0.287002563,140787.4994,-0.458706062,-0.340407381,-2.359599075,-2.3595990752371.4,238,140787.5154,-0.058776855,1.468399048,0.260070801,140787.5094,-0.526503752,-0.600189158,-2.367820786,-2.3678207862381.4,239,140787.5254,0.053024292,1.4324646,0.296737671,140787.5195,-0.461380408,-0.871898701,-2.229956926,-2.2299569262391.4,240,140787.5354,0.0546875,1.275512695,0.278869629,140787.5295,-0.537104464,-1.085973709,-2.18670213,-2.186702132401.5,241,140787.5455,-0.089126587,1.026901245,0.327514648,140787.5394,-0.555082666,-1.363726497,-2.281758605,-2.2817586052411.5,242,140787.5555,-0.244537354,0.835662842,0.430877686,140787.5495,-0.556558856,-1.664001639,-2.266879258,-2.2668792582421.5,243,140787.5655,-0.333908081,0.842163086,0.485015869,140787.5595,-0.537260259,-1.686880323,-1.916930037,-1.9169300372431.5,244,140787.5755,-0.38961792,0.931427002,0.488342285,140787.5695,-0.473775293,-1.252090513,-1.456168547,-1.4561685472441.5,245,140787.5855,-0.279067993,0.949356079,0.43963623,140787.5795,-0.398572683,-0.544579159,-1.097319042,-1.0973190422451.5,246,140787.5955,-0.038970947,0.87512207,0.277694702,140787.5895,-0.237965161,0.139440984,-0.692709505,-0.6927095052461.5,247,140787.6055,0.103515625,0.744903564,0.161453247,140787.5995,-0.037980406,0.551994464,-0.313969116,-0.3139691162471.5,248,140787.6155,0.140975952,0.619491577,0.1534729,140787.6095,0.103814547,0.683709618,-0.103688845,-0.1036888452481.5,249,140787.6255,0.133972168,0.540161133,0.149017334,140787.6195,0.266491611,0.645096446,0.087847831,0.0878478312491.5,250,140787.6355,0.103042603,0.500823975,0.143310547,140787.6295,0.436374657,0.478570048,0.377743568,0.3777435682501.5,251,140787.6455,0.07774353,0.487350464,0.131240845,140787.6395,0.606876622,0.31939291,0.737574981,0.7375749812511.5,252,140787.6555,0.029510498,0.475311279,0.118759155,140787.6495,0.767704387,0.216670525,1.081039138,1.0810391382521.5,253,140787.6655,-0.042297363,0.470108032,0.135681152,140787.6595,0.890353342,0.145993958,1.354234991,1.3542349912531.6,254,140787.6756,-0.075942993,0.47668457,0.174041748,140787.6695,1.020502557,0.120064889,1.607968197,1.6079681972541.5,255,140787.6855,-0.074203491,0.495742798,0.208190918,140787.6796,1.170722952,0.12283724,1.892940814,1.8929408142551.5,256,140787.6955,-0.047866821,0.508712769,0.208557129,140787.6896,1.303553171,0.186272139,2.195928385,2.1959283852561.6,257,140787.7056,-0.028625488,0.531936646,0.212265015,140787.6996,1.400057607,0.188996553,2.512880241,2.5128802412571.6,258,140787.7156,-0.044815063,0.570236206,0.22354126,140787.7096,1.489617051,0.055484831,2.796836597,2.7968365972581.6,259,140787.7256,-0.102035522,0.615081787,0.24017334,140787.7196,1.555234145,-0.169486768,3.008822622,3.0088226222591.6,260,140787.7356,-0.125564575,0.674362183,0.253295898,140787.7296,1.625136531,-0.398718891,3.221922114,3.2219221142601.6,261,140787.7456,-0.123153687,0.751739502,0.248458862,140787.7396,1.687183124,-0.559854518,3.465983518,3.4659835182611.6,262,140787.7556,-0.144165039,0.840057373,0.242233276,140787.7496,1.71848592,-0.732638279,3.666855106,3.6668551062621.6,263,140787.7656,-0.201446533,0.922973633,0.266799927,140787.7596,1.728938827,-0.957491633,3.798885045,3.7988850452631.6,264,140787.7756,-0.25958252,0.993942261,0.311920166,140787.7696,1.747290138,-1.230189209,3.884825786,3.8848257862641.6,265,140787.7856,-0.282730103,1.066665649,0.342102051,140787.7796,1.804923873,-1.401753242,3.981451396,3.9814513962651.6,266,140787.7956,-0.27130127,1.126480103,0.342987061,140787.7896,1.848512896,-1.505164852,4.071335746,4.0713357462661.6,267,140787.8056,-0.264099121,1.168731689,0.357559204,140787.7996,1.864381341,-1.59043927,4.136254292,4.1362542922671.6,268,140787.8156,-0.266082764,1.20463562,0.401412964,140787.8096,1.854880248,-1.736363454,4.174303407,4.1743034072681.6,269,140787.8256,-0.25932312,1.240814209,0.453369141,140787.8196,1.857197997,-1.889734368,4.208137537,4.2081375372691.6,270,140787.8356,-0.256576538,1.271591187,0.483581543,140787.8296,1.856034462,-2.00162069,4.268733241,4.2687332412701.7,271,140787.8457,-0.278030396,1.310638428,0.517776489,140787.8396,1.866514001,-2.040027734,4.320566345,4.3205663452711.6,272,140787.8556,-0.282455444,1.334793091,0.519882202,140787.8497,1.847937653,-1.978327618,4.356867095,4.3568670952721.6,273,140787.8656,-0.332992554,1.365722656,0.52192688,140787.8597,1.808095964,-1.957077723,4.386709679,4.3867096792731.7,274,140787.8757,-0.417236328,1.415649414,0.528610229,140787.8697,1.7731734,-2.001727749,4.340365882,4.3403658822741.7,275,140787.8857,-0.530441284,1.497970581,0.518417358,140787.8797,1.761666147,-1.969702704,4.284241094,4.2842410942751.7,276,140787.8957,-0.678070068,1.589782715,0.510177612,140787.8897,1.739555519,-1.863077724,4.181555461,4.1815554612761.7,277,140787.9057,-0.840148926,1.630813599,0.516891479,140787.8997,1.699586264,-1.659423132,3.984846926,3.9848469262771.7,278,140787.9157,-1.039047241,1.59664917,0.569747925,140787.9097,1.614105718,-1.455645502,3.705008883,3.7050088832781.7,279,140787.9257,-1.215286255,1.521774292,0.635314941,140787.9197,1.511415025,-1.35816848,3.309158483,3.3091584832791.7,280,140787.9357,-1.325073242,1.398162842,0.690170288,140787.9297,1.395857802,-1.211689826,2.896944822,2.8969448222801.7,281,140787.9457,-1.356506348,1.233657837,0.744155884,140787.9397,1.179544939,-1.111056958,2.526263957,2.5262639572811.7,282,140787.9557,-1.336929321,1.090011597,0.836242676,140787.9497,0.908414102,-1.106106142,2.058695694,2.0586956942821.7,283,140787.9657,-1.269638062,1.006607056,0.810745239,140787.9597,0.582897786,-0.965804957,1.503238322,1.5032383222831.7,284,140787.9757,-1.221038818,0.985412598,0.761291504,140787.9697,0.265659107,-0.855402548,1.006033337,1.0060333372841.7,285,140787.9857,-1.18989563,1.000320435,0.734573364,140787.9797,-0.008835836,-0.68002913,0.493811851,0.4938118512851.7,286,140787.9957,-1.191741943,0.998596191,0.714294434,140787.9897,-0.269124945,-0.522697029,-0.058094462,-0.0580944622861.7,287,140788.0057,-1.165267944,1.016418457,0.691207886,140787.9997,-0.508862174,-0.552818446,-0.568426967,-0.5684269672871.7,288,140788.0157,-1.156600952,1.107177734,0.614822388,140788.0097,-0.683731722,-0.581975799,-1.010589473,-1.0105894732881.7,289,140788.0257,-1.080154419,1.200393677,0.464614868,140788.0197,-0.836740713,-0.672815691,-1.500872369,-1.5008723692891.7,290,140788.0357,-0.784439087,1.291152954,0.196075439,140788.0298,-0.874618055,-0.796793297,-1.902147629,-1.9021476292901.7,291,140788.0457,-0.166610718,1.300201416,-0.236801147,140788.0398,-0.783505987,-0.688093181,-1.967600139,-1.9676001392911.8,292,140788.0558,0.64074707,1.30758667,-0.665618896,140788.0497,-0.553197947,-0.262670241,-1.651145228,-1.6511452282921.8,293,140788.0658,1.254745483,1.330368042,-0.685150146,140788.0598,-0.366951907,0.342500626,-1.206333411,-1.2063334112931.8,294,140788.0758,0.980010986,1.40461731,-0.439163208,140788.0698,-0.631791026,0.260097628,-0.925634101,-0.9256341012941.8,295,140788.0858,0.057189941,1.326538086,-0.038452148,140788.0798,-0.812638573,-1.18325206,-1.209707369,-1.2097073692951.8,296,140788.0958,-0.914611816,0.99206543,0.296234131,140788.0898,-0.940525166,-1.922524806,-1.690375988,-1.6903759882961.8,297,140788.1058,-1.134796143,0.968994141,0.531097412,140788.0998,-1.066521182,-1.726424004,-1.81975262,-1.819752622971.8,298,140788.1158,-0.587219238,1.195388794,0.366760254,140788.1098,-0.976112189,-0.717873181,-1.273377426,-1.2733774262981.8,299,140788.1258,-0.132019043,1.167755127,0.128829956,140788.1198,-0.880450111,0.26615046,-0.7010697,-0.70106972991.8,300,140788.1358,0.04486084,1.008575439,0.062454224,140788.1298,-0.753383771,0.560120302,-0.771174753,-0.7711747533001.8,301,140788.1458,0.056137085,0.972991943,0.099487305,140788.1398,-0.643739032,0.327174134,-0.924826631,-0.9248266313011.8,302,140788.1558,0.045623779,0.98399353,0.145065308,140788.1498,-0.645649318,-0.087199884,-0.793377527,-0.7933775273021.8,303,140788.1658,-0.011993408,1.012710571,0.15196228,140788.1598,-0.598863969,-0.309936557,-0.652536252,-0.6525362523031.8,304,140788.1758,-0.062469482,1.015823364,0.145782471,140788.1698,-0.512487269,-0.20347616,-0.643750218,-0.6437502183041.9,305,140788.1859,-0.025817871,1.005615234,0.138214111,140788.1798,-0.501388811,-0.037440317,-0.602210231,-0.6022102313051.8,306,140788.1958,0.043624878,1.039886475,0.146606445,140788.1898,-0.490274375,0.00501633,-0.512947463,-0.5129474633061.8,307,140788.2058,0.077209473,1.037216187,0.120681763,140788.1999,-0.449727214,0.017770741,-0.497686485,-0.4976864853071.9,308,140788.2159,0.063598633,1.006164551,0.071365356,140788.2099,-0.421721679,-0.034389932,-0.504903917,-0.5049039173081.9,309,140788.2259,0.037628174,0.997085571,0.048034668,140788.2198,-0.42146202,-0.183479549,-0.486161389,-0.4861613893091.9,310,140788.2359,0.018295288,1.009994507,0.056182861,140788.2299,-0.43200947,-0.317678899,-0.45676302,-0.456763023101.9,311,140788.2459,0.01008606,1.012451172,0.084701538,140788.2399,-0.449042782,-0.373056138,-0.449161559,-0.4491615593111.9,312,140788.2559,-0.022705078,1.020233154,0.104248047,140788.2499,-0.444852032,-0.320874692,-0.455750752,-0.4557507523121.9,313,140788.2659,-0.068847656,1.025787354,0.108352661,140788.2599,-0.418297652,-0.220778718,-0.463431309,-0.4634313093131.9,314,140788.2759,-0.097366333,1.024276733,0.102081299,140788.2699,-0.3918498,-0.104727745,-0.460397968,-0.4603979683141.9,315,140788.2859,-0.088745117,1.018661499,0.088226318,140788.2799,-0.370861427,0.01982031,-0.443430436,-0.4434304363151.9,316,140788.2959,-0.05821228,1.004547119,0.084060669,140788.2899,-0.362635721,0.119884327,-0.429691455,-0.4296914553161.9,317,140788.3059,-0.010375977,0.983383179,0.083435059,140788.2999,-0.37249501,0.199732821,-0.425681533,-0.4256815333171.9,318,140788.3159,0.021331787,0.985626221,0.082641602,140788.3099,-0.381088232,0.225294373,-0.431188151,-0.4311881513181.9,319,140788.3259,0.031326294,0.997344971,0.0831604,140788.3199,-0.380933769,0.206154767,-0.448349561,-0.4483495613191.9,320,140788.3359,0.028381348,1.001251221,0.08605957,140788.3299,-0.37638216,0.14868961,-0.468599972,-0.4685999723201.9,321,140788.3459,0.016616821,1.002700806,0.096237183,140788.3399,-0.369647292,0.074188744,-0.488786999,-0.4887869993212,322,140788.356,-0.030776978,1.010223389,0.108383179,140788.3499,-0.351335929,0.046516902,-0.496133063,-0.4961330633221.9,323,140788.3659,-0.079162598,1.017730713,0.120040894,140788.36,-0.337393748,0.075288629,-0.512282471,-0.5122824713231.9,324,140788.3759,-0.089569092,1.01965332,0.104095459,140788.37,-0.323663288,0.175389398,-0.523265082,-0.5232650823242,325,140788.386,-0.065139771,1.007965088,0.101837158,140788.38,-0.327101962,0.285067959,-0.531145908,-0.5311459083252,326,140788.396,-0.04309082,1.008010864,0.126876831,140788.39,-0.334686112,0.351098908,-0.543224941,-0.5432249413262,327,140788.406,-0.022827148,1.022689819,0.123535156,140788.4,-0.315256488,0.346876732,-0.567854121,-0.5678541213272,328,140788.416,-0.014266968,1.025863647,0.119430542,140788.41,-0.297685217,0.256427259,-0.602998527,-0.6029985273282,329,140788.426,-0.038040161,1.010726929,0.139846802,140788.42,-0.299431718,0.178749774,-0.635062986,-0.6350629863292,330,140788.436,-0.075759888,1.011413574,0.166229248,140788.43,-0.286257593,0.121298998,-0.664950045,-0.6649500453302,331,140788.446,-0.109176636,1.014541626,0.163818359,140788.44,-0.260469938,0.126649821,-0.683114135,-0.6831141353312,332,140788.456,-0.099349976,1.016998291,0.152633667,140788.45,-0.250884955,0.204410397,-0.706968336,-0.7069683363322,333,140788.466,-0.093948364,1.029678345,0.143356323,140788.46,-0.243413989,0.266196799,-0.728634483,-0.7286344833332,334,140788.476,-0.102325439,1.033554077,0.115203857,140788.47,-0.234816772,0.300296979,-0.748059047,-0.7480590473342,335,140788.486,-0.104034424,1.030136108,0.114715576,140788.48,-0.242171891,0.285414702,-0.764199934,-0.7641999343352,336,140788.496,-0.087783813,1.046279907,0.130645752,140788.49,-0.239790226,0.260969014,-0.793171132,-0.7931711323362,337,140788.506,-0.071029663,1.042648315,0.146148682,140788.5,-0.233083321,0.269560372,-0.842664383,-0.8426643833372.1,338,140788.5161,-0.068206787,1.030960083,0.166946411,140788.51,-0.232713141,0.249407167,-0.894260466,-0.8942604663382.1,339,140788.5261,-0.097320557,1.033615112,0.179702759,140788.52,-0.224873328,0.198352771,-0.929578243,-0.9295782433392,340,140788.536,-0.150344849,1.032577515,0.193069458,140788.5301,-0.218158433,0.123847111,-0.94653672,-0.946536723402.1,341,140788.5461,-0.199874878,1.029083252,0.194244385,140788.5401,-0.213827867,0.106813,-0.94753727,-0.947537273412.1,342,140788.5561,-0.222793579,1.030273438,0.190185547,140788.5501,-0.218279607,0.164302126,-0.94342961,-0.943429613422.1,343,140788.5661,-0.223052979,1.034912109,0.192855835,140788.5601,-0.218557907,0.230288333,-0.925332631,-0.9253326313432.1,344,140788.5761,-0.220794678,1.038818359,0.181625366,140788.5701,-0.205936388,0.263261463,-0.902758346,-0.9027583463442.1,345,140788.5861,-0.21546936,1.044677734,0.188491821,140788.5801,-0.196383363,0.273895998,-0.89412571,-0.894125713452.1,346,140788.5961,-0.214920044,1.03515625,0.178985596,140788.5901,-0.181405479,0.279221255,-0.895132118,-0.8951321183462.1,347,140788.6061,-0.207061768,1.020523071,0.17175293,140788.6001,-0.177058933,0.271779318,-0.90261853,-0.902618533472.1,348,140788.6161,-0.195785522,1.02394104,0.161560059,140788.6101,-0.170511818,0.269678616,-0.921946688,-0.9219466883482.1,349,140788.6261,-0.181777954,1.040298462,0.142791748,140788.6201,-0.148804392,0.234593599,-0.95615659,-0.956156593492.1,350,140788.6361,-0.163223267,1.027145386,0.140258789,140788.6301,-0.125735026,0.160159845,-1.021451441,-1.0214514413502.1,351,140788.6461,-0.15020752,1.020599365,0.170394897,140788.6401,-0.119724271,0.085742069,-1.097606131,-1.0976061313512.1,352,140788.6561,-0.163330078,1.030853271,0.203735352,140788.6501,-0.116969764,0.040078444,-1.178170216,-1.1781702163522.1,353,140788.6661,-0.1847229,1.045730591,0.230178833,140788.6601,-0.119684057,0.046589873,-1.261073888,-1.2610738883532.1,354,140788.6761,-0.206329346,1.064758301,0.252456665,140788.6701,-0.116093584,0.062661517,-1.328903003,-1.3289030033542.2,355,140788.6862,-0.23815918,1.078643799,0.270065308,140788.6801,-0.127624805,0.104269148,-1.385056553,-1.3850565533552.2,356,140788.6962,-0.241592407,1.120117188,0.267242432,140788.6902,-0.127471673,0.173555012,-1.437997266,-1.4379972663562.1,357,140788.7061,-0.212768555,1.209716797,0.252761841,140788.7002,-0.112333999,0.253494586,-1.495188917,-1.4951889173572.2,358,140788.7162,-0.152679443,1.32913208,0.226913452,140788.7102,-0.090617252,0.307902967,-1.567333685,-1.5673336853582.2,359,140788.7262,-0.095733643,1.418060303,0.242156982,140788.7202,-0.0621177,0.26864531,-1.659607955,-1.6596079553592.2,360,140788.7362,-0.049316406,1.347351074,0.241653442,140788.7302,-0.082466914,0.181538637,-1.795067514,-1.7950675143602.2,361,140788.7462,-0.079666138,1.287521362,0.265319824,140788.7402,-0.190739858,0.125290011,-1.918207822,-1.9182078223612.2,362,140788.7562,-0.104095459,1.340942383,0.26210022,140788.7502,-0.313274563,0.189344895,-2.034255599,-2.0342555993622.2,363,140788.7662,-0.075119019,1.414901733,0.223480225,140788.7602,-0.435025234,0.402483003,-2.164735046,-2.1647350463632.2,364,140788.7762,0.019454956,1.531204224,0.222518921,140788.7702,-0.509782828,0.640100355,-2.288561384,-2.2885613843642.2,365,140788.7862,0.15007019,1.584365845,0.246124268,140788.7802,-0.58977753,0.805299966,-2.4014392,-2.40143923652.2,366,140788.7962,0.224212646,1.548599243,0.255950928,140788.7902,-0.746733059,0.900209701,-2.502709097,-2.5027090973662.2,367,140788.8062,0.211807251,1.533691406,0.250778198,140788.8002,-0.926550229,1.018465239,-2.551444944,-2.5514449443672.2,368,140788.8162,0.167770386,1.574157715,0.267990112,140788.8102,-1.051165928,1.228233383,-2.563546881,-2.5635468813682.2,369,140788.8262,0.124206543,1.616760254,0.19972229,140788.8202,-1.14072191,1.510384115,-2.562749797,-2.5627497973692.2,370,140788.8362,-0.012161255,1.663665771,0.193389893,140788.8302,-1.248148502,1.769174664,-2.605033871,-2.6050338713702.3,371,140788.8463,-0.035095215,1.62336731,0.198730469,140788.8402,-1.075245964,2.194140073,-2.697868471,-2.6978684713712.3,372,140788.8563,0.02923584,1.459091187,0.056716919,140788.8502,-0.9473623,2.285628711,-2.64467529,-2.644675293722.3,373,140788.8663,-0.052017212,1.324981689,0.031936646,140788.8603,-0.963076016,1.486939243,-2.54767231,-2.547672313732.3,374,140788.8763,-0.146759033,1.22845459,0.054580688,140788.8703,-0.957264465,0.625678273,-2.617172825,-2.6171728253742.3,375,140788.8863,-0.168014526,1.097595215,0.032836914,140788.8803,-0.881011505,0.112488729,-2.622736968,-2.6227369683752.3,376,140788.8963,-0.118621826,0.950942993,-0.014312744,140788.8903,-0.747795128,-0.207517241,-2.226047139,-2.2260471393762.3,377,140788.9063,0.075592041,0.800628662,0.002639771,140788.9003,-0.692079135,-0.500185329,-1.597419682,-1.5974196823772.3,378,140788.9163,0.308303833,0.645782471,0.072860718,140788.9103,-0.746943449,-0.564944884,-1.007773446,-1.0077734463782.3,379,140788.9263,0.438674927,0.510299683,0.11920166,140788.9203,-0.78298241,-0.505970247,-0.570135651,-0.5701356513792.3,380,140788.9363,0.425796509,0.448516846,0.116607666,140788.9303,-0.755118554,-0.593835921,-0.194114083,-0.1941140833802.3,381,140788.9463,0.332260132,0.447402954,0.08770752,140788.9403,-0.703509156,-0.832936654,0.211552995,0.2115529953812.3,382,140788.9563,0.204101563,0.45866394,0.053939819,140788.9503,-0.664851508,-1.052886596,0.626774696,0.6267746963822.3,383,140788.9663,0.067703247,0.468215942,0.010101318,140788.9603,-0.601658957,-1.106658481,0.987829565,0.9878295653832.3,384,140788.9763,-0.021621704,0.487579346,-0.027099609,140788.9703,-0.500308899,-0.965557283,1.330224996,1.3302249963842.3,385,140788.9863,-0.025482178,0.51902771,-0.080932617,140788.9803,-0.359657775,-0.7147951,1.676822629,1.6768226293852.3,386,140788.9963,0.034851074,0.551757813,-0.141708374,140788.9903,-0.191218162,-0.533291617,2.058225114,2.0582251143862.3,387,140789.0063,0.075881958,0.584976196,-0.194778442,140789.0003,-0.005094095,-0.490152135,2.405703187,2.4057031873872.3,388,140789.0163,0.063980103,0.627655029,-0.210357666,140789.0103,0.167672356,-0.531043376,2.697392564,2.6973925643882.4,389,140789.0264,0.023040771,0.679855347,-0.183151245,140789.0203,0.350441906,-0.693298063,2.978739554,2.9787395543892.4,390,140789.0364,-0.049728394,0.730316162,-0.132705688,140789.0304,0.549217054,-0.843845495,3.26337182,3.263371823902.3,391,140789.0463,-0.128356934,0.769287109,-0.083221436,140789.0404,0.761690703,-0.870861666,3.532646434,3.5326464343912.4,392,140789.0564,-0.185150146,0.805847168,-0.054855347,140789.0504,0.944981966,-0.755186199,3.789489413,3.7894894133922.4,393,140789.0664,-0.222259521,0.860733032,-0.014450073,140789.0604,1.078975721,-0.601172397,4.040554664,4.0405546643932.4,394,140789.0764,-0.24861145,0.928329468,0.022064209,140789.0704,1.186361833,-0.446057112,4.266711369,4.2667113693942.4,395,140789.0864,-0.260498047,1.007171631,0.042770386,140789.0804,1.277923442,-0.316455443,4.465948309,4.4659483093952.4,396,140789.0964,-0.268218994,1.102600098,0.059310913,140789.0904,1.36011312,-0.237928942,4.643759852,4.6437598523962.4,397,140789.1064,-0.278045654,1.194351196,0.061935425,140789.1004,1.441421559,-0.171076142,4.795772021,4.7957720213972.4,398,140789.1164,-0.278060913,1.282211304,0.054367065,140789.1104,1.520990154,-0.16059181,4.905969899,4.9059698993982.4,399,140789.1264,-0.258483887,1.373748779,0.033966064,140789.1204,1.60189539,-0.203312109,4.994810822,4.9948108223992.4,400,140789.1364,-0.265411377,1.462341309,0.040023804,140789.1304,1.662955815,-0.333274903,5.039673369,5.0396733694002.4,401,140789.1464,-0.291946411,1.536026001,0.064086914,140789.1404,1.712510319,-0.493003848,5.053348168,5.0533481684012.4,402,140789.1564,-0.325820923,1.593612671,0.095214844,140789.1504,1.756887637,-0.650560187,5.037929531,5.0379295314022.4,403,140789.1664,-0.369003296,1.631164551,0.132217407,140789.1604,1.79275296,-0.780404736,5.003008032,5.0030080324032.4,404,140789.1764,-0.400939941,1.670928955,0.165374756,140789.1704,1.824388917,-0.880406435,4.947524267,4.9475242674042.4,405,140789.1864,-0.405899048,1.719497681,0.174484253,140789.1804,1.862271052,-0.942096964,4.904876938,4.9048769384052.5,406,140789.1965,-0.412322998,1.781478882,0.181121826,140789.1904,1.895833274,-0.95905118,4.850232068,4.8502320684062.5,407,140789.2065,-0.461349487,1.820251465,0.21661377,140789.2005,1.887957774,-0.956755535,4.738253601,4.7382536014072.4,408,140789.2164,-0.584060669,1.793304443,0.301651001,140789.2105,1.819529181,-0.982050239,4.563590713,4.5635907134082.5,409,140789.2265,-0.721115112,1.667724609,0.388824463,140789.2205,1.727798461,-0.929514061,4.317531407,4.3175314074092.5,410,140789.2365,-0.796859741,1.502182007,0.42666626,140789.2305,1.607869127,-0.702345887,4.060026899,4.0600268994102.5,411,140789.2465,-0.862167358,1.41229248,0.464859009,140789.2405,1.4321471,-0.442183811,3.810714274,3.8107142744112.5,412,140789.2565,-0.940002441,1.355117798,0.513381958,140789.2505,1.214636082,-0.279790106,3.435537195,3.4355371954122.5,413,140789.2665,-0.998092651,1.255477905,0.529663086,140789.2605,0.987320635,-0.159795524,2.93236087,2.932360874132.5,414,140789.2765,-1.001922607,1.165374756,0.482269287,140789.2705,0.77482861,0.000644485,2.438834509,2.4388345094142.5,415,140789.2865,-0.970581055,1.111190796,0.42767334,140789.2805,0.583954794,0.089755453,1.940263855,1.9402638554152.5,416,140789.2965,-0.965194702,1.056015015,0.388290405,140789.2905,0.383038199,0.133213981,1.353522329,1.3535223294162.5,417,140789.3065,-0.98576355,1.009338379,0.363388062,140789.3005,0.191227483,0.066004317,0.724114832,0.7241148324172.5,418,140789.3165,-0.978103638,0.999343872,0.346862793,140789.3105,0.004769722,-0.062996543,0.119675535,0.1196755354182.5,419,140789.3265,-0.904144287,0.992599487,0.343170166,140789.3205,-0.160830162,-0.14844886,-0.41374418,-0.413744184192.5,420,140789.3365,-0.784851074,0.978607178,0.346618652,140789.3305,-0.331169408,-0.215899806,-0.880519353,-0.8805193534202.5,421,140789.3465,-0.656738281,0.978546143,0.344467163,140789.3405,-0.490998488,-0.347319349,-1.290003807,-1.2900038074212.6,422,140789.3566,-0.570343018,0.976699829,0.342803955,140789.3505,-0.641421017,-0.548042333,-1.634654402,-1.6346544024222.6,423,140789.3666,-0.51473999,0.961898804,0.3490448,140789.3606,-0.779361842,-0.785074856,-1.905942367,-1.9059423674232.6,424,140789.3766,-0.435440063,0.92414856,0.310806274,140789.3706,-0.885947941,-0.97860837,-2.072787811,-2.0727878114242.6,425,140789.3866,-0.306228638,0.903259277,0.203216553,140789.3806,-0.897166241,-1.118038701,-2.105798226,-2.1057982264252.6,426,140789.3966,0.014953613,0.97038269,-0.038223267,140789.3906,-0.786414426,-1.117108193,-2.014764988,-2.0147649884262.6,427,140789.4066,0.602355957,1.122253418,-0.371566772,140789.4006,-0.521292744,-0.887578328,-1.70936406,-1.709364064272.6,428,140789.4166,1.455413818,1.375320435,-0.667694092,140789.4106,-0.104827081,-0.468823411,-1.203485959,-1.2034859594282.6,429,140789.4266,1.937606812,1.653457642,-0.70753479,140789.4206,0.127125995,0.167167154,-0.71976083,-0.719760834292.6,430,140789.4366,1.045120239,1.873275757,-0.485473633,140789.4306,-0.323224666,-0.160648801,-0.803151328,-0.8031513284302.6,431,140789.4466,-0.277023315,1.556610107,0.14201355,140789.4406,-0.729168979,-2.665776314,-1.640668885,-1.6406688854312.6,432,140789.4566,-1.214355469,0.93081665,0.536331177,140789.4506,-0.930493305,-3.81673435,-2.366981624,-2.3669816244322.6,433,140789.4666,-1.245803833,0.937057495,0.447235107,140789.4606,-0.862075631,-2.751897085,-2.440801254,-2.4408012544332.6,434,140789.4766,-0.559341431,1.356140137,0.210205078,140789.4706,-0.773470131,-0.853642732,-1.619430176,-1.6194301764342.6,435,140789.4866,-0.077102661,1.251937866,-0.012207031,140789.4806,-0.888195116,0.583827229,-0.962507431,-0.9625074314352.6,436,140789.4966,0.202346802,0.955093384,0.0493927,140789.4906,-0.950372204,0.754519876,-1.189378662,-1.1893786624362.6,437,140789.5066,0.198699951,0.961776733,0.175842285,140789.5006,-0.860147503,0.256516209,-1.383246137,-1.3832461374372.6,438,140789.5166,0.04133606,0.997772217,0.298843384,140789.5106,-0.80118485,-0.446348994,-1.285025826,-1.2850258264382.7,439,140789.5267,-0.118270874,0.985870361,0.34942627,140789.5206,-0.757493295,-0.705280158,-1.148399004,-1.1483990044392.7,440,140789.5367,-0.174911499,1.033843994,0.307189941,140789.5307,-0.66097794,-0.570190246,-1.060000432,-1.0600004324402.7,441,140789.5467,-0.169082642,1.060638428,0.223892212,140789.5407,-0.546900903,-0.261596988,-0.939733142,-0.9397331424412.7,442,140789.5567,-0.106781006,1.044570923,0.166915894,140789.5507,-0.487267932,0.05129195,-0.844543243,-0.8445432434422.7,443,140789.5667,-0.059692383,1.049972534,0.125686646,140789.5607,-0.44122161,0.24919944,-0.755544927,-0.7555449274432.7,444,140789.5767,-0.062973022,1.051864624,0.058258057,140789.5707,-0.402273412,0.358775736,-0.694305005,-0.6943050054442.7,445,140789.5867,-0.070220947,1.043518066,0.003051758,140789.5807,-0.372742418,0.440704158,-0.656713154,-0.6567131544452.7,446,140789.5967,-0.038650513,1.042572021,-0.011886597,140789.5907,-0.387110704,0.475752423,-0.597708157,-0.5977081574462.7,447,140789.6067,0.033050537,1.048294067,-0.009994507,140789.6007,-0.416215859,0.411780631,-0.538491705,-0.5384917054472.7,448,140789.6167,0.101699829,1.034255981,0.01852417,140789.6107,-0.447034226,0.286119908,-0.523225667,-0.5232256674482.7,449,140789.6267,0.12991333,1.006271362,0.079818726,140789.6207,-0.464711757,0.150942112,-0.551980882,-0.5519808824492.7,450,140789.6367,0.116256714,0.980163574,0.126449585,140789.6307,-0.449249177,0.021081583,-0.57625746,-0.576257464502.7,451,140789.6467,0.072799683,0.97428894,0.173095703,140789.6407,-0.415898677,-0.057714962,-0.571526354,-0.5715263544512.7,452,140789.6567,0.012786865,0.97253418,0.216201782,140789.6507,-0.364700204,-0.048169127,-0.546508885,-0.5465088854522.7,453,140789.6667,-0.034057617,0.979782104,0.215164185,140789.6607,-0.306274444,0.05932724,-0.518514002,-0.5185140024532.7,454,140789.6767,-0.048217773,0.977050781,0.173812866,140789.6707,-0.251256732,0.240286905,-0.488605638,-0.4886056384542.8,455,140789.6868,-0.04977417,0.975326538,0.149871826,140789.6807,-0.233695049,0.376502269,-0.4415585,-0.44155854552.8,456,140789.6968,-0.027587891,0.986083984,0.149734497,140789.6908,-0.227707197,0.443516456,-0.398675748,-0.3986757484562.8,457,140789.7068,-0.000915527,0.990264893,0.137680054,140789.7008,-0.206489793,0.50313185,-0.392275106,-0.3922751064572.8,458,140789.7168,0.016769409,0.988327026,0.114349365,140789.7108,-0.199925367,0.470139545,-0.401824936,-0.4018249364582.8,459,140789.7268,0.022781372,0.99786377,0.12852478,140789.7208,-0.206046377,0.360478561,-0.405837254,-0.4058372544592.8,460,140789.7368,-0.005722046,1.006851196,0.122955322,140789.7308,-0.19718817,0.27425446,-0.418443594,-0.4184435944602.8,461,140789.7468,-0.035400391,1.010452271,0.106887817,140789.7408,-0.184096603,0.207195531,-0.431082956,-0.4310829564612.8,462,140789.7568,-0.027450562,1.007797241,0.123550415,140789.7508,-0.174490315,0.217842849,-0.431059787,-0.4310597874622.8,463,140789.7668,0.000350952,1.004653931,0.123733521,140789.7608,-0.165035826,0.299833589,-0.435555469,-0.4355554694632.8,464,140789.7768,0.03604126,1.002258301,0.113449097,140789.7708,-0.160733223,0.349911138,-0.459357205,-0.4593572054642.8,465,140789.7868,0.07762146,0.984970093,0.097640991,140789.7808,-0.160208581,0.257349778,-0.50643124,-0.506431244652.8,466,140789.7968,0.053436279,0.997879028,0.101364136,140789.7908,-0.163674951,0.022098378,-0.542339707,-0.5423397074662.8,467,140789.8068,-0.029907227,0.999984741,0.127212524,140789.8008,-0.152162106,-0.17906243,-0.591178885,-0.5911788854672.8,468,140789.8168,-0.116516113,0.99961853,0.127182007,140789.8108,-0.14989762,-0.188621047,-0.607280623,-0.6072806234682.8,469,140789.8268,-0.14225769,1.003997803,0.147277832,140789.8208,-0.158807758,-0.073644394,-0.597989121,-0.5979891214692.8,470,140789.8368,-0.128860474,1.009872437,0.149551392,140789.8308,-0.170206087,0.11902093,-0.564190943,-0.5641909434702.8,471,140789.8468,-0.095428467,1.018463135,0.148742676,140789.8408,-0.180406261,0.31917453,-0.554085046,-0.5540850464712.9,472,140789.8569,-0.042510986,1.015853882,0.1534729,140789.8508,-0.184980506,0.462929303,-0.565302813,-0.5653028134722.9,473,140789.8669,-0.006240845,1.01322937,0.169082642,140789.8609,-0.182807899,0.498094214,-0.584767325,-0.5847673254732.9,474,140789.8769,-0.002105713,1.00541687,0.172790527,140789.8709,-0.178200364,0.460884528,-0.62229739,-0.622297394742.9,475,140789.8869,-0.0262146,1.007339478,0.164093018,140789.8809,-0.180017439,0.408759008,-0.653362365,-0.6533623654752.9,476,140789.8969,-0.083709717,1.02192688,0.188858032,140789.8909,-0.174482059,0.367253643,-0.666121303,-0.6661213034762.9,477,140789.9069,-0.117660522,1.014556885,0.196975708,140789.9009,-0.164770576,0.397102885,-0.690907876,-0.6909078764772.9,478,140789.9169,-0.110565186,1.019195557,0.192123413,140789.9109,-0.16284298,0.514242558,-0.704161364,-0.7041613644782.9,479,140789.9269,-0.089447021,1.041183472,0.167770386,140789.9209,-0.163077338,0.639900086,-0.717452668,-0.7174526684792.9,480,140789.9369,-0.065612793,1.054611206,0.134918213,140789.9309,-0.161920461,0.693189406,-0.753120385,-0.7531203854802.9,481,140789.9469,-0.04699707,1.051208496,0.124771118,140789.9409,-0.150783121,0.663463202,-0.811083553,-0.8110835534812.9,482,140789.9569,-0.063247681,1.066345215,0.14881897,140789.9509,-0.142758218,0.599668776,-0.871115199,-0.8711151994822.9,483,140789.9669,-0.101959229,1.076065063,0.174682617,140789.9609,-0.134757283,0.529476372,-0.924670569,-0.9246705694832.9,484,140789.9769,-0.130889893,1.086288452,0.19694519,140789.9709,-0.135514686,0.513570909,-0.968752277,-0.9687522774842.9,485,140789.9869,-0.133834839,1.095809937,0.200317383,140789.9809,-0.127903904,0.559410303,-1.006513238,-1.0065132384852.9,486,140789.9969,-0.126998901,1.099243164,0.199859619,140789.991,-0.126713737,0.618034468,-1.049730217,-1.0497302174862.9,487,140790.0069,-0.108657837,1.097793579,0.192657471,140790.0009,-0.129641084,0.645802183,-1.106869404,-1.1068694044873,488,140790.017,-0.090179443,1.103683472,0.20324707,140790.0109,-0.131334322,0.642713449,-1.177900171,-1.1779001714883,489,140790.027,-0.082366943,1.101257324,0.203552246,140790.0209,-0.147829675,0.622622562,-1.271565411,-1.2715654114893,490,140790.037,-0.092941284,1.127090454,0.170928955,140790.031,-0.148235541,0.599343871,-1.369433918,-1.3694339184903,491,140790.047,-0.1302948,1.156814575,0.170135498,140790.041,-0.146366268,0.551593925,-1.479054688,-1.4790546884913,492,140790.057,-0.143157959,1.195831299,0.156036377,140790.051,-0.139191979,0.514486504,-1.58544824,-1.585448244923,493,140790.067,-0.11265564,1.220031738,0.152236938,140790.061,-0.124529413,0.513600736,-1.705897956,-1.7058979564933,494,140790.077,-0.076019287,1.234970093,0.143630981,140790.071,-0.12695209,0.565993104,-1.854586235,-1.8545862354943,495,140790.087,-0.05960083,1.268417358,0.126785278,140790.081,-0.113093533,0.570498108,-2.020257758,-2.0202577584953,496,140790.097,-0.088882446,1.278381348,0.126342773,140790.091,-0.120449716,0.487688711,-2.181484997,-2.1814849974963,497,140790.107,-0.129867554,1.286132813,0.125823975,140790.101,-0.138606349,0.40911747,-2.328795889,-2.3287958894973,498,140790.117,-0.143035889,1.324188232,0.118804932,140790.111,-0.165673121,0.397581189,-2.447300166,-2.4473001664983,499,140790.127,-0.119857788,1.385955811,0.111450195,140790.121,-0.188674311,0.42434649,-2.546523689,-2.5465236894993,500,140790.137,-0.055953979,1.43510437,0.110244751,140790.131,-0.210501313,0.430894671,-2.654289834,-2.6542898345003,501,140790.147,0.033752441,1.459884644,0.12121582,140790.141,-0.25031344,0.358655893,-2.764075987,-2.7640759875013,502,140790.157,0.084655762,1.499008179,0.132156372,140790.151,-0.310432438,0.274705066,-2.873943366,-2.8739433665023,503,140790.167,0.077575684,1.527557373,0.129348755,140790.1611,-0.395456519,0.252476726,-2.962613315,-2.9626133155033,504,140790.177,0.084030151,1.536407471,0.196273804,140790.171,-0.490630173,0.30896184,-2.999918076,-2.9999180765043.1,505,140790.1871,0.087081909,1.579376221,0.211074829,140790.181,-0.58128178,0.529314985,-2.96988481,-2.969884815053.1,506,140790.1971,0.100143433,1.71736145,0.30039978,140790.1911,-0.643920127,0.962529801,-2.883287599,-2.8832875995063.1,507,140790.2071,0.197967529,1.827102661,0.336578369,140790.2011,-0.63102084,1.593794321,-2.803307013,-2.8033070135073.1,508,140790.2171,0.32019043,1.769439697,0.344802856,140790.2111,-0.646747339,2.379603144,-2.830497355,-2.8304973555083.1,509,140790.2271,0.298339844,1.588973999,0.260437012,140790.2211,-0.593034309,2.840699126,-2.876768447,-2.8767684475093.1,510,140790.2371,0.144668579,1.39881897,0.187988281,140790.2311,-0.520263965,2.414804807,-2.874003554,-2.8740035545103.1,511,140790.2471,-0.0443573,1.311264038,0.274993896,140790.2411,-0.389642572,1.523613102,-2.863060358,-2.8630603585113.1,512,140790.2571,-0.141647339,1.252685547,0.139526367,140790.2511,-0.266693213,0.818818172,-2.89899519,-2.898995195123.1,513,140790.2671,-0.263900757,1.196395874,0.148696899,140790.2611,-0.286620315,0.144793405,-2.863733073,-2.8637330735133.1,514,140790.2771,-0.324798584,1.052062988,0.147018433,140790.2711,-0.216045481,-0.387908055,-2.635732395,-2.6357323955143.1,515,140790.2871,-0.124038696,0.819702148,0.095397949,140790.2811,-0.000112119,-0.579188535,-2.166847199,-2.1668471995153.1,516,140790.2971,0.205612183,0.648803711,0.069061279,140790.2911,0.058668107,-0.624982655,-1.442080159,-1.4420801595163.1,517,140790.3071,0.475982666,0.496185303,0.124832153,140790.3011,-0.049430134,-0.930448297,-0.800361134,-0.8003611345173.1,518,140790.3171,0.509109497,0.393783569,0.188323975,140790.3111,-0.124656712,-1.345207408,-0.409962225,-0.4099622255183.1,519,140790.3271,0.353134155,0.376037598,0.243835449,140790.3212,-0.120436667,-1.949287444,-0.154146427,-0.1541464275193.1,520,140790.3371,0.13772583,0.365997314,0.280654907,140790.3312,-0.084957768,-2.444903853,0.195155113,0.1951551135203.2,521,140790.3472,-0.052856445,0.360870361,0.286834717,140790.3411,-0.053403837,-2.573395517,0.683245696,0.6832456965213.2,522,140790.3572,-0.15776062,0.37487793,0.284927368,140790.3511,0.0190179,-2.338805646,1.165104481,1.1651044815223.2,523,140790.3672,-0.202148438,0.37677002,0.28074646,140790.3612,0.110435165,-1.870964409,1.595793023,1.5957930235233.2,524,140790.3772,-0.165039063,0.371902466,0.233856201,140790.3712,0.215853201,-1.307219013,1.973540586,1.9735405865243.2,525,140790.3872,-0.062042236,0.384658813,0.141906738,140790.3812,0.318100211,-0.812713141,2.373001167,2.3730011675253.2,526,140790.3972,0.014556885,0.4271698,0.05140686,140790.3912,0.377008536,-0.522627787,2.767443288,2.7674432885263.2,527,140790.4072,0.04145813,0.491348267,-0.010864258,140790.4012,0.413355092,-0.429399572,3.082704303,3.0827043035273.2,528,140790.4172,0.014053345,0.553512573,-0.046356201,140790.4112,0.448292037,-0.449990601,3.32619073,3.326190735283.2,529,140790.4272,-0.034683228,0.622756958,-0.061248779,140790.4212,0.512418026,-0.549349413,3.55501246,3.555012465293.2,530,140790.4372,-0.101104736,0.695632935,-0.059906006,140790.4312,0.609525668,-0.625317681,3.806553618,3.8065536185303.2,531,140790.4472,-0.187927246,0.763397217,-0.032287598,140790.4412,0.711625405,-0.594835139,4.07287239,4.072872395313.2,532,140790.4572,-0.275939941,0.830673218,0.033157349,140790.4512,0.797566413,-0.490866928,4.325964573,4.3259645735323.2,533,140790.4672,-0.315322876,0.890701294,0.086959839,140790.4612,0.874859603,-0.326193025,4.568063759,4.5680637595333.2,534,140790.4772,-0.292205811,0.95614624,0.090591431,140790.4712,0.942589116,-0.130606746,4.786339105,4.7863391055343.2,535,140790.4872,-0.231826782,1.053344727,0.060409546,140790.4812,0.9980087,-0.03929867,4.960730883,4.9607308835353.2,536,140790.4972,-0.176803589,1.171035767,0.025253296,140790.4913,1.027470452,-0.116127139,5.074131478,5.0741314785363.2,537,140790.5072,-0.161453247,1.275268555,0.015533447,140790.5013,1.036312679,-0.355768494,5.126556336,5.1265563365373.3,538,140790.5173,-0.207946777,1.371124268,0.03036499,140790.5112,1.050036747,-0.736960057,5.139612217,5.1396122175383.3,539,140790.5273,-0.28364563,1.483810425,0.06892395,140790.5213,1.081113707,-1.137273649,5.123766409,5.1237664095393.3,540,140790.5373,-0.352905273,1.565994263,0.096115112,140790.5313,1.159831955,-1.357665143,5.119493633,5.1194936335403.3,541,140790.5473,-0.400222778,1.610610962,0.131591797,140790.5413,1.213782272,-1.456640459,5.089964503,5.0899645035413.3,542,140790.5573,-0.455963135,1.621322632,0.192520142,140790.5513,1.239916138,-1.504475094,5.037522067,5.0375220675423.3,543,140790.5673,-0.512863159,1.640808105,0.242675781,140790.5613,1.266181831,-1.527774557,4.953797076,4.9537970765433.3,544,140790.5773,-0.536941528,1.725967407,0.26109314,140790.5713,1.340241944,-1.360461462,4.852556475,4.8525564755443.3,545,140790.5873,-0.605361938,1.819839478,0.268478394,140790.5813,1.398034137,-1.054701274,4.72928514,4.729285145453.3,546,140790.5973,-0.73135376,1.859985352,0.323043823,140790.5913,1.404573529,-0.906329645,4.477044902,4.4770449025463.3,547,140790.6073,-0.839828491,1.7684021,0.445220947,140790.6013,1.35532449,-0.821654971,4.098758049,4.0987580495473.3,548,140790.6173,-0.953186035,1.606216431,0.486480713,140790.6113,1.272861838,-0.48475231,3.795939057,3.7959390575483.3,549,140790.6273,-0.99458313,1.334075928,0.547302246,140790.6213,1.146441314,-0.139344578,3.501452829,3.5014528295493.3,550,140790.6373,-1.030212402,1.109970093,0.530853271,140790.6313,0.918996172,0.331677539,3.222156472,3.2221564725503.4,551,140790.6474,-1.074996948,1.104278564,0.511062622,140790.6413,0.702746959,0.706934513,2.902314021,2.9023140215513.3,552,140790.6573,-1.121566772,1.151275635,0.457168579,140790.6514,0.474476769,0.982244117,2.490146699,2.4901466995523.3,553,140790.6673,-1.055725098,1.146179199,0.377975464,140790.6614,0.272136714,1.256546514,2.039386977,2.0393869775533.4,554,140790.6774,-0.952697754,1.135513306,0.282653809,140790.6714,0.127682063,1.421136794,1.619420322,1.6194203225543.4,555,140790.6874,-0.888137817,1.09262085,0.261672974,140790.6813,0.006422213,1.283590915,1.033675351,1.0336753515553.4,556,140790.6974,-0.88092041,1.018951416,0.288543701,140790.6914,-0.13837785,0.979040335,0.341749082,0.3417490825563.4,557,140790.7074,-0.86668396,1.003372192,0.317733765,140790.7014,-0.294144811,0.58813143,-0.272494376,-0.2724943765573.4,558,140790.7174,-0.829589844,1.020965576,0.272735596,140790.7114,-0.454956065,0.291857422,-0.802028273,-0.8020282735583.4,559,140790.7274,-0.764709473,1.121963501,0.093612671,140790.7214,-0.561401815,-0.011927233,-1.292484808,-1.2924848085593.4,560,140790.7374,-0.700012207,1.262664795,-0.186462402,140790.7314,-0.566495377,-0.561634575,-1.802074823,-1.8020748235603.4,561,140790.7474,-0.597351074,1.398849487,-0.361541748,140790.7414,-0.488550777,-1.371142868,-2.306108686,-2.3061086865613.4,562,140790.7574,-0.243286133,1.418716431,-0.240280151,140790.7514,-0.462552998,-2.221272358,-2.701620598,-2.7016205985623.4,563,140790.7674,0.400604248,1.326644897,-0.186309814,140790.7614,-0.477996669,-2.564175121,-2.660864646,-2.6608646465633.4,564,140790.7774,0.952590942,1.293197632,-0.238296509,140790.7714,-0.395305517,-2.424250507,-2.243237312,-2.2432373125643.4,565,140790.7874,0.944091797,1.281005859,-0.200958252,140790.7814,-0.40806632,-2.076624894,-1.879511292,-1.8795112925653.4,566,140790.7974,0.134719849,1.1978302,0.029022217,140790.7914,-0.608939506,-2.529067201,-1.925586642,-1.9255866425663.4,567,140790.8074,-0.67616272,1.113555908,0.442398071,140790.8014,-0.809027859,-3.34409889,-2.296668046,-2.2966680465673.5,568,140790.8175,-1.011077881,1.150375366,0.679321289,140790.8114,-0.942673272,-3.047890929,-2.441454527,-2.4414545275683.4,569,140790.8274,-0.820404053,1.262145996,0.648193359,140790.8215,-0.983324029,-1.773664221,-2.272222624,-2.2722226245693.4,570,140790.8374,-0.525787354,1.271865845,0.368881226,140790.8315,-0.922243897,-0.29751877,-1.846872122,-1.8468721225703.5,571,140790.8475,-0.363174438,1.074691772,0.113021851,140790.8415,-0.746424132,0.75091289,-1.627297154,-1.6272971545713.5,572,140790.8575,-0.230911255,0.904251099,0.085723877,140790.8515,-0.6989176,1.399308993,-1.611742695,-1.6117426955723.5,573,140790.8675,-0.077590942,0.956420898,0.06477356,140790.8615,-0.765522992,1.451196425,-1.420712286,-1.4207122865733.5,574,140790.8775,0.001785278,1.060974121,0.038360596,140790.8715,-0.698342889,0.98130775,-1.188613802,-1.1886138025743.5,575,140790.8875,0.011245728,1.042510986,0.13369751,140790.8815,-0.650255255,0.536221094,-1.167637147,-1.1676371475753.5,576,140790.8975,0.006637573,0.997665405,0.220489502,140790.8915,-0.618588672,0.288140182,-1.167791078,-1.1677910785763.5,577,140790.9075,-0.023544312,1.008834839,0.208068848,140790.9015,-0.514867069,0.112330004,-1.079498766,-1.0794987665773.5,578,140790.9175,-0.053649902,1.013168335,0.181488037,140790.9115,-0.46037906,0.02920742,-1.029432669,-1.0294326695783.5,579,140790.9275,-0.072875977,1.006088257,0.217300415,140790.9215,-0.424191761,-0.01984854,-0.976344417,-0.9763444175793.5,580,140790.9375,-0.09866333,0.994827271,0.203979492,140790.9315,-0.362680196,-0.016788568,-0.885599333,-0.8855993335803.5,581,140790.9475,-0.111221313,1.004302979,0.182144165,140790.9415,-0.322724258,0.040569531,-0.792987374,-0.7929873745813.5,582,140790.9575,-0.115005493,1.027008057,0.20135498,140790.9515,-0.306449947,0.159686867,-0.703924076,-0.7039240765823.5,583,140790.9675,-0.108642578,1.034576416,0.195999146,140790.9615,-0.267706812,0.313959528,-0.62775181,-0.627751815833.5,584,140790.9775,-0.076583862,1.021682739,0.181091309,140790.9715,-0.227651005,0.397975869,-0.56212433,-0.562124335843.6,585,140790.9876,-0.048995972,1.008789063,0.18031311,140790.9815,-0.19905984,0.406425014,-0.515708628,-0.5157086285853.5,586,140790.9975,-0.031997681,1.017562866,0.150360107,140790.9916,-0.153053199,0.357413795,-0.492698384,-0.4926983845863.5,587,140791.0075,-0.020996094,1.015136719,0.147262573,140791.0016,-0.130380644,0.249858306,-0.480408961,-0.4804089615873.6,588,140791.0176,-0.034408569,0.995635986,0.190689087,140791.0116,-0.114107398,0.130589169,-0.467044952,-0.4670449525883.6,589,140791.0276,-0.062133789,0.974868774,0.218673706,140791.0216,-0.092627672,0.066684488,-0.452740315,-0.4527403155893.6,590,140791.0376,-0.100402832,0.972122192,0.214050293,140791.0316,-0.074558657,0.050673564,-0.425683663,-0.4256836635903.6,591,140791.0476,-0.135452271,0.964508057,0.198471069,140791.0416,-0.064200292,0.074028954,-0.379416832,-0.3794168325913.6,592,140791.0576,-0.15965271,0.962982178,0.163162231,140791.0516,-0.071202808,0.162315407,-0.321604931,-0.3216049315923.6,593,140791.0676,-0.159286499,0.978820801,0.139678955,140791.0616,-0.094296143,0.288946587,-0.273685608,-0.2736856085933.6,594,140791.0776,-0.115905762,1.005249023,0.146469116,140791.0716,-0.111828797,0.403908859,-0.254757457,-0.2547574575943.6,595,140791.0876,-0.053024292,1.01461792,0.158782959,140791.0816,-0.124769896,0.482722981,-0.2712102,-0.27121025953.6,596,140791.0976,-0.013900757,1.020767212,0.14239502,140791.0916,-0.132190262,0.523224335,-0.299355285,-0.2993552855963.6,597,140791.1076,0.030792236,0.989578247,0.136413574,140791.1016,-0.135029724,0.483894772,-0.343378936,-0.3433789365973.6,598,140791.1176,0.000289917,0.982009888,0.179718018,140791.1116,-0.151490456,0.332771566,-0.389299024,-0.3892990245983.6,599,140791.1276,-0.072692871,0.984588623,0.186340332,140791.1216,-0.156561115,0.2923549,-0.418265162,-0.4182651625993.6,600,140791.1376,-0.106201172,0.98260498,0.201522827,140791.1316,-0.155457501,0.308343454,-0.430144991,-0.4301449916003.7,601,140791.1477,-0.107543945,0.983840942,0.224227905,140791.1416,-0.144847467,0.340282212,-0.428027245,-0.4280272456013.7,602,140791.1577,-0.101074219,0.982376099,0.202529907,140791.1517,-0.132095453,0.390332597,-0.433484861,-0.4334848616023.6,603,140791.1676,-0.109832764,0.995529175,0.194625854,140791.1617,-0.132156706,0.393514009,-0.424884981,-0.4248849816033.7,604,140791.1777,-0.117767334,1.003799438,0.172836304,140791.1717,-0.113911922,0.381806753,-0.427974248,-0.4279742486043.7,605,140791.1877,-0.116912842,0.990600586,0.15284729,140791.1817,-0.102115716,0.380746815,-0.431132225,-0.4311322256053.7,606,140791.1977,-0.121566772,1.000854492,0.15473938,140791.1917,-0.092518749,0.360496138,-0.417025993,-0.4170259936063.7,607,140791.2077,-0.156066895,1.024978638,0.169845581,140791.2017,-0.073238262,0.320015557,-0.402803914,-0.4028039146073.7,608,140791.2177,-0.188461304,1.026672363,0.204086304,140791.2117,-0.05826304,0.273136997,-0.382130061,-0.3821300616083.7,609,140791.2277,-0.199569702,1.030334473,0.225738525,140791.2217,-0.053246977,0.306082963,-0.341303535,-0.3413035356093.7,610,140791.2377,-0.190536499,1.032302856,0.224807739,140791.2317,-0.051592355,0.423157122,-0.310433503,-0.3104335036103.7,611,140791.2477,-0.15184021,1.035751343,0.196960449,140791.2417,-0.044443631,0.528546396,-0.297792809,-0.2977928096113.7,612,140791.2577,-0.100891113,1.027770996,0.206558228,140791.2517,-0.053030195,0.591397531,-0.319554031,-0.3195540316123.7,613,140791.2677,-0.063827515,1.021972656,0.212417603,140791.2617,-0.064592043,0.63193244,-0.370323469,-0.3703234696133.7,614,140791.2777,-0.033370972,1.027862549,0.218200684,140791.2717,-0.086588155,0.650159115,-0.455524916,-0.4555249166143.7,615,140791.2877,-0.010421753,1.032775879,0.216384888,140791.2817,-0.098846153,0.65029973,-0.550302558,-0.5503025586153.7,616,140791.2977,-0.001617432,1.0337677,0.211791992,140791.2917,-0.113096995,0.636625995,-0.663346023,-0.6633460236163.7,617,140791.3077,-0.004638672,1.036178589,0.18637085,140791.3017,-0.119742381,0.601672006,-0.785968346,-0.7859683466173.8,618,140791.3178,-0.022033691,1.057373047,0.1537323,140791.3117,-0.123100893,0.544363443,-0.911733732,-0.9117337326183.8,619,140791.3278,-0.042678833,1.079772949,0.134002686,140791.3218,-0.108176006,0.467899294,-1.043794564,-1.0437945646193.7,620,140791.3377,-0.070709229,1.095596313,0.125732422,140791.3318,-0.087963412,0.401008144,-1.169396431,-1.1693964316203.8,621,140791.3478,-0.083190918,1.08631897,0.133987427,140791.3418,-0.067704213,0.32347447,-1.298194891,-1.2981948916213.8,622,140791.3578,-0.072418213,1.112716675,0.167678833,140791.3518,-0.050762514,0.277876359,-1.422802867,-1.4228028676223.8,623,140791.3678,-0.091415405,1.157867432,0.199676514,140791.3618,-0.032903622,0.253548915,-1.531325883,-1.5313258836233.8,624,140791.3778,-0.160675049,1.175125122,0.234863281,140791.3718,-0.028940305,0.205787784,-1.633401119,-1.6334011196243.8,625,140791.3878,-0.220611572,1.178482056,0.262069702,140791.3818,-0.030624222,0.190982206,-1.701168182,-1.7011681826253.8,626,140791.3978,-0.245559692,1.198471069,0.27041626,140791.3918,-0.033885795,0.301768642,-1.738109156,-1.7381091566263.8,627,140791.4078,-0.207809448,1.26222229,0.273651123,140791.4018,-0.031974178,0.473238399,-1.77089693,-1.770896936273.8,628,140791.4178,-0.105438232,1.354385376,0.2840271,140791.4118,0.004435495,0.598956647,-1.824874944,-1.8248749446283.8,629,140791.4278,-0.024475098,1.373046875,0.289596558,140791.4218,0.03272732,0.589479522,-1.895715029,-1.8957150296293.8,630,140791.4378,-0.012039185,1.308883667,0.297164917,140791.4318,0.002729207,0.444838982,-2.005228741,-2.0052287416303.8,631,140791.4478,-0.050827026,1.284667969,0.299926758,140791.4418,-0.072309085,0.342792508,-2.118356095,-2.1183560956313.8,632,140791.4578,-0.063644409,1.327133179,0.318054199,140791.4518,-0.163797723,0.380214715,-2.224460694,-2.2244606946323.8,633,140791.4678,-0.036270142,1.350097656,0.305709839,140791.4618,-0.267513999,0.569875993,-2.319251652,-2.3192516526333.9,634,140791.4779,0.025405884,1.38508606,0.307937622,140791.4718,-0.38207733,0.822359644,-2.416444781,-2.4164447816343.9,635,140791.4879,0.111740112,1.449142456,0.308532715,140791.4819,-0.483838047,1.051395226,-2.497351349,-2.4973513496353.9,636,140791.4979,0.187164307,1.472671509,0.302566528,140791.4919,-0.602592128,1.230390011,-2.579281902,-2.5792819026363.9,637,140791.5079,0.185775757,1.445327759,0.292144775,140791.5019,-0.769990179,1.473192005,-2.610023037,-2.6100230376373.9,638,140791.5179,0.085479736,1.476928711,0.290710449,140791.5119,-0.922739245,1.732959401,-2.593377481,-2.5933774816383.9,639,140791.5279,-0.014099121,1.604675293,0.282913208,140791.5219,-0.953012196,2.122555368,-2.53014152,-2.530141526393.9,640,140791.5379,-0.036117554,1.646835327,0.247009277,140791.5319,-0.934912821,2.647503301,-2.555282826,-2.5552828266403.9,641,140791.5479,0.009567261,1.548049927,0.243652344,140791.5419,-0.761224916,3.319566383,-2.702661894,-2.7026618946413.9,642,140791.5579,0.152877808,1.348022461,0.123947144,140791.5519,-0.628836249,3.433481501,-2.694711027,-2.6947110276423.9,643,140791.5679,0.139572144,1.208572388,0.03414917,140791.5619,-0.678154797,2.743357925,-2.573471684,-2.5734716846433.9,644,140791.5779,-0.16229248,1.195510864,0.087051392,140791.5719,-0.762134919,1.755088672,-2.437549268,-2.4375492686443.9,645,140791.5879,-0.158233643,1.141662598,0.19442749,140791.5819,-0.730746369,0.915917025,-2.325088769,-2.3250887696453.9,646,140791.5979,0.041137695,1.004470825,0.115921021,140791.5919,-0.754594711,0.505420038,-1.936560996,-1.9365609966463.9,647,140791.6079,0.270187378,0.803909302,0.107849121,140791.6019,-0.920406316,0.108609568,-1.444493515,-1.4444935156473.9,648,140791.6179,0.400848389,0.587875366,0.154647827,140791.6119,-1.163346262,-0.367862441,-1.082851686,-1.0828516866483.9,649,140791.6279,0.363433838,0.463409424,0.225341797,140791.6219,-1.351397127,-1.076255834,-0.848272734,-0.8482727346493.9,650,140791.6379,0.190719604,0.455627441,0.261917114,140791.6319,-1.456202369,-1.800687316,-0.567968371,-0.5679683716504,651,140791.648,-0.041244507,0.450424194,0.253448486,140791.6419,-1.525246685,-2.188869677,-0.149631836,-0.1496318366514,652,140791.658,-0.213012695,0.409164429,0.212463379,140791.652,-1.574449119,-2.0873569,0.322242492,0.3222424926524,653,140791.668,-0.330535889,0.386016846,0.159317017,140791.662,-1.583127295,-1.544007589,0.811324569,0.8113245696534,654,140791.678,-0.375366211,0.359313965,0.108322144,140791.672,-1.55803579,-0.811137615,1.301109987,1.3011099876544,655,140791.688,-0.328125,0.352737427,0.037567139,140791.682,-1.513693093,-0.005825931,1.763883762,1.7638837626554,656,140791.698,-0.198822021,0.390640259,-0.092132568,140791.692,-1.467872608,0.780406867,2.168607282,2.1686072826564,657,140791.708,-0.043106079,0.461288452,-0.235946655,140791.702,-1.4326539,1.236655896,2.518292584,2.5182925846574,658,140791.718,0.052429199,0.544784546,-0.358428955,140791.712,-1.3758793,1.32777542,2.819685986,2.8196859866584,659,140791.728,0.08164978,0.628723145,-0.443710327,140791.722,-1.300978161,1.141073447,3.072507059,3.0725070596594,660,140791.738,0.038375854,0.719665527,-0.48085022,140791.732,-1.209418949,0.78512226,3.29687119,3.296871196604,661,140791.748,-0.05506897,0.815979004,-0.447250366,140791.742,-1.128448466,0.37806075,3.523479834,3.5234798346614,662,140791.758,-0.132644653,0.920623779,-0.374740601,140791.752,-1.026199325,0.016779513,3.75222593,3.752225936624,663,140791.768,-0.154525757,1.018997192,-0.316055298,140791.762,-0.889206052,-0.127304426,3.985903136,3.9859031366634,664,140791.778,-0.113082886,1.088378906,-0.3150177,140791.772,-0.72703632,-0.066959859,4.219113756,4.2191137566644,665,140791.788,-0.066162109,1.128448486,-0.334869385,140791.782,-0.580641822,-0.0278556,4.415706177,4.4157061776654,666,140791.798,-0.052200317,1.176300049,-0.347122192,140791.792,-0.446227022,-0.155807174,4.540622547,4.5406225476664.1,667,140791.8081,-0.090805054,1.236282349,-0.345809937,140791.802,-0.308967166,-0.418891804,4.606766946,4.6067669466674.1,668,140791.8181,-0.150650024,1.302352905,-0.34147644,140791.8121,-0.139505699,-0.684085124,4.659110845,4.6591108456684.1,669,140791.8281,-0.22833252,1.378143311,-0.332870483,140791.8221,0.053086122,-0.838579892,4.733857255,4.7338572556694.1,670,140791.8381,-0.308807373,1.450057983,-0.308166504,140791.8321,0.26780455,-0.850399001,4.807228408,4.8072284086704.1,671,140791.8481,-0.377105713,1.491973877,-0.273529053,140791.8421,0.490907142,-0.742939386,4.860918801,4.8609188016714.1,672,140791.8581,-0.4296875,1.517333984,-0.211410522,140791.8521,0.712698393,-0.55243868,4.919734181,4.9197341816724.1,673,140791.8681,-0.464096069,1.540527344,-0.127426147,140791.8621,0.909585892,-0.271450151,4.987823753,4.9878237536734.1,674,140791.8781,-0.461837769,1.565002441,-0.054229736,140791.8721,1.0656719,0.090475572,5.043598868,5.0435988686744.1,675,140791.8881,-0.430511475,1.587051392,0.010848999,140791.8821,1.187574104,0.447090419,5.090584487,5.0905844876754.1,676,140791.8981,-0.429336548,1.606613159,0.059387207,140791.8921,1.266969594,0.782471349,5.096494574,5.0964945746764.1,677,140791.9081,-0.453674316,1.628814697,0.091415405,140791.9021,1.303115614,1.056212884,5.02485341,5.024853416774.1,678,140791.9181,-0.477859497,1.657821655,0.091674805,140791.9121,1.334229591,1.298069989,4.914534625,4.9145346256784.1,679,140791.9281,-0.481536865,1.667312622,0.052078247,140791.9221,1.345132573,1.516518973,4.793408732,4.7934087326794.1,680,140791.9381,-0.506942749,1.632110596,0.016845703,140791.9321,1.334135315,1.624307755,4.624057253,4.6240572536804.1,681,140791.9481,-0.576004028,1.565841675,-0.015365601,140791.9421,1.305489822,1.686416933,4.384787942,4.3847879426814.1,682,140791.9581,-0.665527344,1.467605591,-0.010269165,140791.9521,1.250777308,1.682638973,4.060544884,4.0605448846824.1,683,140791.9681,-0.707763672,1.383605957,0.004348755,140791.9621,1.203989829,1.604388908,3.696749622,3.6967496226834.1,684,140791.9781,-0.701370239,1.33454895,0.001098633,140791.9721,1.165665076,1.547422295,3.34047273,3.340472736844.1,685,140791.9881,-0.684799194,1.283081055,0.011352539,140791.9821,1.10743426,1.443682583,2.933639454,2.9336394546854.2,686,140791.9982,-0.704208374,1.2081604,0.043685913,140791.9921,1.033798389,1.277241939,2.447265278,2.4472652786864.2,687,140792.0082,-0.730514526,1.06590271,0.137435913,140792.0022,0.942471671,1.044869416,1.90609976,1.906099766874.1,688,140792.0181,-0.718582153,0.916381836,0.244628906,140792.0122,0.715184454,0.728325556,1.403151401,1.4031514016884.2,689,140792.0282,-0.835830688,0.946807861,0.347869873,140792.0222,0.421511822,0.392598947,0.911718818,0.9117188186894.2,690,140792.0382,-0.972442627,1.029907227,0.421783447,140792.0322,0.217396237,0.370007351,0.349909274,0.3499092746904.2,691,140792.0482,-0.958618164,1.035522461,0.391326904,140792.0422,0.088993789,0.604911475,-0.098157194,-0.0981571946914.2,692,140792.0582,-0.845046997,0.998046875,0.332778931,140792.0522,-0.01512276,0.719349105,-0.443484232,-0.4434842326924.2,693,140792.0682,-0.723342896,0.988204956,0.343551636,140792.0622,-0.139732334,0.64969679,-0.861561375,-0.8615613756934.2,694,140792.0782,-0.679946899,0.982452393,0.392913818,140792.0722,-0.275564202,0.41291354,-1.300727824,-1.3007278246944.2,695,140792.0882,-0.699584961,0.995132446,0.413024902,140792.0822,-0.401105616,0.160050655,-1.666604612,-1.6666046126954.2,696,140792.0982,-0.68006897,1.032958984,0.36541748,140792.0922,-0.493332749,0.023088541,-1.928243944,-1.9282439446964.2,697,140792.1082,-0.44921875,1.115447998,0.266723633,140792.1022,-0.497893412,0.074416178,-2.076941277,-2.0769412776974.2,698,140792.1182,0.122787476,1.214004517,0.152709961,140792.1122,-0.406798922,0.359706777,-2.038528374,-2.0385283746984.2,699,140792.1282,1.098403931,1.324813843,-0.009658813,140792.1222,-0.218752851,0.896869032,-1.683905306,-1.6839053066994.2,700,140792.1382,2.003845215,1.455932617,-0.277053833,140792.1322,0.006833938,1.794697334,-1.142883065,-1.1428830657004.2,701,140792.1482,1.699905396,1.7449646,-0.623275757,140792.1422,0.054914115,2.127624429,-0.918673131,-0.9186731317014.3,702,140792.1583,0.467849731,1.651931763,-0.379455566,140792.1522,-0.092565088,0.379072219,-1.454554672,-1.4545546727024.3,703,140792.1683,-0.585388184,1.097229004,0.314300537,140792.1622,-0.425310022,-1.360724049,-2.151878902,-2.1518789027034.3,704,140792.1783,-0.989044189,0.962860107,0.859451294,140792.1723,-0.711499971,-1.901261062,-2.385441059,-2.3854410597044.3,705,140792.1883,-0.689178467,1.164474487,0.665618896,140792.1823,-0.646130018,-1.092587404,-2.035559749,-2.0355597497054.3,706,140792.1983,-0.260971069,1.033828735,0.124740601,140792.1923,-0.465092322,0.151326672,-1.528112779,-1.5281127797064.3,707,140792.2083,-0.046020508,0.928390503,0.051376343,140792.2023,-0.439389089,0.814542733,-1.454611663,-1.4546116637074.3,708,140792.2183,-0.010147095,1.047424316,0.209259033,140792.2123,-0.482646815,1.050948347,-1.479242175,-1.4792421757084.3,709,140792.2283,-0.035842896,1.074523926,0.263244629,140792.2223,-0.484968559,0.857007369,-1.371054451,-1.3710544517094.3,710,140792.2383,-0.090026855,1.023712158,0.314331055,140792.2323,-0.533355533,0.650272033,-1.251253748,-1.2512537487104.3,711,140792.2483,-0.187286377,1.003067017,0.300369263,140792.2423,-0.494043813,0.537273043,-1.158136586,-1.1581365867114.3,712,140792.2583,-0.28012085,1.033462524,0.315353394,140792.2523,-0.385685647,0.548796541,-1.030557322,-1.0305573227124.3,713,140792.2683,-0.203353882,1.03944397,0.330444336,140792.2623,-0.370033184,0.78602081,-0.889115771,-0.8891157717134.3,714,140792.2783,-0.051300049,1.045227051,0.281051636,140792.2723,-0.318988109,0.962536193,-0.734375725,-0.7343757257144.3,715,140792.2883,0.028381348,1.048995972,0.295196533,140792.2823,-0.288594517,0.941073778,-0.62113492,-0.621134927154.3,716,140792.2983,0.044082642,1.04486084,0.280166626,140792.2923,-0.265169884,0.819592087,-0.551760106,-0.5517601067164.3,717,140792.3083,-0.013061523,1.048904419,0.248062134,140792.3023,-0.233999981,0.687517406,-0.518900693,-0.5189006937174.3,718,140792.3183,-0.059692383,1.049087524,0.253890991,140792.3123,-0.206190187,0.631048271,-0.492743658,-0.4927436587184.4,719,140792.3284,-0.072738647,1.066421509,0.271835327,140792.3223,-0.183078477,0.658643413,-0.433501905,-0.4335019057194.4,720,140792.3384,-0.049758911,1.067703247,0.306396484,140792.3324,-0.160122561,0.745861939,-0.373362934,-0.3733629347204.4,721,140792.3484,-0.01713562,1.040908813,0.322784424,140792.3424,-0.123225795,0.85972113,-0.328290797,-0.3282907977214.4,722,140792.3584,0.013031006,1.010696411,0.338684082,140792.3524,-0.088215347,0.922503555,-0.303524997,-0.3035249977224.4,723,140792.3684,0.037796021,0.990982056,0.363800049,140792.3624,-0.042351186,0.927792061,-0.279601554,-0.2796015547234.4,724,140792.3784,0.058334351,0.979537964,0.357849121,140792.3724,0.007906126,0.930976669,-0.272866154,-0.2728661547244.4,725,140792.3884,0.072113037,0.973922729,0.337921143,140792.3824,0.039977244,0.927771288,-0.265139524,-0.2651395247254.4,726,140792.3984,0.065322876,0.980010986,0.329803467,140792.3924,0.060374661,0.887301892,-0.258444604,-0.2584446047264.4,727,140792.4084,0.038223267,0.977783203,0.331359863,140792.4024,0.07330777,0.843643094,-0.255011523,-0.2550115237274.4,728,140792.4184,0.014373779,0.961380005,0.322952271,140792.4124,0.067817663,0.861721164,-0.24002991,-0.240029917284.4,729,140792.4284,-0.017318726,0.9506073,0.323516846,140792.4224,0.054690144,0.887221997,-0.20466606,-0.204666067294.4,730,140792.4384,-0.049163818,0.952011108,0.300369263,140792.4324,0.073804183,0.942584855,-0.20256962,-0.202569627304.4,731,140792.4484,-0.051925659,0.948562622,0.27154541,140792.4424,0.074693413,1.025640327,-0.2071175,-0.20711757314.4,732,140792.4584,-0.023406982,0.945892334,0.234359741,140792.4524,0.062600265,1.121447015,-0.194558299,-0.1945582997324.4,733,140792.4684,-0.004501343,0.936386108,0.214233398,140792.4624,0.056151686,1.137421188,-0.196795354,-0.1967953547334.4,734,140792.4784,0.017822266,0.92590332,0.193893433,140792.4724,0.057590859,1.056541518,-0.223450933,-0.2234509337344.5,735,140792.4885,0.029418945,0.923492432,0.213500977,140792.4824,0.069943665,0.880894326,-0.245456101,-0.2454561017354.5,736,140792.4985,0.027297974,0.930099487,0.242538452,140792.4924,0.087694699,0.715912029,-0.279300617,-0.2793006177364.5,737,140792.5085,0.020294189,0.92791748,0.274002075,140792.5025,0.105433749,0.542403889,-0.30773865,-0.307738657374.5,738,140792.5185,-0.032012939,0.897384644,0.3387146,140792.5125,0.11573379,0.363581676,-0.342660682,-0.3426606827384.5,739,140792.5285,-0.076965332,0.892944336,0.348709106,140792.5225,0.127492712,0.356120564,-0.337190016,-0.3371900167394.5,740,140792.5385,-0.121047974,0.909255981,0.375015259,140792.5325,0.145569717,0.368876573,-0.323133852,-0.3231338527404.5,741,140792.5485,-0.158813477,0.928222656,0.363510132,140792.5425,0.161153204,0.498738699,-0.299755825,-0.2997558257414.5,742,140792.5585,-0.159347534,0.940643311,0.326599121,140792.5525,0.150795904,0.692462363,-0.261649984,-0.2616499847424.5,743,140792.5685,-0.12272644,0.950668335,0.279663086,140792.5625,0.139313685,0.852081054,-0.200848153,-0.2008481537434.5,744,140792.5785,-0.079559326,0.951919556,0.238891602,140792.5725,0.140023151,0.924439673,-0.17200239,-0.172002397444.5,745,140792.5885,-0.050521851,0.954360962,0.197555542,140792.5825,0.136892073,0.903151429,-0.176261583,-0.1762615837454.5,746,140792.5985,-0.040176392,0.95753479,0.179779053,140792.5925,0.124439664,0.799904402,-0.197548762,-0.1975487627464.5,747,140792.6085,-0.022460938,0.972946167,0.194000244,140792.6025,0.112001903,0.677484213,-0.2133975,-0.21339757474.5,748,140792.6185,-0.006835938,0.982528687,0.234848022,140792.6125,0.105958125,0.5848877,-0.236832253,-0.2368322537484.5,749,140792.6285,-0.038040161,0.982269287,0.273742676,140792.6225,0.109627162,0.540252055,-0.29264119,-0.292641197494.5,750,140792.6385,-0.092941284,1.014404297,0.269897461,140792.6325,0.129020834,0.606335734,-0.340081144,-0.3400811447504.5,751,140792.6485,-0.094070435,1.037322998,0.251754761,140792.6425,0.094441551,0.703205555,-0.326577586,-0.3265775867514.6,752,140792.6586,-0.066970825,1.034164429,0.20602417,140792.6525,0.074878769,0.734030047,-0.291266466,-0.2912664667524.6,753,140792.6686,-0.055740356,0.999481201,0.165161133,140792.6626,0.087005206,0.643558204,-0.31137493,-0.311374937534.6,754,140792.6786,-0.041442871,0.972396851,0.142364502,140792.6726,0.105979697,0.467958949,-0.365628848,-0.3656288487544.6,755,140792.6886,-0.023010254,0.965362549,0.162033081,140792.6826,0.093953394,0.284911365,-0.423266578,-0.4232665787554.6,756,140792.6986,-0.017578125,0.99369812,0.191040039,140792.6926,0.093715307,0.125305458,-0.492745255,-0.4927452557564.6,757,140792.7086,-0.029022217,0.988830566,0.231277466,140792.7026,0.083846964,0.007249657,-0.57962263,-0.579622637574.6,758,140792.7186,-0.009872437,1.00428772,0.2943573,140792.7126,0.063039686,-0.0671825,-0.646244801,-0.6462448017584.6,759,140792.7286,0.013458252,1.003631592,0.350418091,140792.7226,0.028202343,-0.087308541,-0.716338135,-0.7163381357594.6,760,140792.7386,0.012298584,1.020523071,0.425338745,140792.7326,0.003035205,-0.106360262,-0.792836639,-0.7928366397604.6,761,140792.7486,-0.025756836,1.034164429,0.466583252,140792.7426,-0.003017894,-0.038087997,-0.880248776,-0.8802487767614.6,762,140792.7586,-0.082427979,1.062164307,0.475692749,140792.7526,-0.008308264,0.139843654,-0.962603038,-0.9626030387624.6,763,140792.7686,-0.105239868,1.094085693,0.44859314,140792.7626,-0.017263675,0.416745828,-1.011911199,-1.0119111997634.6,764,140792.7786,-0.099380493,1.086990356,0.406646729,140792.7726,-0.039122902,0.698960477,-1.053775559,-1.0537755597644.6,765,140792.7886,-0.061569214,1.085998535,0.322875977,140792.7826,-0.055322911,0.908803722,-1.115839463,-1.1158394637654.6,766,140792.7986,-0.018005371,1.104309082,0.254470825,140792.7927,-0.075262264,1.005847714,-1.219560266,-1.2195602667664.6,767,140792.8086,0.013168335,1.111129761,0.174789429,140792.8026,-0.076480128,0.98050028,-1.358323476,-1.3583234767674.7,768,140792.8187,0.03453064,1.137008667,0.149459839,140792.8126,-0.090051863,0.849798725,-1.533434041,-1.5334340417684.7,769,140792.8287,0.044692993,1.10307312,0.123245239,140792.8226,-0.114948424,0.670197804,-1.761197964,-1.7611979647694.7,770,140792.8387,0.079910278,1.053848267,0.157287598,140792.8327,-0.158632788,0.504561435,-2.071979808,-2.0719798087704.7,771,140792.8487,0.211776733,1.100906372,0.177001953,140792.8427,-0.231223902,0.422022083,-2.415461809,-2.4154618097714.7,772,140792.8587,0.401535034,1.417556763,0.283508301,140792.8527,-0.326860413,0.510870996,-2.736987111,-2.7369871117724.7,773,140792.8687,0.186950684,1.638809204,0.191009521,140792.8627,-0.333175567,0.514349617,-2.92860022,-2.928600227734.7,774,140792.8787,-0.255081177,1.564422607,0.100860596,140792.8727,-0.411588351,0.249519019,-3.121976874,-3.1219768747744.7,775,140792.8887,-0.552154541,1.546463013,0.125228882,140792.8827,-0.595971776,0.375163764,-3.127712258,-3.1277122587754.7,776,140792.8987,-0.554611206,1.80368042,0.099609375,140792.8927,-0.668996985,1.218108577,-2.913252423,-2.9132524237764.7,777,140792.9087,-0.340652466,2.113143921,0.026062012,140792.9027,-0.651846227,2.408171938,-2.710075602,-2.7100756027774.7,778,140792.9187,0.145690918,2.193115234,0.005844116,140792.9127,-0.612677519,3.152248494,-2.596918953,-2.5969189537784.7,779,140792.9287,0.697937012,2.085327148,0.087875366,140792.9227,-0.665975362,3.299322098,-2.692370375,-2.6923703757794.7,780,140792.9387,0.965911865,2.014221191,0.127304077,140792.9327,-0.728947937,2.765318884,-3.022610339,-3.0226103397804.7,781,140792.9487,0.715927124,2.084152222,0.10118103,140792.9427,-0.783064169,1.400102082,-3.58062701,-3.580627017814.7,782,140792.9587,0.254135132,2.058700562,0.215896606,140792.9527,-0.918258476,-0.334477587,-4.204729757,-4.2047297577824.7,783,140792.9687,-0.227279663,1.877822876,0.411270142,140792.9628,-1.146224001,-1.977865826,-4.576724891,-4.5767248917834.7,784,140792.9787,-0.609146118,1.619140625,0.485855103,140792.9727,-1.297124301,-2.988128528,-4.687573645,-4.6875736457844.8,785,140792.9888,-0.885070801,1.423492432,0.459320068,140792.9827,-1.361353088,-3.285369264,-4.565440545,-4.5654405457854.8,786,140792.9988,-1.156906128,1.309844971,0.431854248,140792.9928,-1.353873334,-3.061092751,-4.308851898,-4.3088518987864.8,787,140793.0088,-1.267593384,1.230651855,0.467544556,140793.0028,-1.192528116,-2.155298401,-4.113686665,-4.1136866657874.8,788,140793.0188,-1.14881897,1.148513794,0.402069092,140793.0128,-1.025176405,-1.221904114,-3.862606234,-3.8626062347884.8,789,140793.0288,-0.833129883,0.974151611,0.341949463,140793.0228,-0.839810273,-0.871311208,-3.34493246,-3.344932467894.8,790,140793.0388,-0.512588501,0.76461792,0.250213623,140793.0328,-0.584005128,-0.455779248,-2.82059226,-2.820592267904.8,791,140793.0488,-0.304275513,0.564987183,0.198059082,140793.0428,-0.340649462,-0.029242041,-2.537428728,-2.5374287287914.8,792,140793.0588,-0.239593506,0.413269043,0.211074829,140793.0528,-0.088572477,0.260157283,-2.396942453,-2.3969424537924.8,793,140793.0688,-0.212432861,0.296188354,0.253555298,140793.0628,0.176714587,0.363204573,-2.23968066,-2.239680667934.8,794,140793.0788,-0.204971313,0.222167969,0.149291992,140793.0728,0.41792987,0.340412175,-1.946577411,-1.9465774117944.8,795,140793.0888,-0.265563965,0.125671387,0.132339478,140793.0828,0.662341479,0.240909552,-1.619864005,-1.6198640057954.8,796,140793.0988,-0.297729492,0.038284302,0.179031372,140793.0928,0.891333119,0.488613361,-1.364230101,-1.3642301017964.8,797,140793.1088,-0.267654419,0.023666382,0.168014526,140793.1028,1.169197227,1.112049252,-1.029798853,-1.0297988537974.9,798,140793.1189,-0.126419067,0.006240845,0.091995239,140793.1128,1.494442966,1.760866134,-0.578940861,-0.5789408617984.8,799,140793.1288,0.01512146,-0.051223755,0.004379272,140793.1228,1.794079481,2.253092339,-0.077179474,-0.0771794747994.8,800,140793.1388,0.077041626,-0.122207642,-0.061950684,140793.1329,2.087929214,2.600580533,0.380856271,0.3808562718004.8,801,140793.1488,0.164123535,-0.147506714,-0.097732544,140793.1428,2.376267801,2.765043513,0.766224469,0.7662244698014.9,802,140793.1589,0.271850586,-0.111740112,-0.124771118,140793.1528,2.607215,2.700549209,1.178853583,1.1788535838024.9,803,140793.1689,0.359375,-0.054046631,-0.16078186,140793.1629,2.772402626,2.366660181,1.603749483,1.6037494838034.9,804,140793.1789,0.374099731,0.026260376,-0.143585205,140793.1729,2.906339389,1.761307686,2.000219601,2.0002196018044.9,805,140793.1889,0.287200928,0.104064941,-0.058120728,140793.1829,3.00386275,0.931413427,2.318588259,2.3185882598054.9,806,140793.1989,0.195556641,0.167510986,0.089111328,140793.1929,3.066116005,0.123904102,2.619468737,2.6194687378064.9,807,140793.2089,0.162277222,0.255218506,0.267669678,140793.2029,3.106218417,-0.505866916,2.968121264,2.9681212648074.9,808,140793.2189,0.180557251,0.356414795,0.430862427,140793.2129,3.129362086,-1.114290569,3.28109782,3.281097828084.9,809,140793.2289,0.201782227,0.435852051,0.55116272,140793.2229,3.172219006,-1.624592713,3.481967544,3.4819675448094.9,810,140793.2389,0.166442871,0.515945435,0.664779663,140793.2329,3.160915485,-2.150773157,3.620154179,3.6201541798104.9,811,140793.2489,0.102722168,0.591369629,0.789215088,140793.2429,3.116570391,-2.705685381,3.747475384,3.7474753848114.9,812,140793.2589,0.083435059,0.67755127,0.869186401,140793.2529,3.085855888,-3.117905966,3.862609963,3.8626099638124.9,813,140793.2689,0.089111328,0.755432129,0.890991211,140793.2629,3.046566805,-3.474730138,3.957081874,3.9570818748134.9,814,140793.2789,0.082565308,0.82522583,0.877090454,140793.2729,2.996953978,-3.852770648,3.998823462,3.9988234628145,815,140793.289,0.041351318,0.886932373,0.907440186,140793.2829,2.945606634,-4.305289654,4.005262453,4.0052624538154.9,816,140793.2989,-0.081451416,0.949569702,1.002243042,140793.293,2.860040866,-4.786566006,4.018048822,4.0180488228164.9,817,140793.3089,-0.22454834,1.053894043,1.097061157,140793.303,2.839908434,-5.083755609,4.105994923,4.1059949238175,818,140793.319,-0.236801147,1.163223267,1.093017578,140793.3129,2.90543498,-5.000856731,4.207286658,4.2072866588185,819,140793.329,-0.20652771,1.247879028,0.995040894,140793.323,2.934334805,-4.783777677,4.291824712,4.2918247128195,820,140793.339,-0.199478149,1.279800415,0.910751343,140793.333,2.883487603,-4.607056166,4.307149073,4.3071490738205,821,140793.349,-0.181030273,1.276382446,0.883773804,140793.343,2.799858486,-4.608156051,4.330350533,4.3303505338215,822,140793.359,-0.123657227,1.31211853,0.916992188,140793.353,2.734829684,-4.797729445,4.364983611,4.3649836118225,823,140793.369,-0.064361572,1.454269409,0.943572998,140793.363,2.744258873,-4.862765969,4.424423769,4.4244237698235,824,140793.379,-0.048782349,1.62979126,0.973464966,140793.373,2.755253467,-4.799030665,4.524384721,4.5243847218245,825,140793.389,-0.070266724,1.748901367,1.005493164,140793.383,2.73718818,-4.604293402,4.596882358,4.5968823588255,826,140793.399,-0.10723877,1.801300049,0.979232788,140793.393,2.668611249,-4.308395433,4.661255222,4.6612552228265,827,140793.409,-0.167556763,1.814117432,0.942443848,140793.403,2.531419305,-4.373428761,4.717703585,4.7177035858275,828,140793.419,-0.278533936,1.839797974,0.891403198,140793.413,2.442595692,-4.416040404,4.73238932,4.732389328285,829,140793.429,-0.346496582,1.861877441,0.824752808,140793.423,2.416732137,-4.164655041,4.658307635,4.6583076358295,830,140793.439,-0.388290405,1.938873291,0.742477417,140793.433,2.346134665,-3.891909529,4.539781521,4.5397815218305.1,831,140793.4491,-0.390823364,2.04107666,0.661590576,140793.443,2.28866072,-3.667038598,4.395644052,4.3956440528315.1,832,140793.4591,-0.396255493,2.077682495,0.670501709,140793.453,2.258899362,-3.40916897,4.256947688,4.2569476888325,833,140793.469,-0.409896851,2.006500244,0.800765991,140793.4631,2.128133359,-2.977738472,4.110697533,4.1106975338335,834,140793.479,-0.479690552,1.844360352,0.821304321,140793.4731,1.83871699,-2.476051653,3.97409175,3.974091758345.1,835,140793.4891,-0.634887695,1.547805786,0.772827148,140793.483,1.504641541,-2.219072587,3.71634889,3.716348898355.1,836,140793.4991,-0.860946655,1.216491699,0.702514648,140793.4931,1.180879449,-2.018394876,3.371659678,3.3716596788365.1,837,140793.5091,-1.073425293,1.115859985,0.663406372,140793.5031,0.801115874,-1.988002349,2.978728901,2.9787289018375.1,838,140793.5191,-1.224243164,1.127304077,0.581634521,140793.5131,0.393593371,-2.024454633,2.428711301,2.4287113018385.1,839,140793.5291,-1.271408081,1.016784668,0.390701294,140793.5231,0.01730602,-1.838197408,1.75659469,1.756594698395.1,840,140793.5391,-1.144500732,0.969238281,0.220169067,140793.5331,-0.296837267,-1.659382119,1.07732243,1.077322438405.1,841,140793.5491,-0.94367981,0.985519409,0.086791992,140793.5431,-0.47420779,-1.758426678,0.375986148,0.3759861488415.1,842,140793.5591,-0.81060791,0.919525146,0.034545898,140793.5531,-0.595142468,-2.059704766,-0.368547939,-0.3685479398425.1,843,140793.5691,-0.780212402,0.86756897,0.015579224,140793.5631,-0.73395175,-2.582502995,-1.074855012,-1.0748550128435.1,844,140793.5791,-0.947799683,0.999389648,0.037643433,140793.5731,-0.849690601,-3.181056973,-1.673182088,-1.6731820888445.1,845,140793.5891,-1.135803223,1.010681152,0.14465332,140793.5831,-0.854534092,-3.195079581,-2.268315767,-2.2683157678455.1,846,140793.5991,-0.960861206,0.918563843,-0.316040039,140793.5931,-0.793640913,-1.652155365,-2.358673627,-2.3586736278465.1,847,140793.6091,-0.617828369,0.95526123,-0.487915039,140793.6031,-0.820809684,-0.05066877,-1.734026264,-1.7340262648475.2,848,140793.6192,-0.225341797,0.976867676,-0.384506226,140793.6131,-0.901864057,1.032664148,-1.357821737,-1.3578217378485.2,849,140793.6292,0.243606567,1.032119751,-0.478744507,140793.6232,-0.691676198,1.44454598,-1.243770265,-1.2437702658495.1,850,140793.6391,0.606155396,1.141311646,-0.355484009,140793.6332,-0.720598927,0.969384778,-1.046644945,-1.0466449458505.2,851,140793.6492,0.751037598,1.17678833,-0.180343628,140793.6432,-0.749380241,0.041731734,-0.861081739,-0.8610817398515.2,852,140793.6592,0.55065918,1.161697388,-0.082626343,140793.6532,-0.802621625,-0.865384609,-0.882353472,-0.8823534728525.2,853,140793.6692,0.08883667,1.18711853,0.161621094,140793.6632,-0.868032856,-2.033098189,-1.079415941,-1.0794159418535.2,854,140793.6792,-0.328048706,1.214035034,0.358032227,140793.6732,-0.821411825,-2.584303292,-1.297050797,-1.2970507978545.2,855,140793.6892,-0.474777222,1.191223145,0.461959839,140793.6832,-0.921710999,-2.163663922,-1.346234855,-1.3462348558555.2,856,140793.6992,-0.399459839,1.183517456,0.474899292,140793.6932,-1.010114897,-1.51471122,-0.989222931,-0.9892229318565.2,857,140793.7092,-0.320831299,0.987823486,0.399963379,140793.7032,-1.022610982,-0.975512179,-0.573333043,-0.5733330438575.2,858,140793.7192,-0.156066895,0.7918396,0.411758423,140793.7132,-1.011303732,-0.72871491,-0.425487655,-0.4254876558585.2,859,140793.7292,0.20703125,1.081481934,0.32623291,140793.7232,-0.888421751,-0.596915068,-0.272355359,-0.2723553598595.2,860,140793.7392,0.602111816,1.572174072,0.090896606,140793.7332,-0.744832095,-0.541732772,-0.147933539,-0.1479335398605.2,861,140793.7492,0.779434204,1.793304443,-0.221435547,140793.7432,-0.644694042,-0.596988571,-0.221454361,-0.2214543618615.2,862,140793.7592,0.639053345,1.562789917,-0.438491821,140793.7532,-0.661946532,-0.885220898,-0.429478135,-0.4294781358625.2,863,140793.7692,0.260925293,1.110061646,-0.399002075,140793.7632,-0.786850385,-1.425837806,-0.608306207,-0.6083062078635.3,864,140793.7793,-0.050323486,0.915969849,-0.221374512,140793.7732,-0.837035525,-1.784582116,-0.654875307,-0.6548753078645.3,865,140793.7893,-0.125473022,1.017288208,-0.05897522,140793.7832,-0.797842316,-1.783614856,-0.58900468,-0.589004688655.3,866,140793.7993,-0.057037354,1.075332642,0.085098267,140793.7933,-0.751911842,-1.510093831,-0.512071283,-0.5120712838665.2,867,140793.8092,0.014862061,1.032791138,0.187469482,140793.8033,-0.692963038,-1.21309278,-0.472801108,-0.4728011088675.3,868,140793.8193,0.036529541,1.025756836,0.196411133,140793.8133,-0.59184148,-1.026787085,-0.457711904,-0.4577119048685.3,869,140793.8293,0.016464233,1.016433716,0.16506958,140793.8233,-0.482036152,-0.907570678,-0.434839079,-0.4348390798695.3,870,140793.8393,-0.027175903,1.008270264,0.118667603,140793.8333,-0.413869614,-0.840532522,-0.407743811,-0.4077438118705.3,871,140793.8493,-0.052505493,1.015975952,0.023254395,140793.8433,-0.358609554,-0.809731999,-0.355861172,-0.3558611728715.3,872,140793.8593,-0.070037842,1.011245728,-0.067169189,140793.8533,-0.331201898,-0.774675744,-0.301998207,-0.3019982078725.3,873,140793.8693,-0.084182739,0.991424561,-0.108474731,140793.8633,-0.335729539,-0.774734866,-0.262203922,-0.2622039228735.3,874,140793.8793,-0.073104858,0.982894897,-0.125717163,140793.8733,-0.349822188,-0.772646948,-0.234309174,-0.2343091748745.3,875,140793.8893,-0.061141968,0.970703125,-0.126098633,140793.8833,-0.368188146,-0.747118951,-0.217271068,-0.2172710688755.3,876,140793.8993,-0.061416626,0.980010986,-0.078262329,140793.8933,-0.370300832,-0.771615772,-0.211828898,-0.2118288988765.3,877,140793.9093,-0.064071655,0.995407104,-0.041702271,140793.9033,-0.362904434,-0.749265992,-0.205396033,-0.2053960338775.3,878,140793.9193,-0.068267822,0.998626709,0.009292603,140793.9133,-0.350218999,-0.699231586,-0.200091815,-0.2000918158785.3,879,140793.9293,-0.077972412,0.996185303,0.042938232,140793.9233,-0.329101463,-0.586371613,-0.19923188,-0.199231888795.3,880,140793.9393,-0.049468994,0.986968994,0.050216675,140793.9333,-0.291921071,-0.48203269,-0.196102133,-0.1961021338805.3,881,140793.9493,-0.011535645,0.986999512,0.029449463,140793.9433,-0.267426115,-0.459689301,-0.18526653,-0.185266538815.4,882,140793.9594,-0.008422852,1.012359619,-0.004043579,140793.9533,-0.244710948,-0.509704532,-0.203282814,-0.2032828148825.4,883,140793.9694,-0.032119751,1.025512695,-0.002029419,140793.9634,-0.214436932,-0.543723219,-0.238523094,-0.2385230948835.3,884,140793.9793,-0.024642944,1.010604858,-0.026611328,140793.9734,-0.194939397,-0.551125209,-0.272828337,-0.2728283378845.4,885,140793.9894,-0.015930176,1.005752563,-0.0131073,140793.9834,-0.196841693,-0.57983302,-0.299658886,-0.2996588868855.4,886,140793.9994,-0.025375366,1.007446289,-0.025619507,140793.9934,-0.190239983,-0.531848183,-0.348194198,-0.3481941988865.4,887,140794.0094,-0.061004639,1.019836426,-0.027832031,140794.0034,-0.173852221,-0.537095143,-0.399743143,-0.3997431438875.4,888,140794.0194,-0.10534668,1.015869141,-0.037124634,140794.0134,-0.157556339,-0.534906558,-0.439476441,-0.4394764418885.4,889,140794.0294,-0.111251831,1.025131226,-0.030105591,140794.0234,-0.148985753,-0.49015906,-0.458932963,-0.4589329638895.4,890,140794.0394,-0.080459595,1.024475098,0.00352478,140794.0334,-0.147040847,-0.39325728,-0.466744814,-0.4667448148905.4,891,140794.0494,-0.070526123,1.009857178,0.017547607,140794.0434,-0.139592518,-0.335737794,-0.483017261,-0.4830172618915.4,892,140794.0594,-0.085235596,1.005203247,0.030899048,140794.0534,-0.109425028,-0.375108903,-0.49887026,-0.498870268925.4,893,140794.0694,-0.102676392,1.012756348,0.051040649,140794.0634,-0.080470342,-0.392141416,-0.500806111,-0.5008061118935.4,894,140794.0794,-0.128234863,1.030075073,0.08013916,140794.0734,-0.041000164,-0.358081183,-0.493148458,-0.4931484588945.4,895,140794.0894,-0.148406982,1.010269165,0.069091797,140794.0834,-0.001669802,-0.281439668,-0.480237719,-0.4802377198955.4,896,140794.0994,-0.157150269,0.992401123,0.020736694,140794.0934,0.025868349,-0.223979305,-0.456575,-0.4565758965.4,897,140794.1094,-0.145095825,1.004608154,0.002944946,140794.1034,0.047037816,-0.198467287,-0.428548426,-0.4285484268975.5,898,140794.1195,-0.134124756,1.022689819,0.003204346,140794.1134,0.071492826,-0.160152921,-0.417760759,-0.4177607598985.5,899,140794.1295,-0.143722534,1.020980835,0.015853882,140794.1235,0.090716055,-0.159097776,-0.4111966,-0.41119668995.5,900,140794.1395,-0.167373657,1.012893677,0.01499939,140794.1335,0.118429975,-0.161256002,-0.39165965,-0.391659659005.5,901,140794.1495,-0.189651489,1.016036987,0.027801514,140794.1435,0.146013399,-0.127222934,-0.365774257,-0.3657742579015.5,902,140794.1595,-0.185333252,1.025817871,0.038787842,140794.1535,0.171263096,-0.034640802,-0.332543599,-0.3325435999025.5,903,140794.1695,-0.160903931,1.033416748,0.032562256,140794.1635,0.193281846,0.084570811,-0.306944496,-0.3069444969035.5,904,140794.1795,-0.131164551,1.046386719,0.037109375,140794.1735,0.217659623,0.148435544,-0.294081161,-0.2940811619045.5,905,140794.1895,-0.122879028,1.05128479,0.036895752,140794.1835,0.253993396,0.168663851,-0.292857439,-0.2928574399055.5,906,140794.1995,-0.124862671,1.031982422,0.003479004,140794.1935,0.28404637,0.1644225,-0.304511165,-0.3045111659065.5,907,140794.2095,-0.147689819,1.041687012,-0.01864624,140794.2035,0.300107895,0.180404663,-0.312000507,-0.3120005079075.5,908,140794.2195,-0.153213501,1.060943604,-0.034606934,140794.2135,0.3364936,0.225148965,-0.329145405,-0.3291454059085.5,909,140794.2295,-0.14855957,1.054611206,-0.037979126,140794.2235,0.351526079,0.259252341,-0.350685585,-0.3506855859095.5,910,140794.2395,-0.171432495,1.051879883,-0.049102783,140794.2335,0.370817219,0.26778138,-0.35813418,-0.358134189105.5,911,140794.2495,-0.164230347,1.048980713,-0.02633667,140794.2435,0.419021766,0.278444677,-0.368652335,-0.3686523359115.5,912,140794.2595,-0.071304321,1.049362183,-0.020401001,140794.2535,0.45632999,0.363637603,-0.378379265,-0.3783792659125.5,913,140794.2695,-0.018157959,1.053314209,-0.056716919,140794.2635,0.484695052,0.295582651,-0.437205564,-0.4372055649135.5,914,140794.2795,-0.048629761,1.083770752,-0.064804077,140794.2735,0.526395361,0.065709239,-0.509462983,-0.5094629839145.6,915,140794.2896,-0.089447021,1.079574585,-0.050872803,140794.2835,0.575532015,-0.147131661,-0.579576291,-0.5795762919155.6,916,140794.2996,-0.143768311,1.070739746,-0.023345947,140794.2936,0.602784142,-0.208804613,-0.634123157,-0.6341231579165.6,917,140794.3096,-0.151870728,1.077774048,-0.058578491,140794.3036,0.629708701,-0.166149827,-0.678221376,-0.6782213769175.6,918,140794.3196,-0.119216919,1.080749512,-0.05178833,140794.3136,0.645854115,-0.101140467,-0.719219409,-0.7192194099185.6,919,140794.3296,-0.090133667,1.089813232,-0.060424805,140794.3236,0.680402771,-0.076565349,-0.777210807,-0.7772108079195.6,920,140794.3396,-0.101577759,1.101028442,-0.066146851,140794.3336,0.716254778,-0.115856562,-0.84684235,-0.846842359205.6,921,140794.3496,-0.129196167,1.123687744,-0.061737061,140794.3436,0.749940837,-0.17965738,-0.902422255,-0.9024222559215.6,922,140794.3596,-0.143585205,1.152709961,-0.065811157,140794.3536,0.783484416,-0.194485328,-0.954920617,-0.9549206179225.6,923,140794.3696,-0.119934082,1.177642822,-0.065490723,140794.3636,0.815847149,-0.157136624,-1.010810249,-1.0108102499235.6,924,140794.3796,-0.088088989,1.224304199,-0.051025391,140794.3736,0.843948559,-0.130436837,-1.06561624,-1.065616249245.6,925,140794.3896,-0.057662964,1.29586792,-0.045410156,140794.3836,0.88082828,-0.142038631,-1.139629481,-1.1396294819255.6,926,140794.3996,-0.038421631,1.342025757,-0.044448853,140794.3936,0.914554286,-0.163215023,-1.219013253,-1.2190132539265.6,927,140794.4096,-0.018096924,1.356430054,-0.057556152,140794.4036,0.945089292,-0.173732912,-1.305980643,-1.3059806439275.6,928,140794.4196,0.007629395,1.353775024,-0.080093384,140794.4136,0.96071033,-0.177841637,-1.407043345,-1.4070433459285.6,929,140794.4296,0.01953125,1.387466431,-0.074752808,140794.4236,0.987121164,-0.16062217,-1.530708562,-1.5307085629295.6,930,140794.4396,0.069137573,1.435180664,-0.005706787,140794.4336,1.041383072,-0.133808931,-1.661776568,-1.6617765689305.7,931,140794.4497,0.172836304,1.446334839,0.034667969,140794.4436,1.065794405,-0.16236654,-1.789621349,-1.7896213499315.7,932,140794.4597,0.250717163,1.474777222,0.066818237,140794.4537,1.041154572,-0.269717498,-1.915359038,-1.9153590389325.7,933,140794.4697,0.316436768,1.503936768,0.092041016,140794.4637,1.028450761,-0.511266209,-2.012645911,-2.0126459119335.7,934,140794.4797,0.338928223,1.50567627,0.08241272,140794.4737,1.021034657,-0.721934502,-2.112147202,-2.1121472029345.7,935,140794.4897,0.329925537,1.46685791,0.083679199,140794.4837,1.023093014,-0.893222099,-2.202025959,-2.2020259599355.7,936,140794.4997,0.298522949,1.384796143,0.079071045,140794.4937,1.042180688,-1.122062738,-2.252891537,-2.2528915379365.7,937,140794.5097,0.136001587,1.278656006,0.094985962,140794.5037,1.06583595,-1.457371763,-2.306641584,-2.3066415849375.7,938,140794.5197,-0.128433228,1.204864502,0.139984131,140794.5137,1.055733515,-1.78723569,-2.442393558,-2.4423935589385.7,939,140794.5297,-0.359298706,1.174331665,0.192382813,140794.5237,1.048598374,-2.102242905,-2.544810211,-2.5448102119395.7,940,140794.5397,-0.511138916,1.181732178,0.249313354,140794.5337,1.055748695,-2.491993868,-2.503785014,-2.5037850149405.7,941,140794.5497,-0.484542847,1.175430298,0.250228882,140794.5437,1.118728726,-2.799926663,-2.350758179,-2.3507581799415.7,942,140794.5597,-0.189865112,1.071350098,0.23008728,140794.5537,1.150361488,-2.996326271,-2.020668151,-2.0206681519425.7,943,140794.5697,0.168289185,0.905654907,0.252487183,140794.5637,1.046162913,-3.453717797,-1.60124984,-1.601249849435.7,944,140794.5797,0.377960205,0.80255127,0.379806519,140794.5737,0.954499838,-4.110959322,-1.396406147,-1.3964061479445.7,945,140794.5897,0.398147583,0.768493652,0.479904175,140794.5837,0.914458945,-4.679458994,-1.440138182,-1.4401381829455.7,946,140794.5997,0.262252808,0.756164551,0.566040039,140794.5937,0.842031349,-5.211802525,-1.454029496,-1.4540294969465.7,947,140794.6097,0.080383301,0.753555298,0.666534424,140794.6037,0.757682113,-5.63257452,-1.316575763,-1.3165757639475.8,948,140794.6198,-0.072631836,0.77583313,0.716323853,140794.6137,0.723467418,-5.674372301,-1.132613649,-1.1326136499485.8,949,140794.6298,-0.190185547,0.799087524,0.702850342,140794.6238,0.71626623,-5.353074166,-0.964648612,-0.9646486129495.8,950,140794.6398,-0.234207153,0.805358887,0.676925659,140794.6338,0.688192251,-4.883818258,-0.770339585,-0.7703395859505.8,951,140794.6498,-0.235687256,0.806549072,0.636627197,140794.6438,0.687792244,-4.454018146,-0.534858088,-0.5348580889515.8,952,140794.6598,-0.236907959,0.786010742,0.596878052,140794.6538,0.702300879,-4.028497735,-0.28528767,-0.285287679525.8,953,140794.6698,-0.232421875,0.733535767,0.58605957,140794.6638,0.748045998,-3.644479493,-0.05048155,-0.050481559535.8,954,140794.6798,-0.202865601,0.662307739,0.58984375,140794.6738,0.819532165,-3.271102177,0.1801988,0.18019889545.8,955,140794.6898,-0.143829346,0.596496582,0.598205566,140794.6838,0.886935441,-3.011671938,0.425186984,0.4251869849555.8,956,140794.6998,-0.099487305,0.55557251,0.615432739,140794.6938,0.941908945,-2.925797776,0.673851129,0.6738511299565.8,957,140794.7098,-0.075668335,0.546829224,0.630981445,140794.7038,1.00708928,-2.949519084,0.874471314,0.8744713149575.8,958,140794.7198,-0.059524536,0.540496826,0.624267578,140794.7138,1.081243669,-3.033867787,1.03335151,1.033351519585.8,959,140794.7298,-0.059875488,0.519744873,0.604293823,140794.7238,1.136425166,-3.21402957,1.183799606,1.1837996069595.8,960,140794.7398,-0.036453247,0.510742188,0.605682373,140794.7338,1.178914569,-3.476188485,1.343029741,1.3430297419605.8,961,140794.7498,0.032363892,0.527664185,0.598480225,140794.7438,1.238400001,-3.737313027,1.522802169,1.5228021699615.8,962,140794.7598,0.11000061,0.540710449,0.58744812,140794.7539,1.306587843,-4.019711433,1.688697131,1.6886971319625.8,963,140794.7698,0.125396729,0.552719116,0.627059937,140794.7638,1.359261441,-4.422367009,1.816118737,1.8161187379635.9,964,140794.7799,0.064788818,0.581710815,0.681808472,140794.7738,1.458176038,-4.839885687,1.914791518,1.9147915189645.9,965,140794.7899,-0.008178711,0.646087646,0.722946167,140794.7839,1.590607316,-5.046637002,2.046389227,2.0463892279655.9,966,140794.7999,-0.074432373,0.707046509,0.782928467,140794.7939,1.714764685,-5.055416912,2.223625527,2.2236255279665.9,967,140794.8099,-0.144638062,0.755325317,0.851486206,140794.8039,1.843675796,-4.822501104,2.399090825,2.3990908259675.9,968,140794.8199,-0.222076416,0.797729492,0.905349731,140794.8139,1.984052882,-4.426657362,2.557991793,2.5579917939685.9,969,140794.8299,-0.280792236,0.856735229,0.925338745,140794.8239,2.130565624,-3.913691523,2.715501793,2.7155017939695.9,970,140794.8399,-0.32270813,0.925735474,0.910247803,140794.8339,2.276749465,-3.282548444,2.878037976,2.8780379769705.9,971,140794.8499,-0.354476929,0.954956055,0.871383667,140794.8439,2.382129152,-2.622671987,3.049940764,3.0499407649715.9,972,140794.8599,-0.361114502,0.969070435,0.835906982,140794.8539,2.457795417,-2.038375509,3.211137111,3.2111371119725.9,973,140794.8699,-0.337020874,1.018127441,0.798553467,140794.8639,2.525082845,-1.548852945,3.381178348,3.3811783489735.9,974,140794.8799,-0.29208374,1.072113037,0.785003662,140794.8739,2.556329448,-1.19135233,3.548179055,3.5481790559745.9,975,140794.8899,-0.265762329,1.100708008,0.787765503,140794.8839,2.537775471,-0.953052144,3.681888118,3.6818881189755.9,976,140794.8999,-0.250366211,1.123428345,0.780227661,140794.8939,2.496200331,-0.826489674,3.775979197,3.7759791979765.9,977,140794.9099,-0.246398926,1.167114258,0.763290405,140794.9039,2.41863097,-0.826611114,3.857328116,3.8573281169775.9,978,140794.9199,-0.232635498,1.208847046,0.741027832,140794.9139,2.292246133,-0.949149547,3.92046767,3.920467679785.9,979,140794.9299,-0.229507446,1.246887207,0.701385498,140794.9239,2.120401936,-1.196200882,3.942822777,3.9428227779795.9,980,140794.9399,-0.286834717,1.306610107,0.695007324,140794.9339,1.931186471,-1.631625057,3.90860169,3.908601699805.9,981,140794.9499,-0.388015747,1.418014526,0.710449219,140794.9439,1.74668773,-2.105298084,3.819634799,3.8196347999816,982,140794.96,-0.525436401,1.522537231,0.707870483,140794.9539,1.600271927,-2.39157352,3.727097408,3.7270974089826,983,140794.97,-0.702484131,1.574005127,0.685653687,140794.964,1.465151656,-2.441451331,3.615622811,3.6156228119836,984,140794.98,-0.933349609,1.548812866,0.695068359,140794.974,1.324454725,-2.281505072,3.455059763,3.4550597639846,985,140794.99,-1.12046814,1.484954834,0.828170776,140794.984,1.120981494,-2.00960538,3.188333794,3.1883337949856,986,140795,-1.123397827,1.387573242,0.839645386,140794.994,0.911681268,-1.507699649,2.904744156,2.9047441569866,987,140795.01,-0.960632324,1.28767395,0.760818481,140795.004,0.643554475,-1.115517221,2.658813213,2.6588132139876,988,140795.02,-0.783782959,1.19682312,0.693771362,140795.014,0.339807637,-0.842471303,2.336622919,2.3366229199886,989,140795.03,-0.717834473,1.080459595,0.650772095,140795.024,0.008666725,-0.744850471,1.842605206,