timestamp(unix),attitude_roll(radians),attitude_pitch(radians),attitude_yaw(radians),rotation_rate_x(radians/s),rotation_rate_y(radians/s),rotation_rate_z(radians/s),gravity_x(G),gravity_y(G),gravity_z(G),user_acc_x(G),user_acc_y(G),user_acc_z(G),magnetic_field_x(microteslas),magnetic_field_y(microteslas),magnetic_field_z(microteslas),latitude(degree),longitude(degree),altitude(meter),speed(m/s),course(degree),timestamp(unix)
1478384983.90,2.932700,1.531252,-1.971580,0.041757,-0.089369,-0.003408,0.008199,-0.999218,0.038675,-0.038136,0.017437,0.006033,24.263184,-41.345154,8.986877,,,,,,
,,,,,,,,,,,,,,,,37.354404,-122.033562,36.120422,0.670000,79.804688,1478384983.90
1478384983.92,2.937867,1.530111,-1.976633,0.063624,0.062145,-0.011501,0.008229,-0.999172,0.039833,-0.024709,0.017666,0.010643,23.438202,-41.345169,8.978638,,,,,,
,,,,,,,,,,,,,,,,37.354404,-122.033562,36.120422,0.670000,79.804688,1478384983.00
1478384983.94,2.937471,1.528670,-1.975251,0.073326,0.024781,-0.015860,0.008537,-0.999113,0.041239,0.000329,0.009458,-0.018504,24.114075,-41.270538,8.610229,,,,,,
1478384983.96,2.936895,1.527181,-1.975096,0.074617,-0.043473,-0.012841,0.008863,-0.999049,0.042691,-0.000287,0.007014,-0.008664,24.412842,-41.420151,8.988586,,,,,,
1478384983.98,2.936737,1.525725,-1.975877,0.071418,-0.042418,-0.012843,0.009166,-0.998984,0.044114,-0.015559,0.017646,0.007339,23.512665,-41.420013,9.129578,,,,,,
1478384984.00,2.936706,1.524293,-1.976779,0.066190,-0.054134,-0.013859,0.009458,-0.998919,0.045515,-0.005567,0.016222,0.008562,23.512665,-41.420013,9.129578,,,,,,
1478384984.02,2.934467,1.522970,-1.975925,0.060925,-0.075561,-0.019270,0.009832,-0.998857,0.046786,-0.004216,0.015138,0.011060,24.114899,-41.045380,8.759521,,,,,,
1478384984.04,2.940941,1.521609,-1.983502,0.065038,-0.032936,-0.025553,0.009799,-0.998791,0.048181,-0.022235,0.014080,0.005286,24.115021,-41.045456,8.684509,,,,,,
1478384984.06,2.939785,1.520163,-1.982129,0.079777,0.020464,-0.026448,0.010145,-0.998718,0.049585,-0.007719,0.015671,-0.004495,24.339417,-41.195526,8.612244,,,,,,
,,,,,,,,,,,,,,,,37.354405,-122.033558,36.327637,0.590000,71.015625,1478384984.00
1478384984.08,2.928513,1.518684,-1.971594,0.088705,-0.094486,-0.004315,0.011015,-0.998642,0.050911,0.053102,0.004593,-0.026741,23.438538,-41.119720,9.427917,,,,,,
1478384984.10,2.933001,1.516912,-1.980159,0.093475,-0.246954,0.004890,0.011153,-0.998549,0.052690,0.014924,0.004255,-0.036104,23.438538,-41.119720,9.427917,,,,,,
1478384984.12,2.943749,1.515533,-1.994802,0.113298,-0.129762,-0.017187,0.010857,-0.998473,0.054158,-0.060967,0.024322,-0.018300,24.338867,-41.195160,8.987183,,,,,,
1478384984.14,2.939799,1.512766,-1.990510,0.146606,0.094041,-0.051771,0.011624,-0.998317,0.056821,-0.081708,0.021647,-0.001309,24.489410,-41.120300,8.838501,,,,,,
1478384984.16,2.932598,1.509506,-1.980407,0.158168,0.149458,-0.066456,0.012708,-0.998122,0.059919,-0.016798,0.017470,-0.011488,24.639771,-40.970078,9.064514,,,,,,
1478384984.18,2.926126,1.506176,-1.971747,0.154156,0.076993,-0.057047,0.013807,-0.997913,0.063083,0.025882,0.014087,-0.004016,24.414215,-40.969711,9.437256,,,,,,
1478384984.20,2.922262,1.503060,-1.967111,0.145804,0.030148,-0.045438,0.014727,-0.997707,0.066063,0.003340,0.009212,0.004158,24.414215,-40.969711,9.437256,,,,,,
1478384984.22,2.919247,1.499889,-1.963112,0.157394,0.066398,-0.051728,0.015623,-0.997487,0.069104,-0.023054,0.017140,0.004398,24.264557,-40.894699,9.435486,,,,,,
1478384984.24,2.916354,1.496471,-1.958203,0.171072,0.117634,-0.054769,0.016584,-0.997239,0.072381,-0.021330,0.019929,-0.008432,24.639771,-40.819626,9.514038,,,,,,
1478384984.26,2.915979,1.492561,-1.955394,0.195543,0.127342,-0.053631,0.017484,-0.996941,0.076174,-0.005338,0.011971,-0.033252,25.013428,-40.969177,9.968262,,,,,,
1478384984.28,2.919335,1.488351,-1.956179,0.206222,0.125402,-0.040797,0.018153,-0.996603,0.080326,-0.009394,-0.001718,-0.028416,23.963440,-40.743500,10.632080,,,,,,
1478384984.30,2.924068,1.484016,-1.958536,0.217998,0.109490,-0.036546,0.018705,-0.996237,0.084629,-0.008955,0.021048,-0.008137,23.963440,-40.743500,10.632080,,,,,,
1478384984.32,2.927047,1.479863,-1.959828,0.225574,0.073261,-0.034496,0.019333,-0.995868,0.088726,0.000579,0.014881,-0.014492,24.639435,-40.593735,10.413391,,,,,,
1478384984.34,2.934372,1.475774,-1.965775,0.239435,0.070150,-0.031274,0.019520,-0.995489,0.092849,-0.010686,-0.004542,-0.018661,24.789337,-40.518433,10.714661,,,,,,
1478384984.36,2.943596,1.472676,-1.973052,0.276557,0.119429,-0.026797,0.019270,-0.995190,0.096049,-0.006529,-0.002918,-0.042033,23.889435,-40.217606,11.529785,,,,,,
1478384984.38,2.949604,1.469241,-1.976390,0.323359,0.138852,-0.023456,0.019345,-0.994848,0.099518,-0.002468,-0.002574,-0.051819,24.713898,-40.367676,11.463501,,,,,,
1478384984.40,2.956438,1.464855,-1.980661,0.362810,0.126246,-0.019148,0.019467,-0.994393,0.103936,-0.003323,0.003625,-0.047722,24.713898,-40.367676,11.463501,,,,,,
1478384984.42,2.965399,1.459911,-1.986846,0.389340,0.158475,-0.009397,0.019397,-0.993858,0.108945,0.001935,0.007546,-0.057127,24.939087,-40.142151,11.990112,,,,,,
1478384984.44,2.975797,1.454464,-1.994080,0.423347,0.181051,-0.006070,0.019156,-0.993241,0.114479,0.000955,0.015305,-0.074257,23.962219,-40.366562,12.580933,,,,,,
1478384984.46,2.983451,1.449047,-1.997904,0.486165,0.195390,0.013309,0.019126,-0.992598,0.119933,0.012932,-0.034731,-0.071883,23.737579,-40.065887,13.252808,,,,,,
1478384984.48,2.996631,1.439534,-2.007376,0.578871,0.195702,0.002961,0.018907,-0.991397,0.129513,0.045104,-0.042233,-0.104367,24.638000,-39.915726,13.411377,,,,,,
1478384984.50,3.015461,1.426233,-2.022435,0.726923,0.207044,0.012866,0.018122,-0.989569,0.142915,-0.003154,-0.027719,-0.118440,24.638000,-39.915726,13.411377,,,,,,
1478384984.52,3.033785,1.411032,-2.036183,0.878048,0.250296,0.013249,0.017118,-0.987265,0.158162,-0.044583,-0.020212,-0.165197,24.187225,-39.839981,14.156616,,,,,,
1478384984.54,3.055028,1.390982,-2.052084,1.098486,0.288869,0.046859,0.015463,-0.983877,0.178177,-0.023855,-0.007227,-0.236862,23.660126,-39.763336,15.801086,,,,,,
1478384984.56,3.077335,1.365596,-2.069991,1.388626,0.194528,0.098389,0.013084,-0.979020,0.203343,-0.024605,-0.072753,-0.314671,24.336792,-39.162659,16.481079,,,,,,
1478384984.58,3.098533,1.335113,-2.088234,1.599597,0.191331,0.122252,0.010052,-0.972355,0.233291,-0.083919,-0.085415,-0.279296,24.185516,-39.011383,17.754089,,,,,,
1478384984.60,3.120564,1.302890,-2.104251,1.590341,0.443807,0.178489,0.005566,-0.964327,0.264654,-0.080609,-0.117444,-0.184652,24.185516,-39.011383,17.754089,,,,,,
1478384984.62,-3.135742,1.273640,-2.120808,1.344976,0.581289,0.240408,-0.001713,-0.956173,0.292798,-0.001674,-0.187061,-0.180173,24.036774,-38.335190,18.950623,,,,,,
1478384984.64,-3.112377,1.251489,-2.133536,0.938142,0.530177,0.197892,-0.009170,-0.949453,0.313775,0.112395,-0.093378,-0.219613,22.535706,-37.582214,21.933350,,,,,,
1478384984.66,-3.096663,1.239170,-2.141052,0.389848,0.376286,0.082193,-0.014623,-0.945514,0.325253,0.109716,-0.118069,-0.276638,22.760956,-37.281464,22.684631,,,,,,
1478384984.68,-3.090632,1.238821,-2.140362,-0.212117,0.333887,-0.063208,-0.016602,-0.945400,0.325488,0.101410,-0.121601,-0.289950,22.460388,-37.281082,23.056641,,,,,,
1478384984.70,-3.091390,1.250241,-2.132616,-0.761988,0.325896,-0.203081,-0.015812,-0.949060,0.314697,0.111836,-0.106069,-0.303360,22.460388,-37.281082,23.056641,,,,,,
1478384984.72,-3.099382,1.271579,-2.117592,-1.226592,0.316396,-0.317168,-0.012439,-0.955567,0.294510,0.109973,-0.152404,-0.326798,22.534576,-37.355789,23.357605,,,,,,
1478384984.74,-3.113421,1.300449,-2.096017,-1.530457,0.371164,-0.372036,-0.007523,-0.963678,0.266960,0.083039,-0.138311,-0.290184,21.633850,-37.580948,23.199341,,,,,,
1478384984.76,-3.132744,1.332874,-2.066018,-1.648339,0.558890,-0.431556,-0.002086,-0.971830,0.235674,0.036921,-0.077120,-0.304781,22.383118,-38.483185,20.959534,,,,,,
1478384984.78,3.123041,1.365701,-2.023996,-1.630892,0.749629,-0.459848,0.003778,-0.979042,0.203625,-0.019525,-0.062142,-0.312619,22.531403,-39.159088,20.062988,,,,,,
1478384984.80,3.086620,1.396738,-1.970001,-1.556701,0.872795,-0.445491,0.009515,-0.984890,0.172919,-0.044702,-0.044468,-0.267630,22.531403,-39.159088,20.062988,,,,,,
1478384984.82,3.035185,1.427281,-1.900320,-1.572603,0.864594,-0.412420,0.015190,-0.989719,0.142214,-0.021461,-0.030071,-0.135272,21.704102,-39.834534,19.606750,,,,,,
1478384984.84,2.955470,1.457750,-1.804051,-1.606192,0.732705,-0.365831,0.020875,-0.993617,0.110857,-0.028031,0.034450,-0.084383,21.778137,-40.285278,18.858887,,,,,,
1478384984.86,2.822601,1.487937,-1.658349,-1.661840,0.520014,-0.287449,0.025956,-0.996569,0.078589,-0.053620,0.047015,-0.065024,22.754730,-40.662445,16.694763,,,,,,
1478384984.88,2.550895,1.516265,-1.379082,-1.683194,0.243409,-0.210252,0.030356,-0.998514,0.045269,-0.080740,0.058755,-0.027462,22.602448,-41.488419,15.720703,,,,,,
1478384984.90,1.931360,1.535737,-0.757258,-1.614052,0.014904,-0.065455,0.032798,-0.999385,0.012366,-0.124519,0.067165,0.055550,22.602448,-41.488419,15.720703,,,,,,
1478384984.92,1.046472,1.533809,0.127242,-1.515417,-0.102304,0.096794,0.032012,-0.999316,-0.018513,-0.167586,0.067691,0.104603,21.928223,-41.639404,14.739441,,,,,,
1478384984.94,0.523366,1.515833,0.646446,-1.378159,-0.278488,0.312369,0.027457,-0.998490,-0.047582,-0.221198,0.152909,0.222799,22.454590,-41.941193,12.945557,,,,,,
1478384984.96,0.255314,1.497565,0.910197,-1.028828,-0.170490,0.489564,0.018478,-0.997320,-0.070795,-0.261352,0.260580,0.454614,22.304321,-42.542847,11.295898,,,,,,
1478384984.98,0.084603,1.484145,1.080413,-0.619180,0.022097,0.582691,0.007313,-0.996248,-0.086234,-0.387135,0.300447,0.658469,20.952240,-43.594574,9.560547,,,,,,
1478384985.00,-0.036747,1.479761,1.207562,0.046125,0.481872,0.541308,-0.003340,-0.995859,-0.090849,-0.490541,0.521051,0.842130,20.952240,-43.594574,9.560547,,,,,,
1478384985.02,-0.171889,1.490695,1.363214,0.951184,1.327630,0.667009,-0.013686,-0.996794,-0.078837,-0.479585,0.598478,0.964762,20.350311,-44.119888,9.256104,,,,,,
1478384985.04,-0.438339,1.518986,1.674100,2.069495,2.913322,0.405142,-0.021980,-0.998658,-0.046891,-0.405220,0.381486,1.020951,20.499420,-44.269730,9.407959,,,,,,
1478384985.06,-1.336074,1.550409,2.670943,1.967346,6.162668,-0.276298,-0.019827,-0.999792,-0.004741,0.041678,-0.794260,0.346462,19.445953,-44.493088,11.048157,,,,,,
1478384985.08,-2.573608,1.535548,-2.261017,1.908180,4.303714,0.272997,-0.018957,-0.999379,0.029708,0.903372,-1.381709,-0.371886,15.764832,-43.285416,18.732727,,,,,,
,,,,,,,,,,,,,,,,37.354412,-122.033551,36.523987,0.590000,54.140625,1478384985.00
1478384985.10,-2.597431,1.493223,-2.239791,1.615196,-2.267543,1.612375,-0.040120,-0.996993,0.066303,1.542271,0.180449,-0.416171,15.764832,-43.285416,18.732727,,,,,,
1478384985.12,-2.538734,1.450194,-2.345543,1.715160,-2.082174,1.198511,-0.068216,-0.992736,0.099102,0.830392,0.585815,0.591694,15.313782,-42.983765,20.377319,,,,,,
1478384985.14,-2.623692,1.415307,-2.295073,1.519332,-1.536613,0.389807,-0.076666,-0.987936,0.134555,-0.324121,0.145147,0.081220,14.487183,-43.133179,20.969482,,,,,,
1478384985.16,-2.692591,1.385478,-2.245939,1.522045,-0.728712,0.397377,-0.079981,-0.982878,0.165996,-0.730032,-0.188646,0.215794,14.863861,-42.532501,21.646484,,,,,,
1478384985.18,-2.701759,1.353521,-2.251476,1.375616,-0.680852,0.875907,-0.091787,-0.976488,0.195052,-0.385553,-0.076322,0.054856,14.041016,-41.556000,23.135315,,,,,,
1478384985.20,-2.706091,1.321997,-2.252926,1.426886,-0.202828,0.588837,-0.103880,-0.969209,0.223256,-0.081911,-0.055419,0.123088,14.041016,-41.556000,23.135315,,,,,,
1478384985.22,-2.717682,1.292932,-2.251335,1.281329,-0.658181,0.570236,-0.112828,-0.961643,0.250023,-0.102519,-0.047924,0.017585,14.189453,-41.404510,24.636353,,,,,,
1478384985.24,-2.733451,1.266534,-2.250924,1.176195,-0.786242,0.513075,-0.118909,-0.954068,0.274982,-0.085712,-0.040027,0.017987,14.039215,-41.178680,25.459167,,,,,,
1478384985.26,-2.746315,1.240981,-2.250795,1.191306,-0.529272,0.491371,-0.124710,-0.946102,0.298895,-0.090408,-0.046269,0.069834,14.041351,-40.503082,26.057129,,,,,,
1478384985.28,-2.754941,1.215280,-2.251431,1.184679,-0.443594,0.519374,-0.131255,-0.937467,0.322379,-0.007874,-0.177172,-0.061270,13.064850,-40.502045,27.097351,,,,,,
1478384985.30,-2.761854,1.188072,-2.255342,1.283348,-0.609794,0.600289,-0.138429,-0.927651,0.346845,0.159441,-0.279518,-0.310377,13.064850,-40.502045,27.097351,,,,,,
1478384985.32,-2.774846,1.155151,-2.257220,1.715477,-0.800764,0.647526,-0.144787,-0.914856,0.376928,0.274563,-0.252792,-0.626684,13.594238,-39.150925,28.223633,,,,,,
1478384985.34,-2.797756,1.110605,-2.251375,2.406167,-0.908849,0.674072,-0.149713,-0.895967,0.418125,0.322702,-0.324385,-0.851856,13.668945,-38.925095,29.048706,,,,,,
1478384985.36,-2.824667,1.050909,-2.242077,3.202393,-0.976525,0.834466,-0.154821,-0.867875,0.472042,0.429326,-0.444091,-1.043911,12.846649,-37.798447,30.687073,,,,,,
1478384985.38,-2.852660,0.974954,-2.236009,3.952556,-1.255777,1.074330,-0.159904,-0.827676,0.537944,0.588005,-0.477820,-1.338954,12.625244,-36.296356,32.780334,,,,,,
1478384985.40,-2.881992,0.884796,-2.235146,4.530963,-1.488392,1.252054,-0.162603,-0.773786,0.612222,0.583638,-0.798022,-1.331536,12.625244,-36.296356,32.780334,,,,,,
1478384985.42,-2.909838,0.785513,-2.236319,5.166517,-1.385269,1.200022,-0.162393,-0.707188,0.688123,0.339090,-1.463817,-1.247693,13.237885,-32.167389,36.749084,,,,,,
1478384985.44,-2.948469,0.690229,-2.236110,3.948937,-2.553121,0.829291,-0.147993,-0.636714,0.756765,-0.408846,-1.249471,-0.821676,14.072998,-29.089920,39.223297,,,,,,
1478384985.46,-3.006777,0.624855,-2.237708,3.041520,-2.738946,0.564370,-0.109011,-0.584979,0.803689,-0.432981,-1.289899,0.609885,14.685394,-25.788269,40.869446,,,,,,
1478384985.48,-3.026902,0.570793,-2.244305,2.281538,-0.301453,0.544276,-0.096297,-0.540299,0.835945,-0.492631,-0.437560,0.254692,17.544830,-23.763474,40.666962,,,,,,
1478384985.50,-3.017443,0.538412,-2.248712,1.176280,0.753576,0.325160,-0.106312,-0.512773,0.851916,-0.265514,-0.294676,0.301434,17.544830,-23.763474,40.666962,,,,,,
1478384985.52,-2.987122,0.539033,-2.257620,-1.202795,1.504421,0.319882,-0.132041,-0.513306,0.847987,-0.096841,-0.591491,-0.687327,18.377899,-21.813019,41.119446,,,,,,
1478384985.54,-2.955467,0.601539,-2.272863,-4.064245,0.736583,0.002949,-0.152570,-0.565912,0.810226,0.058911,-0.382682,-0.520294,16.655396,-21.062439,41.699982,,,,,,
1478384985.56,-2.939087,0.697667,-2.297627,-5.394449,-0.313296,0.073605,-0.154130,-0.642432,0.750683,0.077699,0.334265,-0.136441,16.345001,-23.914093,40.055389,,,,,,
1478384985.58,-2.930607,0.818330,-2.334186,-6.628998,-1.043537,-0.016025,-0.143129,-0.730006,0.668286,0.036302,0.669154,0.041187,17.383759,-27.366898,37.226135,,,,,,
1478384985.60,-2.918285,0.962164,-2.372098,-7.664892,-0.537116,-0.623298,-0.126617,-0.820431,0.557549,0.067168,0.595837,0.479865,17.383759,-27.366898,37.226135,,,,,,
1478384985.62,-2.865436,1.123637,-2.417504,-8.238770,1.521984,-0.925269,-0.117900,-0.901679,0.416022,0.022197,0.369178,1.278741,17.895508,-31.645950,33.194092,,,,,,
1478384985.64,-2.724602,1.280273,-2.515399,-7.859550,2.800820,-1.006566,-0.116017,-0.958094,0.261908,-0.117717,0.600352,1.057351,18.554810,-38.706650,22.496826,,,,,,
1478384985.66,-2.313928,1.423995,-2.875267,-8.070699,2.904423,-0.932927,-0.107710,-0.989244,0.098969,-0.191408,0.475481,1.149184,18.852448,-41.037033,17.106873,,,,,,
1478384985.68,-1.116757,1.467914,2.252576,-5.956124,1.974661,-0.815348,-0.092295,-0.994712,-0.045044,-0.342428,0.156852,1.295273,19.227844,-42.767502,11.640808,,,,,,
1478384985.70,-0.428554,1.410598,1.600422,-4.524024,2.294526,-1.284219,-0.066287,-0.987196,-0.145089,-0.223401,0.017378,0.336327,19.227844,-42.767502,11.640808,,,,,,
1478384985.72,-0.222506,1.373676,1.430432,-1.014626,2.272455,-0.387110,-0.043218,-0.980635,-0.191018,-0.582041,0.224150,1.266229,19.531158,-43.521988,7.146057,,,,,,
1478384985.74,-0.191678,1.383039,1.462379,1.518785,3.266197,0.451263,-0.035559,-0.982425,-0.183238,-0.648843,0.808719,1.410670,19.836792,-42.999176,4.972595,,,,,,
1478384985.76,-0.314668,1.431729,1.638636,3.274830,2.091129,1.048334,-0.042903,-0.990346,-0.131814,-0.474812,0.940617,1.464593,20.057617,-43.071609,7.525024,,,,,,
1478384985.78,-0.683238,1.476285,2.067235,2.261793,3.926124,0.793061,-0.059577,-0.995537,-0.073188,0.171409,-0.451530,0.040198,18.927612,-42.993027,11.113525,,,,,,
1478384985.80,-1.122546,1.499138,2.578178,2.397812,2.700080,0.755736,-0.064524,-0.997434,-0.031030,0.124109,-1.870700,-0.218208,18.927612,-42.993027,11.113525,,,,,,
1478384985.82,-1.744431,1.469838,-3.075201,2.482978,-0.879967,2.164900,-0.099272,-0.994908,0.017412,0.288938,0.242238,0.535307,17.197479,-42.839142,14.995728,,,,,,
1478384985.84,-2.021227,1.415383,-2.827301,2.191041,-1.648355,1.893036,-0.139349,-0.987948,0.067388,0.319785,0.583819,1.047313,15.470032,-42.386169,17.977051,,,,,,
1478384985.86,-2.184107,1.371015,-2.695711,1.971824,-1.540677,0.882224,-0.162286,-0.980110,0.114226,0.607888,0.137962,0.484208,13.519073,-41.708496,20.655518,,,,,,
1478384985.88,-2.285833,1.343809,-2.614395,1.372643,-0.669266,0.320520,-0.169923,-0.974349,0.147548,-0.132506,-0.109224,0.627354,13.520325,-41.032288,21.853577,,,,,,
1478384985.90,-2.375660,1.322419,-2.523498,1.527458,0.068385,0.027934,-0.170413,-0.969312,0.177180,-0.637540,-0.092364,0.065588,13.520325,-41.032288,21.853577,,,,,,
1478384985.92,-2.424882,1.295381,-2.480432,1.312122,-0.814843,0.837131,-0.178644,-0.962312,0.205040,-0.617483,-0.260008,-0.270134,12.920654,-40.505951,23.195923,,,,,,
1478384985.94,-2.447581,1.264570,-2.472700,1.259962,-0.522175,0.787629,-0.192824,-0.953478,0.231730,-0.114412,-0.089293,0.044042,12.845886,-40.054749,24.393860,,,,,,
1478384985.96,-2.479148,1.236751,-2.446950,1.386903,-0.379928,0.507246,-0.201653,-0.944724,0.258520,-0.128089,-0.367517,-0.303595,12.922150,-39.604218,24.918274,,,,,,
1478384985.98,-2.513132,1.203673,-2.422536,1.748482,-0.694868,0.828604,-0.211016,-0.933364,0.290352,0.364306,-0.637330,-0.836632,12.023071,-38.702133,27.006531,,,,,,
1478384986.00,-2.549995,1.155256,-2.409168,2.397881,-1.631672,1.349615,-0.225130,-0.914898,0.335078,0.575563,-0.628162,-1.175624,12.023071,-38.702133,27.006531,,,,,,
1478384986.02,-2.607350,1.091931,-2.393737,3.147195,-2.385689,1.419361,-0.234621,-0.887518,0.396566,0.642076,-0.425043,-1.100225,11.422852,-38.250641,28.499207,,,,,,
1478384986.04,-2.671328,1.013696,-2.371773,4.049306,-2.029773,1.364214,-0.239578,-0.848792,0.471333,0.727722,-0.285730,-1.139668,12.027222,-36.899521,29.626160,,,,,,
1478384986.06,-2.723777,0.922275,-2.338743,4.672920,-0.721015,0.942599,-0.245085,-0.796978,0.552050,0.752776,-0.509800,-1.462817,12.406769,-35.247574,31.575073,,,,,,
1478384986.08,-2.746159,0.832373,-2.314436,4.266599,-0.101885,1.265190,-0.259292,-0.739531,0.621177,0.618759,-1.335054,-1.470832,11.295685,-30.216736,37.398804,,,,,,
,,,,,,,,,,,,,,,,37.354425,-122.033536,36.552704,0.870000,58.710938,1478384986.00
1478384986.10,-2.774268,0.738058,-2.311097,4.420803,-2.095457,1.734354,-0.265669,-0.672853,0.690427,-0.040194,-0.590728,-0.652036,11.295685,-30.216736,37.398804,,,,,,
1478384986.12,-2.833600,0.655807,-2.307165,3.721376,-2.994655,0.823573,-0.240261,-0.609799,0.755262,-0.578679,-0.816089,0.232668,11.157288,-26.989792,39.337738,,,,,,
1478384986.14,-2.885796,0.587520,-2.286198,3.344169,-1.175612,-0.250117,-0.210590,-0.554299,0.805236,-0.769085,-0.870811,0.669770,13.493073,-24.213669,40.477783,,,,,,
1478384986.16,-2.888739,0.542333,-2.255704,1.051133,1.678420,-0.824272,-0.214271,-0.516136,0.829272,-0.944894,-1.566658,-1.096194,14.779541,-21.362762,41.382141,,,,,,
1478384986.18,-2.877418,0.576192,-2.244862,-2.406799,-0.013691,-0.968495,-0.218954,-0.544835,0.809453,-0.227701,-1.229427,-0.227757,13.661224,-19.411346,42.790070,,,,,,
1478384986.20,-2.897106,0.645927,-2.245050,-4.031672,-1.460157,-0.774437,-0.193293,-0.601939,0.774795,0.237925,-0.110952,-0.127654,13.661224,-19.411346,42.790070,,,,,,
1478384986.22,-2.927097,0.750084,-2.255591,-5.773191,-1.920868,-0.921903,-0.155731,-0.681700,0.714865,0.414871,0.060820,0.017724,15.155426,-21.288132,41.010651,,,,,,
1478384986.24,-2.958128,0.885753,-2.254756,-7.270454,-1.067566,-1.557872,-0.115429,-0.774392,0.622088,0.295925,0.192406,0.519223,16.718109,-24.965958,38.187317,,,,,,
1478384986.26,-2.931404,1.059218,-2.273443,-9.393282,1.592913,-0.612966,-0.102143,-0.871973,0.478780,0.308121,0.322840,1.548869,18.956116,-28.944901,34.246643,,,,,,
1478384986.28,-2.752659,1.228561,-2.419155,-8.413886,2.101359,0.729938,-0.127258,-0.942007,0.310530,0.190765,1.257131,1.263109,19.467133,-33.749969,29.166199,,,,,,
1478384986.30,-2.331148,1.376645,-2.837733,-9.671545,0.051464,0.141958,-0.139799,-0.981212,0.132966,0.296079,1.970363,1.193633,19.467133,-33.749969,29.166199,,,,,,
1478384986.32,-1.279874,1.429432,2.378410,-7.334276,0.373364,-0.528334,-0.134973,-0.990025,-0.040413,0.974573,1.128559,2.958962,17.426086,-41.562714,16.419189,,,,,,
1478384986.34,-0.609275,1.411909,1.743786,-2.902546,3.067180,-3.033622,-0.090545,-0.987404,-0.129750,0.031829,0.975029,1.512257,17.878479,-43.520218,8.929565,,,,,,
1478384986.36,0.028109,1.377785,1.210576,-2.513782,6.698463,-4.410837,0.005391,-0.981431,-0.191739,-1.131459,-0.581313,0.449750,19.231964,-43.823425,5.718994,,,,,,
1478384986.38,0.514016,1.373966,0.852096,1.717617,5.928154,-1.792234,0.096154,-0.980691,-0.170291,-1.289040,-0.286780,0.990710,21.113556,-42.172882,6.257874,,,,,,
1478384986.40,0.631096,1.444603,0.778154,3.542295,0.054285,3.039009,0.074260,-0.992048,-0.101616,-1.154659,0.854261,0.287224,21.113556,-42.172882,6.257874,,,,,,
1478384986.42,0.029297,1.497383,1.322808,1.338346,-4.753352,3.342477,0.002149,-0.997306,-0.073316,-0.029752,-2.852761,-0.794482,21.860443,-40.440613,13.535095,,,,,,
1478384986.44,-1.053623,1.505641,2.323560,2.352291,-4.055107,2.610018,-0.056594,-0.997878,-0.032192,0.845657,-0.528138,0.252757,19.753601,-42.091003,13.143982,,,,,,
1478384986.46,-1.781085,1.463541,3.004546,2.453984,-0.567451,1.983010,-0.104691,-0.994254,0.022346,0.249467,0.929877,1.672799,18.102386,-42.315857,13.278198,,,,,,
1478384986.48,-2.087911,1.425226,-2.932401,3.067817,1.971514,0.568992,-0.126090,-0.989423,0.071712,0.067817,1.028089,0.824116,16.749939,-42.314224,14.914734,,,,,,
1478384986.50,-2.388722,1.381666,-2.640746,2.595048,-1.926923,0.058648,-0.128546,-0.982168,0.137192,-0.363672,-0.221094,-0.243027,16.749939,-42.314224,14.914734,,,,,,
1478384986.52,-2.540090,1.353965,-2.546883,2.037743,-3.044790,0.360172,-0.121742,-0.976584,0.177377,-0.586678,-0.780771,0.527411,15.698853,-41.561234,17.901917,,,,,,
1478384986.54,-2.589401,1.314247,-2.526865,1.747388,-0.643923,0.886593,-0.133103,-0.967271,0.216032,-0.719894,0.091234,0.393373,17.350555,-40.433975,20.165039,,,,,,
1478384986.56,-2.618878,1.278596,-2.490948,1.757844,0.487556,0.376881,-0.143809,-0.957612,0.249594,-0.266362,0.206743,0.223993,16.600098,-40.132782,21.356628,,,,,,
1478384986.58,-2.638876,1.245038,-2.463975,1.600979,0.004785,0.567596,-0.154191,-0.947408,0.280432,0.146745,-0.291529,0.099649,16.526001,-39.456360,22.778870,,,,,,
1478384986.60,-2.660605,1.215250,-2.456537,1.225423,-1.144145,0.534935,-0.161052,-0.937456,0.308607,0.247859,-0.364622,-0.044813,16.526001,-39.456360,22.778870,,,,,,
1478384986.62,-2.700868,1.189034,-2.447722,1.353177,-1.820278,0.440345,-0.158930,-0.928010,0.336956,0.045771,-0.263412,-0.338207,16.075806,-39.004868,24.273010,,,,,,
1478384986.64,-2.754507,1.155552,-2.431616,1.848795,-1.954208,0.329723,-0.152285,-0.915018,0.373567,-0.058179,-0.353400,-0.921891,15.552521,-38.253754,25.390564,,,,,,
1478384986.66,-2.809218,1.110593,-2.410333,2.610741,-1.646685,0.465447,-0.144915,-0.895962,0.419823,0.111361,-0.460209,-1.209237,16.304413,-37.653229,25.921204,,,,,,
1478384986.68,-2.858222,1.045484,-2.395048,3.555026,-1.992235,0.722560,-0.140211,-0.865167,0.481483,0.426726,-0.441366,-1.753639,16.907898,-36.376724,27.423401,,,,,,
1478384986.70,-2.908711,0.960816,-2.389774,4.472966,-2.379380,1.078877,-0.132204,-0.819659,0.557388,0.598268,-0.667875,-1.836578,16.907898,-36.376724,27.423401,,,,,,
1478384986.72,-2.950019,0.859654,-2.387497,5.259309,-1.581633,0.796102,-0.124277,-0.757617,0.640759,0.723444,-0.958723,-1.690305,18.411591,-35.025131,29.009460,,,,,,
1478384986.74,-2.977532,0.753689,-2.381878,4.914903,-1.438816,0.888849,-0.119092,-0.684333,0.719378,-0.266680,-1.845391,-1.805011,18.267029,-33.072891,31.252136,,,,,,
1478384986.76,-3.047364,0.674293,-2.384786,3.473406,-4.269072,0.332592,-0.073497,-0.624345,0.777683,-1.157704,-1.433333,0.178036,20.163086,-26.768021,36.127136,,,,,,
1478384986.78,-3.097762,0.610448,-2.378754,3.085022,-1.017125,-0.131381,-0.035903,-0.573234,0.818605,-0.953355,-0.664772,0.222792,22.348633,-24.443085,36.067017,,,,,,
1478384986.80,-3.101464,0.554594,-2.368368,2.664669,0.975685,-0.492031,-0.034105,-0.526598,0.849430,-0.924880,-0.462492,0.044567,22.348633,-24.443085,36.067017,,,,,,
1478384986.82,-3.056569,0.560857,-2.356361,-2.194178,2.907388,-0.652228,-0.071912,-0.531912,0.843741,-1.019519,-1.925821,-1.273871,22.807983,-22.117325,36.814636,,,,,,
1478384986.84,-3.014464,0.628468,-2.339559,-3.747588,2.393477,-1.202308,-0.102561,-0.587906,0.802401,-0.343484,-0.730484,0.269513,21.387787,-20.615982,38.145996,,,,,,
1478384986.86,-2.987701,0.729051,-2.330113,-5.797524,0.970421,-0.970462,-0.114321,-0.666162,0.736993,0.052340,0.173913,-0.189813,19.123474,-24.066833,37.308655,,,,,,
1478384986.88,-2.977431,0.871676,-2.337380,-7.793113,0.110943,-0.921809,-0.105171,-0.765409,0.634893,0.017632,0.341336,0.364757,19.410309,-27.894516,34.623047,,,,,,
1478384986.90,-2.950738,1.053654,-2.353849,-9.791370,1.232416,-1.195716,-0.093787,-0.869235,0.485421,0.078986,0.342624,1.681693,19.410309,-27.894516,34.623047,,,,,,
1478384986.92,-2.826195,1.250965,-2.433549,-9.496570,3.226180,-0.628797,-0.097527,-0.949288,0.298898,0.163064,0.706613,1.832328,19.921692,-32.549454,29.692078,,,,,,
1478384986.94,-2.457395,1.415073,-2.747930,-9.193542,2.698935,-0.731220,-0.098028,-0.987900,0.120187,0.080205,1.380218,1.270118,19.158630,-37.505600,23.549377,,,,,,
1478384986.96,-0.911867,1.452383,2.004430,-9.262837,0.176889,0.143170,-0.093405,-0.992997,-0.072332,0.281973,0.726777,2.266897,18.779327,-40.511734,17.404541,,,,,,
1478384986.98,-0.466198,1.350968,1.536260,-4.460864,-0.967155,-0.381561,-0.098018,-0.975935,-0.194791,0.249308,0.601347,1.776243,18.486664,-43.525681,3.460632,,,,,,
1478384987.00,-0.244280,1.307203,1.331828,-2.831577,3.406380,-1.915908,-0.063016,-0.965460,-0.252816,-0.082537,0.140188,0.566964,18.486664,-43.525681,3.460632,,,,,,
1478384987.02,0.000471,1.291346,1.199927,0.726045,7.418874,-1.315322,0.000130,-0.961207,-0.275827,-0.445473,0.371577,2.054270,18.940704,-43.678818,0.315674,,,,,,
1478384987.04,0.233333,1.356434,1.096308,4.824902,5.272182,-0.513848,0.049186,-0.977112,-0.206960,-1.078148,1.173005,1.559957,21.046082,-42.478806,0.333130,,,,,,
1478384987.06,0.423575,1.442864,0.997247,2.793959,4.932955,1.199708,0.052440,-0.991828,-0.116309,-0.442821,-0.136331,-0.610666,22.315918,-41.873550,5.593994,,,,,,
1478384987.08,0.267779,1.489044,1.180743,2.337695,-0.884022,1.862430,0.021607,-0.996660,-0.078751,0.659195,-3.499891,-1.132477,19.000458,-42.239349,14.786987,,,,,,
1478384987.10,-1.082958,1.535703,2.486355,3.489222,-2.647526,2.966467,-0.030994,-0.999384,-0.016446,0.182407,0.110377,0.998211,19.000458,-42.239349,14.786987,,,,,,
,,,,,,,,,,,,,,,,37.354427,-122.033519,38.571777,3.210000,82.265625,1478384987.00
1478384987.12,-2.143870,1.470997,-2.755795,3.088402,0.319206,2.124535,-0.083716,-0.995024,0.054023,-0.082102,1.001021,1.903985,17.350647,-41.712875,16.268860,,,,,,
1478384987.14,-2.320639,1.418304,-2.563343,2.714735,-0.189366,1.206848,-0.111162,-0.988396,0.103525,0.296663,0.631325,0.816504,16.074066,-41.335709,18.429993,,,,,,
1478384987.16,-2.498952,1.358287,-2.417592,3.142797,-2.020904,0.684370,-0.126403,-0.977505,0.168839,0.261855,0.241406,0.831756,14.721985,-40.958176,20.965332,,,,,,
1478384987.18,-2.604491,1.324814,-2.330826,1.377910,-0.799164,-0.022635,-0.124591,-0.969899,0.209222,-0.079953,-0.535732,0.260352,14.049896,-39.154739,24.403198,,,,,,
1478384987.20,-2.673822,1.292305,-2.270236,1.793693,-0.422483,0.293241,-0.123954,-0.961471,0.245374,-0.481759,-0.397736,-0.114255,14.049896,-39.154739,24.403198,,,,,,
1478384987.22,-2.691034,1.255200,-2.270740,1.723625,-1.090491,1.118240,-0.135162,-0.950611,0.279408,-0.329956,-0.254024,-0.022832,15.026276,-38.478607,25.535950,,,,,,
1478384987.24,-2.699000,1.214395,-2.277418,1.764863,-0.507676,0.763062,-0.149430,-0.937158,0.315285,-0.093886,-0.024222,0.041160,14.576843,-38.027634,26.505066,,,,,,
1478384987.26,-2.723855,1.176958,-2.265226,1.882045,-0.919101,0.587981,-0.155679,-0.923443,0.350738,-0.024176,-0.297565,-0.394668,14.129883,-37.051743,27.397644,,,,,,
1478384987.28,-2.757249,1.133229,-2.257445,2.232525,-1.491897,0.766510,-0.158881,-0.905785,0.392823,0.252249,-0.565589,-0.796357,14.204926,-36.600403,28.747131,,,,,,
1478384987.30,-2.800593,1.078699,-2.244097,2.988832,-1.562655,0.592410,-0.158010,-0.881344,0.445270,0.203115,-0.603046,-1.284840,14.204926,-36.600403,28.747131,,,,,,
1478384987.32,-2.850143,1.005957,-2.216145,4.075361,-0.973786,0.417494,-0.153808,-0.844675,0.512707,0.320953,-0.909857,-1.871135,14.435547,-34.497849,31.293091,,,,,,
1478384987.34,-2.873492,0.914484,-2.196156,4.848344,-0.237021,1.018113,-0.161642,-0.792248,0.588400,0.779303,-1.314884,-2.013022,15.040619,-32.620605,33.543518,,,,,,
1478384987.36,-2.890243,0.805153,-2.198863,5.415089,-1.271367,1.617776,-0.172357,-0.720937,0.671225,1.040430,-0.858012,-2.020468,14.749115,-29.918137,36.007446,,,,,,
1478384987.38,-2.920819,0.695141,-2.199647,5.413425,-1.944489,1.190689,-0.168172,-0.640494,0.749324,0.171956,-1.163538,-0.912517,13.859497,-26.690384,38.763916,,,,,,
1478384987.40,-2.983960,0.598562,-2.200501,4.108651,-3.910013,0.623159,-0.129689,-0.563455,0.815904,-0.990916,-1.565222,-0.082612,13.859497,-26.690384,38.763916,,,,,,
1478384987.42,-3.039458,0.531710,-2.188605,2.925314,-1.153900,-0.364951,-0.087881,-0.507008,0.857450,-0.877573,-1.406398,0.494662,17.640533,-19.038116,41.028748,,,,,,
1478384987.44,-3.040837,0.488127,-2.170122,1.508823,1.239577,-0.640758,-0.088838,-0.468972,0.878734,-0.790297,-0.951316,0.420827,19.528015,-16.187881,41.264099,,,,,,
1478384987.46,-3.023147,0.510442,-2.164369,-2.310314,0.478740,-0.252041,-0.103106,-0.488563,0.866415,-0.788190,-1.372902,-0.845221,19.308868,-14.536835,42.306915,,,,,,
1478384987.48,-3.023218,0.579697,-2.168052,-4.163753,-0.237162,-0.288219,-0.098805,-0.547770,0.830774,-0.359783,-0.813512,0.189551,17.953339,-15.661545,42.596741,,,,,,
1478384987.50,-3.029759,0.693195,-2.176049,-6.646691,-0.657123,-0.374747,-0.085844,-0.638998,0.764403,-0.052034,0.020468,0.105928,17.953339,-15.661545,42.596741,,,,,,
1478384987.52,-3.024209,0.858676,-2.188419,-9.191838,0.308790,-0.547466,-0.076527,-0.756978,0.648943,0.066274,0.482671,0.489439,18.994537,-18.288544,40.590027,,,,,,
1478384987.54,-2.965162,1.050567,-2.221991,-9.498403,2.298051,-0.348074,-0.087246,-0.867705,0.489363,0.203197,0.793486,1.385118,19.708801,-28.495331,33.802795,,,,,,
1478384987.56,-2.845874,1.230037,-2.296738,-8.945148,2.317655,-0.755195,-0.097396,-0.942501,0.319696,0.098052,1.441830,1.715750,18.115997,-34.200592,28.554016,,,,,,
1478384987.58,-2.543510,1.406249,-2.582645,-9.852066,0.354201,-0.292068,-0.092232,-0.986493,0.135372,0.129937,1.303845,1.198079,18.106049,-38.331345,22.791260,,,,,,
1478384987.60,-1.028640,1.450224,2.153507,-9.371579,-1.629331,1.093329,-0.103032,-0.992740,-0.062063,0.403630,0.623538,2.228094,18.106049,-38.331345,22.791260,,,,,,
1478384987.62,-0.609416,1.356596,1.701989,-4.431155,-1.083461,-0.041923,-0.121671,-0.977147,-0.174301,0.708844,0.844792,2.155121,18.104431,-41.188843,15.299866,,,,,,
1478384987.64,-0.336440,1.305839,1.431037,-3.531561,1.237821,-2.436854,-0.086450,-0.965104,-0.247187,0.023706,0.498551,0.773020,17.585938,-44.126968,2.178467,,,,,,
1478384987.66,-0.090724,1.305919,1.239980,1.042988,4.695375,-1.889447,-0.023718,-0.965125,-0.260714,-0.595209,0.041144,2.027331,18.867401,-43.454269,-0.135742,,,,,,
1478384987.68,0.059809,1.372052,1.192191,4.534033,4.653296,0.195660,0.011802,-0.980315,-0.197086,-1.063071,0.875442,1.905444,21.344086,-42.251785,2.360413,,,,,,
1478384987.70,0.027908,1.436254,1.309897,0.861011,4.455191,1.194110,0.003743,-0.990963,-0.134084,-0.771062,0.978817,0.684667,21.344086,-42.251785,2.360413,,,,,,
1478384987.72,-0.244473,1.476862,1.598596,2.824218,-0.698528,1.329723,-0.022703,-0.995591,-0.091007,0.296034,-4.640502,-0.826229,21.112030,-42.021378,7.757446,,,,,,
1478384987.74,-1.311163,1.499334,2.609042,3.670904,-3.272190,2.688491,-0.069008,-0.997448,-0.018331,1.068276,-0.336140,0.108235,18.777161,-42.917511,11.636719,,,,,,
1478384987.76,-1.982018,1.437569,-3.012405,2.958069,1.146932,2.216480,-0.121760,-0.991138,0.053098,0.256831,0.717350,1.841372,16.749481,-42.313919,15.214722,,,,,,
1478384987.78,-2.212277,1.403687,-2.771862,2.325433,-0.780665,-0.386189,-0.133268,-0.986070,0.099531,-0.139437,1.518983,0.500796,14.420807,-42.236252,17.891174,,,,,,
1478384987.80,-2.527879,1.373895,-2.481792,3.327826,-1.329109,-0.873154,-0.112666,-0.980677,0.159932,-0.325902,0.242015,1.320460,14.420807,-42.236252,17.891174,,,,,,
1478384987.82,-2.638550,1.346177,-2.352454,1.484107,1.230681,-0.136382,-0.107379,-0.974879,0.195143,-0.501431,-0.720647,-0.268767,15.249023,-40.959518,19.620605,,,,,,
1478384987.84,-2.656225,1.306715,-2.315901,1.687922,0.660917,0.966085,-0.121776,-0.965333,0.230875,-0.534779,-0.602859,0.037756,16.225677,-39.832260,21.877014,,,,,,
1478384987.86,-2.643529,1.264466,-2.333425,1.810247,-0.759067,1.312834,-0.144064,-0.953447,0.264925,0.036505,-0.037734,-0.115008,14.502289,-38.479279,24.855713,,,,,,
1478384987.88,-2.661756,1.223703,-2.350518,1.589453,-2.096620,1.074786,-0.157032,-0.940365,0.301751,0.168629,0.011868,-0.049539,14.050812,-38.403091,26.050964,,,,,,
1478384987.90,-2.695648,1.191052,-2.348711,1.422370,-1.135910,0.439290,-0.159879,-0.928760,0.334431,0.238523,-0.082715,0.281764,14.050812,-38.403091,26.050964,,,,,,
1478384987.92,-2.733813,1.158566,-2.331062,1.776898,-1.393743,0.452019,-0.158888,-0.916230,0.367801,0.019163,-0.507721,-0.306171,14.577881,-37.802643,26.504395,,,,,,
1478384987.94,-2.788121,1.115805,-2.318325,2.420686,-2.449991,0.534639,-0.152120,-0.898265,0.412286,0.253652,-1.018026,-1.093255,14.129791,-37.051666,27.472656,,,,,,
1478384987.96,-2.859036,1.050948,-2.295061,3.824740,-2.491519,0.461109,-0.138500,-0.867894,0.477050,0.511516,-0.536357,-1.890640,16.083954,-35.474701,29.437500,,,,,,
1478384987.98,-2.926093,0.959070,-2.264814,5.101295,-1.712306,0.260336,-0.122802,-0.818658,0.560998,0.309325,-0.425971,-2.388330,16.841064,-33.222672,31.463318,,,,,,
1478384988.00,-2.974057,0.851397,-2.236959,5.572511,-1.227578,0.135347,-0.109879,-0.752202,0.649707,0.585495,-1.246395,-2.157703,16.841064,-33.222672,31.463318,,,,,,
1478384988.02,-3.011281,0.738202,-2.219768,5.624233,-1.291649,0.383135,-0.096116,-0.672959,0.733409,0.685197,-1.231445,-1.614131,17.898682,-30.444458,34.690552,,,,,,
1478384988.04,-3.047854,0.646978,-2.223319,3.834451,-2.706414,0.781062,-0.074685,-0.602778,0.794406,0.199258,-1.395391,-0.929294,17.911652,-26.691849,37.304443,,,,,,
1478384988.06,-3.122634,0.574826,-2.226605,3.406744,-3.653240,-0.181730,-0.015911,-0.543689,0.839136,-0.900593,-1.166593,0.334234,19.203552,-22.490479,38.654755,,,,,,
1478384988.08,3.110596,0.522536,-2.201567,2.167121,-0.756672,-1.453752,0.026856,-0.499079,0.866140,-1.374589,-1.287542,0.483195,23.953339,-17.090836,38.311035,,,,,,
1478384988.10,3.129869,0.504020,-2.176618,-0.504282,2.518909,-0.567940,0.010265,-0.482950,0.875588,-1.092144,-0.939841,0.161110,23.953339,-17.090836,38.311035,,,,,,
,,,,,,,,,,,,,,,,37.354427,-122.033499,38.574554,3.210000,86.484375,1478384988.00
1478384988.12,-3.096390,0.549479,-2.183291,-2.877537,2.655521,0.530919,-0.038536,-0.522243,0.851926,-0.390679,-1.020421,0.137500,23.283020,-15.664642,39.500031,,,,,,
1478384988.14,-3.045957,0.623460,-2.207101,-4.498619,1.064934,0.807923,-0.077525,-0.583847,0.808154,0.000285,-0.303176,0.067197,22.376923,-16.864197,39.944580,,,,,,
1478384988.16,-3.033622,0.742457,-2.247147,-6.999493,-1.598388,0.977878,-0.079399,-0.676100,0.732519,0.120858,0.246596,-0.272573,20.039795,-19.714661,39.479736,,,,,,
1478384988.18,-3.043247,0.906168,-2.303402,-9.077927,-2.830884,1.091604,-0.060558,-0.787146,0.613786,0.190563,0.428977,0.267058,20.754852,-30.072418,31.718018,,,,,,
1478384988.20,-3.017662,1.097428,-2.386009,-9.938986,-1.677676,1.242857,-0.056354,-0.890038,0.452390,0.379398,0.626854,1.379748,20.754852,-30.072418,31.718018,,,,,,
1478384988.22,-2.875450,1.281349,-2.547221,-9.405535,0.306530,1.114622,-0.075069,-0.958402,0.275374,0.325298,1.212110,1.688112,21.040253,-35.704605,24.537781,,,,,,
1478384988.24,-2.250322,1.436769,3.120686,-9.998574,1.410024,1.576048,-0.103944,-0.991032,0.083974,0.170824,1.355503,1.820719,21.033142,-39.912476,16.675293,,,,,,
1478384988.26,-0.942457,1.399861,1.846481,-7.301807,2.824093,1.461760,-0.137615,-0.985426,-0.099988,0.221951,0.922972,3.086758,20.133514,-42.395187,8.948730,,,,,,
1478384988.28,-0.574566,1.345464,1.546983,-2.571375,4.250633,-1.367021,-0.121428,-0.974720,-0.187554,-0.162493,1.183079,1.920296,18.113373,-43.677261,1.882385,,,,,,
1478384988.30,-0.168361,1.317115,1.253273,-2.519425,6.698185,-3.289768,-0.042054,-0.967995,-0.247421,-0.398894,-0.192558,0.117278,18.113373,-43.677261,1.882385,,,,,,
1478384988.32,0.147643,1.327635,1.082732,1.585200,7.843635,-0.784711,0.035419,-0.970582,-0.238153,-0.224018,-0.299880,2.136026,20.896088,-42.704483,-0.342712,,,,,,
1478384988.34,0.211141,1.398487,1.133887,4.270156,4.119564,2.047446,0.035933,-0.985191,-0.167650,-0.693984,0.860039,1.446199,22.770294,-41.650787,3.347900,,,,,,
1478384988.36,0.060671,1.487379,1.362426,2.453526,5.226510,1.394524,0.005052,-0.996523,-0.083168,-0.649705,0.709627,1.258415,21.186432,-41.720108,9.032227,,,,,,
1478384988.38,0.335329,1.525403,1.165339,2.811580,2.889349,-0.696842,0.014933,-0.998970,-0.042851,0.338750,-3.429344,0.730122,17.874023,-42.689743,14.402039,,,,,,
1478384988.40,2.088469,1.554709,-0.621487,2.512935,-3.980692,1.180189,0.013979,-0.999871,0.007961,0.597807,-0.349785,0.170704,17.874023,-42.689743,14.402039,,,,,,
1478384988.42,-2.280464,1.478812,-2.581361,2.833076,-1.252541,5.237572,-0.069679,-0.995772,0.059851,2.063820,-0.159043,1.807489,18.479767,-40.135925,18.225464,,,,,,
1478384988.44,-2.284799,1.398287,-2.616232,2.020924,-2.796082,1.700777,-0.129728,-0.985157,0.112411,1.052472,0.908329,0.058091,15.547058,-41.409592,19.549866,,,,,,
1478384988.46,-2.491572,1.378930,-2.458997,1.819277,-1.796975,-1.245671,-0.115407,-0.981650,0.151804,0.063527,0.541937,0.730306,14.345947,-41.183182,20.962219,,,,,,
1478384988.48,-2.701009,1.356277,-2.230382,2.169345,1.933819,-1.249757,-0.090785,-0.977079,0.192549,-0.661000,-0.154727,0.619387,14.948120,-40.432358,21.791016,,,,,,
1478384988.50,-2.775275,1.326194,-2.138542,1.668597,-0.542075,0.406095,-0.086741,-0.970234,0.226103,-1.684378,-0.814282,-0.505995,14.948120,-40.432358,21.791016,,,,,,
1478384988.52,-2.726891,1.286030,-2.213956,1.409960,-1.091026,2.135118,-0.113193,-0.959727,0.257121,-0.605633,-0.309392,0.083227,16.076813,-38.930313,23.822815,,,,,,
1478384988.54,-2.665276,1.240041,-2.305256,1.527445,-1.514266,2.132021,-0.148904,-0.945797,0.288609,-0.091467,-0.025074,0.175167,15.328918,-37.803299,25.836853,,,,,,
1478384988.56,-2.665146,1.198956,-2.339034,1.616863,-1.388062,0.967944,-0.166632,-0.931660,0.322866,0.372565,-0.266765,-0.366247,13.602325,-37.877502,26.644836,,,,,,
1478384988.58,-2.704211,1.159734,-2.322113,2.112024,-1.443530,0.726121,-0.169251,-0.916697,0.361968,0.603150,-0.843496,-0.887649,13.452026,-37.651596,27.542725,,,,,,
1478384988.60,-2.753113,1.104620,-2.322626,2.812031,-2.911433,1.168832,-0.170252,-0.893293,0.415982,0.529597,-0.487779,-1.376629,13.452026,-37.651596,27.542725,,,,,,
1478384988.62,-2.820545,1.032293,-2.320500,3.760713,-3.380690,1.252529,-0.161836,-0.858477,0.486647,0.621629,-0.203458,-1.559874,13.829926,-36.600403,28.743347,,,,,,
1478384988.64,-2.883569,0.941170,-2.318720,4.752579,-2.765830,1.228167,-0.150255,-0.808248,0.569350,0.749254,-0.366298,-1.796401,15.638153,-33.972992,31.153503,,,,,,
1478384988.66,-2.922202,0.831138,-2.318384,5.682617,-1.449286,1.272938,-0.146694,-0.738699,0.657879,0.969905,-0.728495,-1.925228,16.245544,-31.570740,33.402344,,,,,,
1478384988.68,-2.951163,0.713366,-2.321273,5.591940,-1.962423,1.491464,-0.143127,-0.654382,0.742495,0.640564,-1.206320,-1.762239,17.081024,-28.343048,36.101013,,,,,,
1478384988.70,-3.011282,0.619053,-2.340314,3.819261,-4.647378,1.320731,-0.105829,-0.580264,0.807523,-0.447668,-1.693448,-0.850492,17.081024,-28.343048,36.101013,,,,,,
1478384988.72,-3.090356,0.555410,-2.334660,2.899572,-2.339072,-0.967354,-0.043516,-0.527292,0.848569,-1.444033,-1.459311,0.474078,18.070312,-24.516083,38.049500,,,,,,
1478384988.74,-3.104487,0.503746,-2.286458,2.774318,1.873958,-2.169710,-0.032489,-0.482709,0.875178,-1.546948,-0.905978,0.996832,20.256439,-22.041077,38.063965,,,,,,
1478384988.76,-3.045906,0.496748,-2.258544,-1.422697,4.192418,-0.623558,-0.083993,-0.476569,0.875115,-1.114020,-1.240991,-0.804421,21.175629,-17.088974,40.158234,,,,,,
1478384988.78,-2.968808,0.552820,-2.254785,-3.246606,3.549786,-0.699015,-0.146318,-0.525089,0.838375,-0.459471,-1.364819,0.439106,18.545898,-17.838104,41.034210,,,,,,
1478384988.80,-2.932018,0.646301,-2.257982,-5.579497,0.248983,-0.705743,-0.166085,-0.602237,0.780850,0.151802,-0.322140,-0.152401,18.545898,-17.838104,41.034210,,,,,,
1478384988.82,-2.969799,0.784248,-2.283037,-7.663172,-4.467042,-0.274672,-0.121019,-0.706293,0.697499,0.257265,0.072092,-0.183445,16.360016,-20.313278,40.869751,,,,,,
1478384988.84,-3.044446,0.952628,-2.317979,-8.964588,-3.908435,0.441512,-0.056212,-0.814941,0.576811,0.950240,0.160446,0.664644,16.945251,-24.440811,38.338013,,,,,,
1478384988.86,-2.981324,1.141435,-2.415852,-9.994590,0.082950,1.332148,-0.066433,-0.909232,0.410955,1.892086,0.566809,2.086573,21.641632,-35.254150,24.992432,,,,,,
1478384988.88,-2.744522,1.333460,-2.639519,-10.257984,1.533807,0.755528,-0.090923,-0.971968,0.216822,0.650081,1.180922,1.640493,20.583710,-39.386276,17.869263,,,,,,
1478384988.90,-1.631841,1.463702,2.545234,-10.593796,1.171178,0.518893,-0.106691,-0.994271,0.006521,0.239198,1.303307,1.959406,20.583710,-39.386276,17.869263,,,,,,
1478384988.92,-0.516192,1.379420,1.434563,-6.297022,0.299748,-1.680184,-0.093883,-0.981743,-0.165427,-0.250356,1.210824,2.853080,20.132965,-42.319595,9.548523,,,,,,
1478384988.94,-0.155661,1.334545,1.083258,-2.058960,1.861268,-2.973059,-0.036287,-0.972222,-0.231230,-0.536635,0.926156,1.717497,19.015381,-43.302475,1.665344,,,,,,
1478384988.96,0.142165,1.287993,0.889904,-2.007489,6.839137,-1.933591,0.039538,-0.960277,-0.276234,-0.841936,-0.346242,0.510609,21.052277,-42.106812,-2.667908,,,,,,
1478384988.98,0.321896,1.306601,0.832963,2.395959,5.100017,0.373872,0.082613,-0.965303,-0.247720,-0.826266,-0.226454,1.926187,25.858643,-39.854294,-0.151611,,,,,,
1478384989.00,0.363837,1.377407,0.852792,3.394114,2.581084,1.978792,0.068392,-0.981358,-0.179606,-0.987459,0.976094,1.668574,25.858643,-39.854294,-0.151611,,,,,,
1478384989.02,0.289736,1.431595,0.994829,0.855502,3.342349,1.466832,0.039641,-0.990327,-0.132969,-0.178908,-0.164260,-0.850933,25.100555,-40.225021,4.116943,,,,,,
1478384989.04,0.298845,1.475184,1.018427,2.347273,0.534672,0.634745,0.028107,-0.995433,-0.091235,0.876465,-2.774480,-0.015439,22.388763,-41.345551,8.593201,,,,,,
1478384989.06,-0.251215,1.536538,1.521745,2.932501,-3.026733,2.376042,-0.008514,-0.999413,-0.033176,0.582382,0.035149,0.792271,21.785522,-41.343384,10.762146,,,,,,
1478384989.08,-1.831730,1.492378,3.063635,2.560343,-1.331287,3.636523,-0.075687,-0.996927,0.020210,1.223483,0.314615,1.523186,19.380096,-41.640625,13.513916,,,,,,
1478384989.10,-2.142608,1.435554,-2.940181,2.261418,-2.162866,0.759660,-0.113381,-0.990869,0.072964,0.750756,0.878762,0.004169,19.380096,-41.640625,13.513916,,,,,,
,,,,,,,,,,,,,,,,37.354430,-122.033470,38.400299,3.210000,90.351562,1478384989.00
1478384989.12,-2.436131,1.422380,-2.669961,1.898162,-0.253789,-1.445218,-0.095878,-0.989007,0.112577,-0.174477,0.350579,0.684710,16.675415,-42.088852,15.288269,,,,,,
1478384989.14,-2.710555,1.402253,-2.348825,2.277177,3.079842,-1.474920,-0.070087,-0.985830,0.152403,-0.887784,-0.239725,0.596773,17.425964,-41.637878,16.269409,,,,,,
1478384989.16,-2.794970,1.368925,-2.231368,1.788733,0.307360,0.628875,-0.068116,-0.979693,0.188578,-1.466659,-0.708051,-0.479106,19.078094,-40.360458,18.682129,,,,,,
1478384989.18,-2.717620,1.323119,-2.319574,1.786860,-0.678223,2.181783,-0.100852,-0.969484,0.223448,-0.172921,-0.201551,0.043307,17.428345,-39.157028,22.112000,,,,,,
1478384989.20,-2.665552,1.272471,-2.400965,1.738309,-1.654053,1.798656,-0.134693,-0.955830,0.261241,0.182956,-0.171199,-0.012827,17.428345,-39.157028,22.112000,,,,,,
1478384989.22,-2.691350,1.234187,-2.404664,1.721926,-1.202275,0.408785,-0.143736,-0.943880,0.297372,0.559706,-0.367002,-0.090982,15.776337,-39.155701,23.445435,,,,,,
1478384989.24,-2.739633,1.194080,-2.378441,2.207089,-1.535251,0.700392,-0.143919,-0.929878,0.338548,0.492033,-0.519158,-0.754411,16.152588,-38.705170,23.972839,,,,,,
1478384989.26,-2.792133,1.142601,-2.378471,2.572622,-3.122497,0.905004,-0.142171,-0.909716,0.390133,0.093663,-0.355161,-1.190990,16.153931,-37.953827,25.320679,,,,,,
1478384989.28,-2.860445,1.081211,-2.373368,3.171386,-3.173219,0.849280,-0.130477,-0.882528,0.451796,0.298706,-0.124689,-0.964080,16.904633,-37.502914,26.226746,,,,,,
1478384989.30,-2.928151,1.007400,-2.370304,3.901372,-3.288672,0.782921,-0.113127,-0.845446,0.521942,0.484511,-0.251966,-1.193451,16.904633,-37.502914,26.226746,,,,,,
1478384989.32,-2.990896,0.917708,-2.366919,4.759034,-2.705914,0.703748,-0.091223,-0.794211,0.600756,0.770987,-0.651697,-1.739672,18.637512,-34.950500,28.636475,,,,,,
1478384989.34,-3.040053,0.809263,-2.369060,5.615634,-2.668835,0.860262,-0.069945,-0.723779,0.686478,0.625060,-0.974021,-2.294495,20.519470,-32.848846,30.299011,,,,,,
1478384989.36,-3.081702,0.690935,-2.388492,5.872288,-2.758485,1.314541,-0.046128,-0.637258,0.769269,-0.184952,-1.379069,-1.184018,21.653717,-30.071671,32.477051,,,,,,
1478384989.38,3.139976,0.611939,-2.406862,2.755571,-4.257880,0.403246,0.001323,-0.574456,0.818534,-1.137843,-1.729896,-0.751884,22.867340,-26.469940,34.203308,,,,,,
1478384989.40,3.079349,0.562293,-2.400835,2.401831,-1.118274,-0.631513,0.052627,-0.533128,0.844396,-1.397262,-1.265517,0.701014,22.867340,-26.469940,34.203308,,,,,,
1478384989.42,3.084919,0.518569,-2.387228,2.048168,1.424543,-0.797149,0.049196,-0.495638,0.867135,-1.238344,-0.480894,0.613319,26.636200,-22.345139,34.003662,,,,,,
1478384989.44,3.133899,0.519933,-2.382216,-1.497231,2.871970,0.076771,0.006677,-0.496822,0.867827,-0.946908,-1.150578,-0.729429,26.492706,-20.393631,35.496399,,,,,,
1478384989.46,-3.098102,0.573626,-2.381290,-3.153896,2.400977,-0.332339,-0.036518,-0.542681,0.839145,-0.344448,-1.134169,0.059201,24.614014,-20.842545,36.603882,,,,,,
1478384989.48,-3.062845,0.659700,-2.370656,-5.098617,1.670100,-0.878355,-0.062160,-0.612880,0.787728,-0.072209,-0.238210,0.067344,22.430969,-22.642548,36.587463,,,,,,
1478384989.50,-3.054156,0.793066,-2.359570,-7.514991,0.400381,-1.005714,-0.061273,-0.712508,0.698984,-0.012442,0.173842,0.245901,22.430969,-22.642548,36.587463,,,,,,
1478384989.52,-3.047639,0.965529,-2.356129,-9.075428,0.790304,-0.750935,-0.053380,-0.822350,0.566472,0.104420,0.305505,0.888682,21.371643,-25.193985,35.159546,,,,,,
1478384989.54,-2.981432,1.155933,-2.390813,-9.734998,2.157623,-0.078289,-0.064279,-0.915171,0.397907,0.281107,0.572520,1.793713,22.469299,-34.127563,26.572327,,,,,,
1478384989.56,-2.792187,1.333583,-2.556051,-9.081278,0.892628,0.481359,-0.080448,-0.971997,0.220796,0.377811,0.979504,1.392089,22.087189,-37.808868,20.279480,,,,,,
1478384989.58,-1.883019,1.472349,2.793940,-10.006685,-1.627310,0.906596,-0.093537,-0.995158,0.030192,0.548981,1.229289,1.543340,20.732452,-41.040390,13.750671,,,,,,
1478384989.60,-0.763588,1.403091,1.644718,-5.841741,-0.262728,0.836396,-0.115428,-0.985970,-0.120576,1.164333,0.666314,2.867524,20.732452,-41.040390,13.750671,,,,,,
1478384989.62,-0.445233,1.344630,1.353737,-3.359107,3.338095,-1.599272,-0.096574,-0.974533,-0.202382,0.133287,0.753952,1.305165,20.813110,-42.774384,4.756714,,,,,,
1478384989.64,-0.066701,1.319432,1.076678,-0.411545,6.813913,-3.300469,-0.016578,-0.968574,-0.248172,-0.605782,-0.185036,1.638477,21.200897,-42.557266,-3.115051,,,,,,
1478384989.66,0.294798,1.349037,0.859148,2.753970,6.930945,-1.282801,0.063905,-0.975512,-0.210458,-0.953355,0.184893,1.664697,23.603973,-40.979538,-0.395752,,,,,,
1478384989.68,0.445187,1.426805,0.808268,3.677637,4.279179,2.176405,0.061793,-0.989651,-0.129508,-1.363901,0.835568,1.804206,25.022644,-40.448746,5.391846,,,,,,
1478384989.70,0.135298,1.491129,1.158994,2.790637,-0.342802,3.048938,0.010735,-0.996828,-0.078855,-0.478127,-2.124342,-0.095873,25.022644,-40.448746,5.391846,,,,,,
1478384989.72,-0.992225,1.539302,2.233125,3.235261,-4.020595,1.080108,-0.026364,-0.999504,-0.017219,1.374936,-1.173424,-0.276665,23.662781,-40.968735,10.404785,,,,,,
1478384989.74,-2.248495,1.492381,-2.835972,3.268612,-0.237201,2.360927,-0.061024,-0.996927,0.049116,1.018681,0.003931,2.120287,20.954742,-42.091736,12.406006,,,,,,
1478384989.76,-2.354213,1.419576,-2.721159,2.553029,-0.210073,1.907815,-0.106732,-0.988588,0.106310,0.302655,0.916414,0.747572,18.701843,-41.488007,16.131653,,,,,,
1478384989.78,-2.488168,1.379922,-2.625719,1.900113,-2.485618,-0.069752,-0.115331,-0.981839,0.150637,0.048757,0.679211,0.559171,17.724609,-41.411301,17.846741,,,,,,
1478384989.80,-2.674225,1.357923,-2.460000,1.754247,-0.027704,-1.064356,-0.095185,-0.977428,0.188613,-0.320419,-0.132054,0.663270,17.724609,-41.411301,17.846741,,,,,,
1478384989.82,-2.786942,1.332897,-2.313213,1.761412,1.817072,-0.819942,-0.081837,-0.971835,0.220996,-0.882656,-0.633573,0.169781,18.551636,-40.660385,18.752747,,,,,,
1478384989.84,-2.802889,1.302826,-2.288313,1.465779,-0.484537,0.890167,-0.087976,-0.964310,0.249732,-0.830298,-0.506607,-0.529563,19.229004,-39.608810,20.331299,,,,,,
1478384989.86,-2.779012,1.265833,-2.331600,1.566124,-1.028186,1.263862,-0.106498,-0.953858,0.280737,-0.016442,-0.122573,-0.244650,17.954163,-38.706207,22.940857,,,,,,
1478384989.88,-2.777768,1.228847,-2.353424,1.664877,-0.845078,0.750627,-0.119325,-0.942103,0.313375,0.171022,-0.103552,-0.269353,18.480927,-37.955154,23.993896,,,,,,
1478384989.90,-2.800480,1.191548,-2.340491,1.933628,-0.479860,0.332209,-0.123853,-0.928943,0.348891,0.249112,-0.303326,-0.320556,18.480927,-37.955154,23.993896,,,,,,
1478384989.92,-2.836785,1.147450,-2.324898,2.359150,-1.561203,0.436817,-0.123289,-0.911719,0.391877,0.276579,-0.718499,-0.947297,18.180939,-37.654251,24.890015,,,,,,
1478384989.94,-2.893371,1.090703,-2.310150,3.122709,-2.429146,0.523368,-0.113470,-0.886952,0.447706,0.493582,-0.315090,-1.461256,18.107758,-36.827988,26.161804,,,,,,
1478384989.96,-2.949860,1.017402,-2.304406,3.905463,-2.590206,0.731561,-0.100154,-0.850746,0.515947,0.313869,-0.127923,-1.644746,19.614868,-34.350266,28.869446,,,,,,
1478384989.98,-2.994903,0.928496,-2.306376,4.665786,-2.117449,0.853847,-0.087558,-0.800720,0.592606,0.476016,-0.442734,-1.723801,20.520905,-32.548920,30.223083,,,,,,
1478384990.00,-3.023757,0.829757,-2.317543,4.861420,-1.901837,1.065260,-0.079361,-0.737768,0.670374,0.652497,-0.853205,-1.659906,20.520905,-32.548920,30.223083,,,,,,
1478384990.02,-3.062436,0.732702,-2.335873,4.684311,-3.061800,1.208135,-0.058781,-0.668881,0.741042,0.470356,-0.942936,-0.880462,20.978943,-29.921371,32.769775,,,,,,
1478384990.04,-3.114771,0.648586,-2.359160,3.685395,-3.581218,1.006242,-0.021373,-0.604060,0.796652,-0.017385,-0.935918,-0.648993,21.287720,-27.369568,34.565186,,,,,,
1478384990.06,3.095246,0.592320,-2.369133,2.329422,-3.566343,-0.271772,0.038438,-0.558287,0.828757,-1.463044,-1.744004,0.001901,23.022522,-24.968887,35.250366,,,,,,
1478384990.08,3.061388,0.543457,-2.334224,2.771522,0.760560,-2.212177,0.068576,-0.517098,0.853175,-1.692157,-1.087684,1.132421,27.692963,-20.694687,34.459290,,,,,,
1478384990.10,3.090368,0.503854,-2.301465,0.104846,2.876219,-0.701315,0.044839,-0.482804,0.874580,-1.463632,-0.741073,-0.882331,27.692963,-20.694687,34.459290,,,,,,
1478384990.12,-3.135338,0.536150,-2.303794,-2.192634,2.611104,0.332465,-0.005377,-0.510830,0.859665,-0.391550,-1.260944,0.058197,27.253387,-17.767883,36.246033,,,,,,
,,,,,,,,,,,,,,,,37.354432,-122.033442,39.825806,3.600000,97.031250,1478384990.00
1478384990.14,-3.099459,0.594781,-2.307549,-3.539127,1.066873,-0.150642,-0.034887,-0.560327,0.827536,-0.009516,-0.499854,0.058297,24.622925,-18.516495,37.647034,,,,,,
1478384990.16,-3.109875,0.690157,-2.301095,-5.433144,-1.125664,-0.600158,-0.024455,-0.636658,0.770758,0.151164,0.002671,-0.111274,23.863922,-20.541565,37.570496,,,,,,
1478384990.18,3.123731,0.815208,-2.279323,-6.758742,-1.823030,-0.946278,0.012248,-0.727868,0.685608,0.219961,0.129968,0.230225,25.718964,-26.997604,31.533386,,,,,,
1478384990.20,3.086890,0.969927,-2.249771,-8.314493,0.293679,-0.229455,0.030911,-0.824844,0.564514,0.388522,0.249924,0.969116,25.718964,-26.997604,31.533386,,,,,,
1478384990.22,3.127007,1.143895,-2.252384,-8.827680,2.573691,0.611430,0.006039,-0.910253,0.414008,0.402424,0.518667,1.410455,25.708435,-30.751862,27.269592,,,,,,
1478384990.24,-3.049543,1.319457,-2.303623,-8.800487,2.922538,0.327168,-0.022861,-0.968580,0.247649,0.175342,0.914732,1.104295,24.946930,-34.881592,22.549316,,,,,,
1478384990.26,-2.762942,1.495096,-2.535393,-8.919631,2.802133,-0.513150,-0.027957,-0.997136,0.070271,0.002796,0.970754,1.366161,24.038818,-38.486984,17.151062,,,,,,
1478384990.28,-0.129136,1.479716,1.165026,-7.107250,2.533774,-0.853699,-0.011713,-0.995855,-0.090197,-0.166250,0.424871,2.246096,23.438568,-40.442688,11.450989,,,,,,
1478384990.30,0.036875,1.373161,1.032688,-4.467821,1.138725,-0.545239,0.007239,-0.980534,-0.196217,-0.215750,0.564671,1.308354,23.438568,-40.442688,11.450989,,,,,,
1478384990.32,0.059528,1.310647,1.033095,-2.231005,1.510872,0.072950,0.015303,-0.966352,-0.256770,-0.219694,0.427884,1.342631,23.896393,-41.651535,2.609131,,,,,,
1478384990.34,0.096141,1.301752,1.042134,0.634192,2.617533,0.077774,0.025516,-0.964025,-0.264583,-0.492969,0.096945,1.785442,24.350311,-41.428482,0.663025,,,,,,
1478384990.36,0.139299,1.352325,1.046483,3.522560,2.114614,0.667979,0.030094,-0.976230,-0.214638,-0.679798,0.612857,1.624382,24.275299,-41.278030,1.111877,,,,,,
1478384990.38,0.090342,1.424458,1.152548,2.520792,3.921494,1.449018,0.013156,-0.989312,-0.145222,-0.246096,0.576088,1.061421,23.969604,-41.349426,4.708984,,,,,,
1478384990.40,0.124161,1.484821,1.201249,3.839019,3.273503,0.391791,0.010634,-0.996306,-0.085208,0.549165,-3.098115,0.313235,23.969604,-41.349426,4.708984,,,,,,
1478384990.42,-1.476273,1.556985,2.792439,4.106635,-2.331505,1.867287,-0.013749,-0.999905,-0.001304,0.612474,-0.346287,-0.100015,20.731079,-41.490845,13.302002,,,,,,
1478384990.44,-2.492246,1.467771,-2.528128,3.748421,-2.135008,2.794595,-0.062186,-0.994698,0.081913,0.102835,0.304054,1.310543,20.130981,-40.512848,16.293030,,,,,,
1478384990.46,-2.422951,1.413167,-2.624536,1.002004,-1.397902,1.487301,-0.103348,-0.987602,0.118157,-0.080368,1.062859,0.915168,19.002411,-40.660919,18.232239,,,,,,
1478384990.48,-2.599480,1.386748,-2.467349,2.433669,-0.341314,-1.177289,-0.094424,-0.983111,0.156771,-0.522580,0.659533,1.899701,17.875061,-40.885025,19.121582,,,,,,
1478384990.50,-2.760112,1.356900,-2.264213,1.163696,3.192289,-0.746683,-0.079027,-0.977211,0.197010,-0.594725,-0.439461,0.469326,17.875061,-40.885025,19.121582,,,,,,
1478384990.52,-2.732451,1.332240,-2.245461,1.247314,1.504725,0.883507,-0.094005,-0.971680,0.216797,-0.508396,-1.022155,0.045746,18.178680,-38.856339,22.793579,,,,,,
1478384990.54,-2.675290,1.302720,-2.300737,1.116962,-0.721406,1.438203,-0.119085,-0.964282,0.236598,0.206564,-0.261624,-0.444438,16.977509,-38.479416,24.730408,,,,,,
1478384990.56,-2.661286,1.270109,-2.347068,1.151552,-1.687761,1.107599,-0.136849,-0.955133,0.262665,0.380608,-0.002478,-0.435929,16.151703,-38.403671,25.471985,,,,,,
1478384990.58,-2.684074,1.239184,-2.343970,1.600889,-0.595206,0.507727,-0.143811,-0.945519,0.292083,0.286496,-0.262275,-0.236129,15.176514,-38.328308,25.836914,,,,,,
1478384990.60,-2.708264,1.200501,-2.335409,1.925522,-1.045524,0.763475,-0.151956,-0.932220,0.328443,-0.120291,-0.329147,-0.723538,15.176514,-38.328308,25.836914,,,,,,
1478384990.62,-2.745182,1.155049,-2.321919,2.341861,-1.357671,0.676798,-0.155940,-0.914815,0.372555,0.272959,-0.290584,-0.742535,15.553864,-37.577621,26.513489,,,,,,
1478384990.64,-2.796096,1.099736,-2.309071,2.917174,-2.322401,0.759551,-0.153696,-0.891088,0.427013,0.223444,-0.263087,-1.167797,16.007019,-36.075226,28.913513,,,,,,
1478384990.66,-2.860675,1.032573,-2.293772,3.565530,-2.589368,0.630665,-0.142115,-0.858621,0.492517,0.093043,-0.179877,-1.470789,16.610962,-34.723801,30.340454,,,,,,
1478384990.68,-2.919589,0.950180,-2.275404,4.467165,-1.823185,0.438820,-0.128046,-0.813520,0.567265,0.000482,-0.405215,-1.762654,16.915802,-32.996857,32.288391,,,,,,
1478384990.70,-2.957296,0.850409,-2.254469,5.303713,-0.624293,0.400836,-0.120889,-0.751550,0.648504,0.105432,-0.855704,-2.072348,16.915802,-32.996857,32.288391,,,,,,
1478384990.72,-2.973935,0.733839,-2.244515,5.833707,-0.595954,0.820658,-0.123922,-0.669725,0.732196,0.426107,-1.217924,-2.133731,18.350281,-30.219818,34.319397,,,,,,
1478384990.74,-2.993374,0.633623,-2.254904,4.328033,-2.101115,1.512646,-0.119011,-0.592068,0.797052,0.023659,-1.702549,-1.176294,18.601532,-22.790039,39.099640,,,,,,
1478384990.76,-3.053402,0.558582,-2.279607,3.300756,-4.100796,1.214748,-0.074690,-0.529984,0.844712,-0.606737,-1.539169,0.038299,19.286896,-20.013611,40.523132,,,,,,
1478384990.78,-3.117137,0.504702,-2.289586,2.415888,-3.041283,0.231037,-0.021405,-0.483546,0.875057,-0.787937,-1.294942,1.051594,22.224213,-17.614639,39.495300,,,,,,
1478384990.80,-3.132169,0.481463,-2.287019,-0.450159,0.535573,-0.131647,-0.008353,-0.463076,0.886279,-0.846796,-1.363248,-0.096408,22.224213,-17.614639,39.495300,,,,,,
1478384990.82,-3.112586,0.526765,-2.283939,-2.947563,1.267775,-0.231203,-0.025071,-0.502739,0.864075,-0.564559,-1.298805,0.504227,24.182861,-15.890228,38.909790,,,,,,
1478384990.84,-3.079046,0.606699,-2.284348,-4.745078,1.775825,-0.107928,-0.051351,-0.570159,0.819928,-0.111827,-0.374315,0.580295,24.179596,-16.565079,39.061737,,,,,,
1478384990.86,-3.050801,0.729292,-2.297122,-6.935632,0.346739,0.109767,-0.067605,-0.666342,0.742575,0.099420,0.236776,0.120630,21.756561,-22.191589,37.554382,,,,,,
1478384990.88,-3.037705,0.882692,-2.330050,-8.140140,-0.818995,0.625855,-0.065858,-0.772451,0.631650,0.404115,0.474676,0.565768,21.889374,-27.145020,34.120544,,,,,,
1478384990.90,-2.958056,1.041159,-2.428184,-8.323212,0.619530,2.383843,-0.092207,-0.862990,0.496735,1.225385,0.819961,1.554306,21.889374,-27.145020,34.120544,,,,,,
1478384990.92,-2.727460,1.194309,-2.650525,-8.831197,1.722245,2.039824,-0.147943,-0.929962,0.336576,1.444162,1.336700,1.416811,21.797455,-32.700409,28.736328,,,,,,
1478384990.94,-2.301052,1.334992,-3.074569,-9.734862,0.492894,0.622416,-0.174052,-0.972327,0.155842,1.017634,1.506705,1.103939,19.607880,-37.805969,23.179749,,,,,,
1478384990.96,-1.326931,1.388486,2.209268,-10.319804,-0.539811,-0.244727,-0.175938,-0.983427,-0.043776,0.997624,1.224730,1.632674,16.978516,-43.821121,8.021484,,,,,,
1478384990.98,-0.629469,1.303917,1.502381,-7.042912,0.843560,-1.411554,-0.155257,-0.964599,-0.213177,0.520019,0.445006,2.266278,17.140747,-44.130188,-1.051025,,,,,,
1478384991.00,-0.338276,1.249352,1.239260,-3.073518,3.199814,-2.553131,-0.104847,-0.948780,-0.298032,-0.321849,-0.031185,1.263242,17.140747,-44.130188,-1.051025,,,,,,
1478384991.02,-0.062896,1.218148,1.035387,-0.455629,4.583638,-2.762729,-0.021709,-0.938461,-0.344702,-1.289296,-0.889542,1.245825,19.026947,-43.084534,-5.385193,,,,,,
1478384991.04,0.105477,1.263345,0.978331,3.452630,5.795318,0.344760,0.031861,-0.953108,-0.300949,-0.962266,0.739958,1.038803,21.884552,-41.810776,-6.635498,,,,,,
1478384991.06,0.109314,1.345395,1.077085,3.816453,4.599854,2.347533,0.024383,-0.974704,-0.222164,-0.943099,1.059253,1.863659,23.609222,-40.757385,-3.246399,,,,,,
1478384991.08,0.006375,1.389808,1.257973,2.110983,1.813258,1.330447,0.001148,-0.983666,-0.179998,-0.041370,-2.578391,-1.409464,21.483429,-42.921677,7.463867,,,,,,
1478384991.10,-0.079269,1.450463,1.329873,3.491618,-2.475753,0.606276,-0.009506,-0.992769,-0.119666,1.163146,-1.593779,-0.120248,21.483429,-42.921677,7.463867,,,,,,
1478384991.12,-0.906905,1.501079,2.103593,3.871989,-2.150165,2.728651,-0.054865,-0.997571,-0.042924,0.233012,0.164227,1.471361,21.032959,-42.319580,9.557495,,,,,,
,,,,,,,,,,,,,,,,37.354427,-122.033416,39.912354,3.600000,102.304688,1478384991.00
1478384991.14,-1.752831,1.449579,2.943721,2.365939,0.277161,3.169693,-0.118922,-0.992662,0.021890,0.079448,0.930300,1.257071,19.229858,-42.317505,11.639465,,,,,,
1478384991.16,-1.924326,1.413584,3.107077,1.709413,-1.140207,-0.037410,-0.146883,-0.987668,0.054205,-0.229323,1.220959,0.652857,17.725250,-42.540115,14.025085,,,,,,
1478384991.18,-2.309818,1.413425,-2.806825,2.625738,-0.370897,-1.757064,-0.115838,-0.987643,0.105563,-0.314994,0.027682,1.259381,17.274414,-41.787277,16.868286,,,,,,
1478384991.20,-2.495516,1.403071,-2.599116,1.620495,0.905311,-0.198611,-0.100508,-0.985967,0.133294,-0.485628,-1.274409,-0.226769,17.274414,-41.787277,16.868286,,,,,,
1478384991.22,-2.515740,1.368988,-2.573584,1.385073,-0.141220,1.059907,-0.117416,-0.979706,0.162450,-0.230103,-0.470078,-0.566824,18.176514,-40.660324,18.823975,,,,,,
1478384991.24,-2.546733,1.335307,-2.549215,1.556802,-0.465062,0.517625,-0.130750,-0.972400,0.193241,0.054288,0.190754,-0.319706,16.749207,-40.733978,20.159912,,,,,,
1478384991.26,-2.605467,1.303967,-2.504291,1.711326,-0.871517,0.389633,-0.134687,-0.964612,0.226679,0.158887,0.007459,-0.311045,16.300201,-40.208084,21.053833,,,,,,
1478384991.28,-2.652712,1.267533,-2.474509,1.875159,-1.033818,0.597814,-0.140251,-0.954367,0.263653,0.022590,-0.109537,-0.272061,16.525574,-39.756958,22.179749,,,,,,
1478384991.30,-2.703965,1.227301,-2.444650,2.076754,-1.213817,0.385054,-0.142725,-0.941583,0.305042,-0.043112,-0.278143,-0.399280,16.525574,-39.756958,22.179749,,,,,,
1478384991.32,-2.761985,1.182748,-2.413658,2.461504,-1.598667,0.385733,-0.140212,-0.925649,0.351445,0.053191,-0.490000,-0.689656,16.000916,-38.854492,24.646851,,,,,,
1478384991.34,-2.825865,1.124274,-2.381676,3.301673,-1.809654,0.416530,-0.134087,-0.901954,0.410486,0.271996,-0.340386,-1.569742,17.354095,-37.803436,25.707214,,,,,,
1478384991.36,-2.882586,1.045536,-2.362250,4.276921,-2.083359,0.871553,-0.128429,-0.865193,0.484713,0.329784,-0.375209,-2.020662,17.282471,-36.602097,27.052856,,,,,,
1478384991.38,-2.927828,0.946948,-2.359159,5.158264,-2.063964,1.147724,-0.123924,-0.811637,0.570867,0.484947,-0.680292,-1.950765,18.036041,-35.024765,29.380615,,,,,,
1478384991.40,-2.963958,0.838233,-2.358781,5.404983,-1.725688,0.892663,-0.118174,-0.743463,0.658254,0.720881,-1.094855,-1.877812,18.036041,-35.024765,29.380615,,,,,,
1478384991.42,-3.007205,0.725620,-2.354688,5.583010,-2.180778,0.705815,-0.100231,-0.663600,0.741343,0.722225,-1.013448,-1.291621,18.501282,-29.844376,34.769836,,,,,,
1478384991.44,-3.055665,0.626255,-2.360764,4.181943,-3.030627,0.838866,-0.069536,-0.586114,0.807239,-0.205809,-1.519049,-0.823367,19.565002,-26.242722,36.419556,,,,,,
1478384991.46,-3.129004,0.563655,-2.365036,2.744492,-3.678907,-0.097082,-0.010641,-0.534280,0.845241,-1.388910,-1.603217,0.283208,21.679199,-22.641357,37.779968,,,,,,
1478384991.48,3.106491,0.516642,-2.345437,2.296278,-0.728577,-1.314157,0.030514,-0.493963,0.868947,-1.533260,-0.942255,1.282054,23.712036,-21.066864,37.270569,,,,,,
1478384991.50,3.120268,0.506961,-2.317649,-1.006301,2.119674,-0.986199,0.018641,-0.485522,0.874026,-1.343211,-1.333829,-0.102434,23.712036,-21.066864,37.270569,,,,,,
1478384991.52,-3.124923,0.556756,-2.296074,-3.124643,2.609727,-1.018452,-0.014151,-0.528435,0.848856,-0.468622,-0.819222,0.709692,24.697479,-18.591415,37.722961,,,,,,
1478384991.54,-3.081432,0.639940,-2.273105,-4.823438,2.794033,-1.147924,-0.048227,-0.597147,0.800681,-0.021231,0.029413,0.435663,23.793365,-19.416122,38.016418,,,,,,
1478384991.56,-3.053692,0.762146,-2.254745,-6.707689,1.389529,-1.201008,-0.063501,-0.690476,0.720563,0.163538,0.332886,0.205844,21.607544,-21.966599,37.552185,,,,,,
1478384991.58,-3.053720,0.916554,-2.237477,-8.244505,0.256073,-1.273041,-0.053407,-0.793510,0.606210,0.272767,0.495566,0.551810,21.516235,-26.168304,35.838928,,,,,,
1478384991.60,-3.057291,1.102539,-2.237473,-9.745094,-0.402034,-0.334046,-0.038003,-0.892356,0.449729,0.528253,0.665962,1.201409,21.516235,-26.168304,35.838928,,,,,,
1478384991.62,-2.963380,1.288848,-2.345398,-9.285878,-0.334409,1.251410,-0.049322,-0.960515,0.273821,0.815069,1.068059,1.436369,21.278687,-30.523010,31.124573,,,,,,
1478384991.64,-2.472332,1.460044,-2.849707,-9.927505,-0.146594,0.737967,-0.068571,-0.993873,0.086683,0.551695,1.443458,1.475466,21.559235,-39.386642,17.503967,,,,,,
1478384991.66,-0.565566,1.433616,1.536021,-9.651366,1.736740,0.018170,-0.073284,-0.990605,-0.115457,0.644130,0.992086,2.673211,21.033844,-42.244965,9.182251,,,,,,
1478384991.68,-0.192704,1.312585,1.216636,-4.891369,3.418088,-1.054441,-0.048903,-0.966848,-0.250625,-0.009004,0.740637,1.713821,20.290924,-43.152390,1.752625,,,,,,
1478384991.70,0.021710,1.260472,1.069926,-2.220957,4.206941,-2.311569,0.006629,-0.952235,-0.305296,-0.568717,0.202647,0.337522,20.290924,-43.152390,1.752625,,,,,,
1478384991.72,0.209396,1.220954,0.937554,-0.207941,2.580183,-1.819999,0.071247,-0.939427,-0.335263,-0.923847,-0.828243,1.429639,21.574982,-42.255753,-1.612244,,,,,,
1478384991.74,0.272502,1.254411,0.928068,2.727721,2.242131,1.477055,0.083739,-0.950366,-0.299652,-0.674651,0.493152,1.159867,23.453583,-41.505890,-1.745728,,,,,,
1478384991.76,0.154670,1.338737,1.061834,3.656515,0.099946,3.108533,0.035430,-0.973195,-0.227237,-0.919326,1.007313,2.178439,24.799408,-40.826080,3.065674,,,,,,
1478384991.78,-0.106327,1.418229,1.335394,3.445165,1.664967,1.978874,-0.016129,-0.988384,-0.151118,-0.113525,-0.113285,0.595958,21.562866,-42.398102,6.038025,,,,,,
1478384991.80,0.000342,1.453647,1.296596,2.725039,2.670033,-0.753706,0.000040,-0.993146,-0.116882,0.355475,-2.882022,0.680663,21.562866,-42.398102,6.038025,,,,,,
1478384991.82,-0.237006,1.510808,1.537658,3.292799,-1.135074,1.584138,-0.014077,-0.998201,-0.058277,0.226616,-0.080336,0.749271,20.503906,-43.219589,9.554932,,,,,,
1478384991.84,-1.771198,1.508872,3.052415,3.274144,-0.778453,2.678082,-0.060646,-0.998083,0.012319,0.074424,0.378866,1.568385,20.279694,-42.166962,12.174561,,,,,,
1478384991.86,-2.122495,1.444878,-2.900193,2.480926,-1.667434,1.758619,-0.106953,-0.992083,0.065824,0.082219,0.713854,0.591296,16.898834,-41.937347,16.790039,,,,,,
1478384991.87,-2.362076,1.415462,-2.692541,1.557946,-1.280577,-0.494156,-0.108752,-0.987960,0.110039,-0.199262,0.286025,0.828774,16.373047,-41.635941,18.208923,,,,,,
1478384991.89,-2.559361,1.407197,-2.491291,1.479405,0.936006,-1.166644,-0.089561,-0.986647,0.136035,-0.618310,-0.385163,0.819500,16.373047,-41.635941,18.208923,,,,,,
1478384991.91,-2.646791,1.387423,-2.372575,1.124329,1.480196,0.458237,-0.086589,-0.983234,0.160478,-0.672734,-0.683468,-0.197297,17.275879,-40.735092,19.040161,,,,,,
1478384991.93,-2.581807,1.353005,-2.421649,1.237919,0.460279,1.513367,-0.114736,-0.976377,0.183094,0.061941,-0.158907,-0.222783,17.577026,-39.908371,20.765747,,,,,,
1478384991.95,-2.551893,1.317767,-2.466056,1.196564,-1.376675,1.219768,-0.139216,-0.968159,0.208057,0.239481,-0.084179,-0.375752,14.798126,-39.905777,23.362915,,,,,,
1478384991.97,-2.586888,1.288934,-2.465354,1.235474,-1.545884,0.532375,-0.146497,-0.960539,0.236439,0.370130,-0.070879,-0.261768,15.173889,-39.680618,23.516052,,,,,,
1478384991.99,-2.623003,1.257245,-2.448949,1.628972,-0.925313,0.726014,-0.152880,-0.951244,0.267885,-0.214720,-0.163349,-0.458300,15.173889,-39.680618,23.516052,,,,,,
1478384992.01,-2.665178,1.219437,-2.431671,1.929909,-1.497137,0.555086,-0.157837,-0.938906,0.305849,-0.146042,-0.492079,-0.654176,15.323914,-39.379730,24.416626,,,,,,
1478384992.03,-2.725398,1.172425,-2.409446,2.548869,-2.395151,0.759898,-0.156829,-0.921694,0.354803,0.415953,-0.471952,-1.167425,15.400604,-38.703827,25.315369,,,,,,
1478384992.05,-2.803654,1.108813,-2.394540,3.390663,-3.701582,0.919100,-0.147777,-0.895170,0.420514,0.497829,-0.092806,-1.461408,15.177063,-38.027786,26.361084,,,,,,
1478384992.07,-2.893445,1.028871,-2.380034,4.269223,-3.699456,0.733661,-0.126682,-0.856717,0.499988,0.435825,-0.187106,-1.546893,18.034698,-35.475204,28.932007,,,,,,
1478384992.09,-2.963873,0.932048,-2.371242,5.057279,-2.904190,0.867567,-0.105398,-0.802843,0.586801,0.518698,-0.787733,-1.790536,18.034698,-35.475204,28.932007,,,,,,
,,,,,,,,,,,,,,,,37.354423,-122.033401,39.633057,1.370000,88.242188,1478384992.00
1478384992.11,-3.013751,0.821036,-2.376335,5.780733,-2.560721,0.987297,-0.086882,-0.731852,0.675902,0.647353,-1.055852,-1.750182,19.242371,-33.148331,30.812073,,,,,,
1478384992.13,-3.058658,0.699779,-2.382590,6.083302,-2.607486,0.908631,-0.063371,-0.644049,0.762355,0.004243,-1.666209,-1.163951,19.924438,-30.821075,33.061890,,,,,,
1478384992.15,-3.126156,0.617596,-2.393323,2.560260,-4.485899,0.286197,-0.012585,-0.579077,0.815176,-1.140476,-2.159784,-0.792791,20.838287,-26.993835,35.309570,,,,,,
1478384992.17,3.073181,0.580916,-2.384836,1.754034,-2.407585,-0.745858,0.057145,-0.548790,0.834005,-1.139695,-1.187157,0.852885,26.037201,-21.969696,34.446533,,,,,,
1478384992.19,3.065145,0.548852,-2.362233,1.560111,1.293630,-1.269156,0.065156,-0.521708,0.850632,-0.898530,-0.403646,0.788101,26.037201,-21.969696,34.446533,,,,,,
1478384992.21,3.106803,0.547541,-2.343779,-1.482450,3.077367,-0.359247,0.029698,-0.520589,0.853291,-0.761387,-1.047923,-0.686375,27.393524,-20.394150,34.980347,,,,,,
1478384992.23,-3.122842,0.611973,-2.341207,-3.833946,2.359110,-0.080045,-0.015347,-0.574483,0.818372,-0.311054,-0.973765,0.069781,25.593292,-19.942688,36.460938,,,,,,
1478384992.25,-3.082953,0.704429,-2.344460,-5.286337,1.528335,-0.031436,-0.044657,-0.647599,0.760672,-0.108694,-0.049240,0.208521,24.162354,-21.292755,36.375671,,,,,,
1478384992.27,-3.064996,0.839912,-2.361811,-7.728076,-0.568267,0.305786,-0.051081,-0.744585,0.665571,0.064722,0.386934,0.171175,22.798737,-24.593597,35.547058,,,,,,
1478384992.29,-3.057289,1.009557,-2.407406,-8.791020,-1.664343,0.891759,-0.044816,-0.846596,0.530346,0.321351,0.496483,0.944233,22.798737,-24.593597,35.547058,,,,,,
1478384992.31,-2.997804,1.180334,-2.499725,-8.604416,-0.555682,1.274424,-0.054540,-0.924733,0.376688,0.620107,0.827992,1.610220,23.595428,-33.902634,26.507874,,,,,,
1478384992.33,-2.793899,1.342356,-2.696290,-8.666465,1.499747,0.595111,-0.077161,-0.974021,0.212908,0.527326,1.155570,1.410856,21.860931,-38.409836,19.304016,,,,,,
1478384992.35,-1.932345,1.481411,2.761531,-9.107711,2.549369,-0.104722,-0.083496,-0.996008,0.031576,0.545135,0.896719,1.770335,21.709259,-40.891129,13.010010,,,,,,
1478384992.37,-0.509358,1.411812,1.392031,-7.446994,3.154711,-0.241200,-0.077198,-0.987388,-0.138219,0.412143,0.662102,1.972402,21.339050,-42.097961,6.184875,,,,,,
1478384992.39,-0.195749,1.319882,1.130059,-3.870965,2.644279,-1.386005,-0.048293,-0.968686,-0.243548,0.069289,0.538541,1.212618,21.339050,-42.097961,6.184875,,,,,,
1478384992.41,0.032625,1.262606,0.964767,-3.292756,4.269688,-2.263045,0.009894,-0.952884,-0.303173,-0.216621,-0.032025,0.299236,21.577271,-42.106812,-2.662659,,,,,,
1478384992.43,0.216827,1.236598,0.871056,0.374636,5.063734,-0.808905,0.070566,-0.944674,-0.320331,-0.257868,-0.089109,1.741504,24.284637,-40.832901,-3.764404,,,,,,
1478384992.45,0.297100,1.285452,0.855244,3.528962,1.578375,0.868692,0.082405,-0.959565,-0.269156,-0.675636,0.889344,0.839758,26.461304,-39.856094,-1.945557,,,,,,
1478384992.47,0.300373,1.368335,0.867092,4.039319,0.919056,1.614593,0.059495,-0.979575,-0.192077,-0.622621,0.584906,1.661361,25.704681,-40.002121,2.022278,,,,,,
1478384992.49,0.356393,1.422782,0.868794,2.336596,3.244469,0.019668,0.051453,-0.989066,-0.138208,0.103408,-2.821710,-1.348578,25.704681,-40.002121,2.022278,,,,,,
1478384992.51,0.604479,1.489006,0.667351,3.916826,0.906653,1.597251,0.046432,-0.996657,-0.067222,0.362336,-0.968248,0.045173,24.420288,-40.898529,5.612122,,,,,,
1478384992.53,-2.782608,1.555454,-2.254042,4.049969,-2.108567,2.840311,-0.005390,-0.999882,0.014364,0.002079,0.339955,1.250727,22.834564,-40.740891,13.245789,,,,,,
1478384992.55,-2.479520,1.475907,-2.599973,2.347797,-1.934485,2.570835,-0.058246,-0.995501,0.074729,0.303607,0.845462,1.349527,20.731873,-40.588669,15.474304,,,,,,
1478384992.57,-2.597527,1.416943,-2.526130,2.776879,-2.317334,0.226410,-0.079324,-0.988188,0.131120,0.138940,0.950743,0.827498,19.153442,-40.887253,16.884399,,,,,,
1478384992.59,-2.832010,1.391802,-2.306441,1.515138,0.234108,-1.611795,-0.054242,-0.984023,0.169576,-0.175815,-0.166291,1.470835,19.153442,-40.887253,16.884399,,,,,,
1478384992.61,-2.993227,1.362412,-2.102072,1.915160,2.512338,-1.293921,-0.030581,-0.978366,0.204607,-0.639890,-0.782071,0.092985,18.704437,-40.210922,18.227905,,,,,,
1478384992.63,-2.973610,1.337192,-2.097234,1.160371,0.165853,1.000761,-0.038703,-0.972838,0.228227,-0.716714,-0.713807,-0.401338,20.584198,-37.806854,22.289490,,,,,,
1478384992.65,-2.896249,1.308713,-2.187686,1.146955,-0.752202,1.422376,-0.062931,-0.965852,0.251334,-0.049740,-0.077315,-0.098945,19.758606,-37.580811,23.330505,,,,,,
1478384992.67,-2.851414,1.278898,-2.256080,1.201079,-1.133786,1.174615,-0.082338,-0.957699,0.275740,0.073091,0.098111,0.021501,19.305145,-38.180283,23.852844,,,,,,
1478384992.69,-2.840153,1.252474,-2.284804,1.153015,-0.417145,0.526902,-0.092920,-0.949762,0.298862,0.246378,-0.006842,0.149915,19.305145,-38.180283,23.852844,,,,,,
1478384992.71,-2.851199,1.225168,-2.269846,1.490204,0.188231,0.092169,-0.097005,-0.940863,0.324603,0.148961,-0.448923,-0.336475,18.106201,-37.804855,24.289734,,,,,,
1478384992.73,-2.874637,1.193091,-2.258046,1.727064,-1.139089,0.299409,-0.097285,-0.929513,0.355725,0.063182,-0.572028,-0.993848,18.483459,-36.677979,26.165100,,,,,,
1478384992.75,-2.917706,1.152560,-2.244426,2.246327,-1.655779,0.209144,-0.090174,-0.913806,0.396013,-0.045797,-0.047360,-0.944109,18.933441,-36.377075,27.068665,,,,,,
1478384992.77,-2.963676,1.096150,-2.230533,3.183043,-1.715170,0.304631,-0.080884,-0.889455,0.449809,-0.019214,-0.120357,-1.603664,18.861938,-35.251022,28.114563,,,,,,
1478384992.79,-3.009777,1.019730,-2.224412,4.200264,-2.203161,0.584985,-0.068819,-0.851967,0.519054,0.286073,-0.413109,-2.239635,18.861938,-35.251022,28.114563,,,,,,
1478384992.81,-3.045600,0.922020,-2.236252,5.166249,-2.240871,1.056668,-0.057911,-0.796824,0.601430,0.514790,-0.507803,-2.058919,19.690857,-33.824371,29.768616,,,,,,
1478384992.83,-3.067696,0.811185,-2.261956,5.563642,-2.111989,1.359009,-0.050842,-0.725104,0.686760,0.753311,-1.005777,-1.613945,20.672943,-31.722794,31.347168,,,,,,
1478384992.85,-3.101459,0.698850,-2.292374,5.462200,-3.249508,1.570456,-0.030718,-0.643337,0.764966,0.143709,-1.457462,-0.522779,21.443939,-25.643524,35.611572,,,,,,
1478384992.87,3.110827,0.613757,-2.325225,3.307462,-5.232611,1.047341,0.025147,-0.575943,0.817103,-0.842087,-2.134521,0.052907,23.707642,-22.417984,36.149536,,,,,,
1478384992.89,3.036957,0.566834,-2.336527,1.982199,-2.464767,-0.075604,0.088110,-0.536964,0.838992,-1.279929,-1.147561,0.985716,23.707642,-22.417984,36.149536,,,,,,
1478384992.91,3.035586,0.527428,-2.334521,1.811039,1.238584,-0.338162,0.091429,-0.503313,0.859254,-1.000090,-0.363051,0.854232,26.941223,-20.919235,34.902405,,,,,,
1478384992.93,3.083266,0.524307,-2.336787,-1.120262,2.767040,0.338322,0.050463,-0.500613,0.864199,-0.552782,-1.037839,-0.358843,28.225220,-19.044601,34.534607,,,,,,
1478384992.95,-3.138072,0.575305,-2.344262,-3.201115,2.887486,0.351060,-0.002954,-0.544091,0.839021,-0.095725,-0.701637,0.077910,24.695465,-19.342316,36.825195,,,,,,
1478384992.97,-3.083865,0.657544,-2.359038,-4.717986,1.659543,0.581164,-0.045666,-0.611175,0.790177,0.114910,0.057845,-0.178986,23.333862,-21.967484,36.669495,,,,,,
1478384992.99,-3.059734,0.771661,-2.388877,-6.395848,-0.540844,0.746345,-0.058607,-0.697327,0.714353,0.164503,0.337738,-0.107603,23.333862,-21.967484,36.669495,,,,,,
1478384993.01,-3.054424,0.915141,-2.427114,-7.765805,-1.282398,0.556017,-0.053077,-0.792649,0.607364,0.221717,0.406922,0.416257,22.344574,-25.869644,34.496277,,,,,,
1478384993.03,-3.027599,1.083983,-2.469216,-8.940148,0.293049,0.152307,-0.053212,-0.883828,0.464776,0.243993,0.599099,1.231223,22.180817,-30.298752,30.382874,,,,,,
1478384993.05,-2.927810,1.266570,-2.536445,-9.196579,2.905608,-0.368753,-0.063553,-0.954079,0.292736,0.031525,0.826638,1.665226,21.867493,-35.029083,25.069031,,,,,,
1478384993.07,-2.589378,1.438968,-2.797198,-9.139061,4.780460,-0.569701,-0.068954,-0.991323,0.111909,-0.185502,1.120245,1.605543,21.559662,-40.891434,12.708496,,,,,,
1478384993.09,-0.639994,1.474349,1.641419,-8.470791,5.854178,-0.849785,-0.057508,-0.995353,-0.077241,-0.553881,1.071784,2.104996,21.559662,-40.891434,12.708496,,,,,,
1478384993.11,-0.050260,1.379501,1.168460,-3.996066,6.129498,-1.976976,-0.009552,-0.981759,-0.189891,-0.730667,0.869759,1.599468,21.112488,-42.096909,7.232605,,,,,,
,,,,,,,,,,,,,,,,37.354421,-122.033381,39.339050,2.720000,93.867188,1478384993.00
1478384993.13,0.201603,1.298963,1.014071,-5.147264,4.049680,-1.977221,0.053764,-0.963280,-0.263060,0.034401,-0.525306,-0.605333,22.091248,-42.249893,4.242859,,,,,,
1478384993.15,0.204365,1.238853,1.020915,-1.483729,-0.679688,0.542962,0.066136,-0.945411,-0.319099,0.021449,-0.672524,1.712273,22.770172,-41.500259,3.872437,,,,,,
1478384993.17,0.060240,1.250450,1.153001,1.226873,-1.084156,2.818030,0.018958,-0.949126,-0.314325,-0.022651,0.867904,0.819177,22.698090,-41.953568,0.573059,,,,,,
1478384993.19,-0.150440,1.298933,1.357640,3.472987,-0.399592,2.520389,-0.040245,-0.963272,-0.265494,-0.142464,1.415512,1.719290,22.698090,-41.953568,0.573059,,,,,,
1478384993.21,-0.288720,1.374758,1.531263,4.915391,2.785324,0.252715,-0.055460,-0.980846,-0.186723,0.033411,0.504482,2.080629,20.441254,-42.926941,2.203430,,,,,,
1478384993.23,-0.096280,1.428100,1.477272,1.477009,8.027922,-1.627816,-0.013671,-0.989836,-0.141553,0.859679,-2.251009,-1.077059,18.407837,-43.523132,6.009827,,,,,,
1478384993.25,0.122272,1.485413,1.353414,3.114581,1.307289,0.271158,0.010401,-0.996357,-0.084643,0.435460,-1.898617,-0.749799,17.722229,-44.117813,11.329834,,,,,,
1478384993.27,-0.927912,1.537171,2.356929,3.242491,-3.519731,2.599016,-0.026907,-0.999435,-0.020155,0.543906,-0.052109,0.823972,18.249451,-42.238678,15.454468,,,,,,
1478384993.29,-2.043119,1.471258,-2.867099,2.946358,-2.290543,3.127546,-0.088494,-0.995050,0.045211,0.137307,0.459634,1.136338,18.249451,-42.238678,15.454468,,,,,,
1478384993.31,-2.179420,1.418498,-2.753503,1.410625,-0.310332,0.633418,-0.124469,-0.988425,0.086739,-0.388852,1.051047,1.622230,16.221954,-41.710419,18.732605,,,,,,
1478384993.33,-2.473009,1.411484,-2.432791,2.367652,1.868106,-2.124001,-0.098336,-0.987337,0.124484,-0.916205,0.194932,0.872998,14.420380,-41.483704,20.438904,,,,,,
1478384993.35,-2.607115,1.396541,-2.263284,1.391238,0.985132,0.460659,-0.088316,-0.984856,0.149195,-0.626238,-1.127876,0.069860,15.246887,-40.506744,22.394226,,,,,,
1478384993.37,-2.529150,1.357787,-2.339715,1.134603,-0.595499,2.037129,-0.121528,-0.977399,0.172979,0.127128,-0.336642,-0.385473,15.248474,-39.680328,23.816772,,,,,,
1478384993.39,-2.504125,1.321138,-2.400394,0.981719,-2.125443,1.216380,-0.147048,-0.968997,0.198549,0.152511,0.247546,-0.174166,15.248474,-39.680328,23.816772,,,,,,
1478384993.41,-2.545985,1.298839,-2.394552,0.961790,-1.337077,0.311423,-0.150697,-0.963247,0.222363,0.171816,0.034902,0.399264,12.696930,-39.453629,25.515564,,,,,,
1478384993.43,-2.577491,1.277623,-2.378969,1.016051,-0.866399,0.569234,-0.154511,-0.957332,0.244218,-0.051406,-0.328847,0.065780,13.522369,-39.228241,25.898071,,,,,,
1478384993.45,-2.606884,1.254595,-2.379321,0.993648,-1.867033,0.513021,-0.158461,-0.950423,0.267554,0.091552,-0.371156,-0.415686,13.673462,-38.852859,26.273499,,,,,,
1478384993.47,-2.667158,1.230188,-2.366577,1.287135,-2.722636,0.439594,-0.152610,-0.942552,0.297164,-0.015282,-0.194793,-0.832930,14.049805,-38.477631,26.501160,,,,,,
1478384993.49,-2.736741,1.196276,-2.355643,1.928426,-2.986499,0.572468,-0.144092,-0.930683,0.336253,-0.114529,-0.007732,-0.985530,14.049805,-38.477631,26.501160,,,,,,
1478384993.51,-2.811802,1.147475,-2.334299,2.743180,-2.670375,0.429450,-0.133033,-0.911730,0.388653,-0.354486,-0.486906,-1.621503,14.951752,-38.027557,26.583801,,,,,,
1478384993.53,-2.879844,1.082758,-2.313285,3.521046,-2.333699,0.588787,-0.121336,-0.883254,0.452923,-0.059359,-0.633759,-1.611264,16.980896,-36.601044,28.099854,,,,,,
1478384993.55,-2.933346,1.002189,-2.304118,4.247697,-2.286337,0.744141,-0.111323,-0.842652,0.526826,0.624949,-0.722458,-1.805131,18.035706,-35.024536,29.605591,,,,,,
1478384993.57,-2.981753,0.907687,-2.303032,4.858831,-2.440180,0.895429,-0.097974,-0.788082,0.607723,1.068723,-0.849110,-2.194180,18.642151,-32.997742,31.405701,,,,,,
1478384993.59,-3.029805,0.806001,-2.307242,5.150171,-2.671391,0.744652,-0.077240,-0.721524,0.688068,0.779739,-0.799976,-1.159580,18.642151,-32.997742,31.405701,,,,,,
1478384993.61,-3.086207,0.702986,-2.314915,5.014955,-3.349495,0.745757,-0.042233,-0.646499,0.761745,-0.058078,-1.480454,-0.573833,18.724487,-30.595428,33.724243,,,,,,
1478384993.63,3.125472,0.633676,-2.325817,2.313476,-4.257608,0.249222,0.012990,-0.592111,0.805752,-0.987310,-1.854697,-0.584606,22.801117,-23.767700,36.444519,,,,,,
1478384993.65,3.061901,0.597799,-2.323690,1.923920,-2.014491,-0.338260,0.065802,-0.562824,0.823953,-1.062231,-0.645138,1.054526,25.584839,-22.118576,35.567505,,,,,,
1478384993.67,3.064211,0.563637,-2.319219,0.914553,1.519208,-0.159348,0.065347,-0.534264,0.842788,-1.331292,-0.651099,-0.247130,27.168732,-20.394302,34.828125,,,,,,
1478384993.69,3.125786,0.586301,-2.323798,-2.120026,3.585750,0.303685,0.013167,-0.553284,0.832889,-0.727934,-1.300247,0.128827,27.168732,-20.394302,34.828125,,,,,,
1478384993.71,-3.086726,0.647581,-2.328133,-3.590078,3.124652,0.039164,-0.043736,-0.603259,0.796346,-0.215617,-0.317289,0.279094,25.594635,-19.717911,36.235291,,,,,,
1478384993.73,-3.034549,0.738779,-2.341744,-5.240569,1.359940,0.220549,-0.078986,-0.673385,0.735060,0.072836,0.192001,-0.067595,21.902252,-23.467560,36.584656,,,,,,
1478384993.75,-3.021823,0.866443,-2.371101,-7.210666,-1.454650,0.246774,-0.077371,-0.762030,0.642902,0.129068,0.347098,0.146725,20.913971,-27.144730,34.410828,,,,,,
1478384993.77,-3.041866,1.027128,-2.405926,-8.560122,-2.608120,0.048937,-0.051501,-0.855817,0.514709,0.244464,0.363309,0.994385,20.899872,-31.724060,30.074402,,,,,,
1478384993.79,-3.033552,1.208213,-2.452150,-9.319248,-0.679377,0.236691,-0.038247,-0.934984,0.352623,0.238533,0.482072,1.951638,20.899872,-31.724060,30.074402,,,,,,
1478384993.81,-2.820100,1.386956,-2.635745,-9.138377,3.235064,0.740316,-0.057764,-0.983149,0.173440,-0.067099,1.145533,1.964881,22.317566,-35.781387,22.750732,,,,,,
1478384993.83,-1.389083,1.487454,2.313430,-9.081742,6.211292,0.906728,-0.081875,-0.996529,-0.015044,-0.313816,1.219399,2.586928,23.062561,-39.238419,15.718567,,,,,,
1478384993.85,-0.439187,1.374466,1.484881,-6.284101,5.887731,0.372221,-0.082945,-0.980789,-0.176558,-0.449434,0.912033,2.071105,20.287567,-42.924469,4.676880,,,,,,
1478384993.87,-0.234421,1.299479,1.343117,-2.840891,1.689500,-0.720992,-0.062251,-0.963419,-0.260671,0.056865,0.225732,0.842107,19.313446,-43.677322,1.819458,,,,,,
1478384993.89,-0.056373,1.244750,1.213791,-3.092944,3.746588,-1.648504,-0.018047,-0.947316,-0.319791,0.425746,-0.729976,1.505979,19.313446,-43.677322,1.819458,,,,,,
1478384993.91,0.048830,1.247934,1.217959,1.413061,6.105535,1.193938,0.015487,-0.948331,-0.316904,-0.092254,0.521543,1.645029,20.744293,-43.004181,-0.043274,,,,,,
1478384993.93,0.028380,1.309229,1.330028,3.840505,2.807647,1.642100,0.007338,-0.965986,-0.258491,-0.731047,1.551389,1.693595,21.646301,-42.478958,0.189148,,,,,,
1478384993.95,-0.006975,1.378980,1.441094,1.873845,6.088132,0.844249,-0.001330,-0.981660,-0.190638,0.424380,-0.750488,-0.607183,18.252808,-43.519760,9.383301,,,,,,
1478384993.97,0.186815,1.413983,1.366454,2.400706,4.545408,-0.632433,0.029006,-0.987730,-0.153455,1.062410,-3.004686,-0.714954,17.046783,-43.590942,13.196472,,,,,,
1478384993.99,0.012565,1.476804,1.535700,3.143927,-2.004249,2.636242,0.001179,-0.995586,-0.093847,0.423931,-0.049229,1.289266,17.046783,-43.590942,13.196472,,,,,,
1478384994.01,-1.141633,1.490245,2.648096,2.540785,-2.016272,3.871324,-0.073167,-0.996758,-0.033482,0.425645,0.415291,1.378254,16.747253,-42.462875,16.265076,,,,,,
1478384994.03,-1.559920,1.440047,3.022275,1.160144,-2.710324,1.677816,-0.130369,-0.991464,-0.001418,-0.110262,1.091867,0.998351,15.320038,-42.386169,17.975586,,,,,,
1478384994.05,-1.778443,1.447005,-3.060484,1.180556,0.719350,-1.363060,-0.120823,-0.992348,0.025456,-0.719829,0.231468,1.017574,12.916687,-42.835297,18.852905,,,,,,
1478384994.07,-1.993168,1.459310,-2.787893,1.317980,3.138721,-0.404201,-0.101478,-0.993792,0.045606,-1.053811,-0.994169,-0.622663,12.841736,-42.007812,21.324646,,,,,,
1478384994.09,-2.070573,1.427667,-2.683879,1.297703,0.212281,1.707463,-0.125195,-0.989774,0.068358,-0.708240,-0.851855,-0.953322,12.841736,-42.007812,21.324646,,,,,,
,,,,,,,,,,,,,,,,37.354421,-122.033359,39.349670,2.050000,78.046875,1478384994.00
1478384994.11,-2.137789,1.381159,-2.637013,1.582148,-1.746582,1.736759,-0.159006,-0.982073,0.101245,0.426615,0.269212,-0.535342,12.016144,-41.556107,23.040039,,,,,,
1478384994.13,-2.236978,1.342556,-2.577407,1.695242,-1.882456,0.869023,-0.177886,-0.974066,0.139828,0.255431,0.163031,0.043201,10.442139,-41.030151,23.997742,,,,,,
1478384994.15,-2.334233,1.307024,-2.505114,1.954710,-1.101850,0.834227,-0.188364,-0.965413,0.180267,-0.265814,-0.184123,-0.285324,9.692902,-40.579330,24.813904,,,,,,
1478384994.17,-2.405270,1.263486,-2.448024,2.236883,-0.687686,0.935220,-0.203147,-0.953151,0.224133,-0.040246,-0.263005,-0.445599,10.072205,-38.852005,27.137512,,,,,,
1478384994.19,-2.471776,1.214487,-2.397164,2.495515,-1.238614,1.007876,-0.216561,-0.937191,0.273451,0.161004,-0.342823,-0.586653,10.072205,-38.852005,27.137512,,,,,,
1478384994.21,-2.540880,1.159451,-2.363300,2.656609,-2.207927,1.193532,-0.226003,-0.916584,0.329844,0.444326,-0.506222,-0.642802,9.997528,-38.175201,28.934753,,,,,,
1478384994.23,-2.608722,1.097088,-2.337730,3.117550,-2.115683,1.178561,-0.231748,-0.889883,0.392939,0.385282,-0.333552,-0.590037,9.999573,-37.198639,30.506836,,,,,,
1478384994.25,-2.668645,1.024062,-2.309790,3.750781,-1.585796,1.209968,-0.236821,-0.854227,0.462831,0.433293,-0.094519,-1.020478,10.228058,-35.771683,32.454895,,,,,,
1478384994.27,-2.716384,0.939722,-2.290539,4.275769,-1.753068,1.425174,-0.243387,-0.807394,0.537474,0.707178,-0.419092,-1.309645,11.059814,-33.669891,34.256836,,,,,,
1478384994.29,-2.772511,0.842138,-2.275702,4.920666,-2.517503,1.459451,-0.240219,-0.746068,0.621029,1.099197,-0.622386,-1.723995,11.059814,-33.669891,34.256836,,,,,,
1478384994.31,-2.833703,0.734082,-2.264354,5.276559,-2.583289,1.379758,-0.224997,-0.669906,0.707533,1.535849,-0.656419,-1.604460,11.826721,-28.490616,38.523956,,,,,,
1478384994.33,-2.890989,0.625912,-2.260543,5.326100,-3.110022,1.310016,-0.200978,-0.585836,0.785114,0.960194,-1.154963,-0.819675,12.587769,-25.263290,40.846893,,,,,,
1478384994.35,-2.971606,0.545902,-2.252569,3.046949,-3.969512,-0.160052,-0.144582,-0.519189,0.842341,-0.332027,-2.226553,-0.174159,14.104736,-21.062027,42.124451,,,,,,
1478384994.37,-3.023969,0.505295,-2.217767,2.076785,-0.199055,-1.700580,-0.102688,-0.484066,0.868986,-1.204609,-2.022954,0.792147,17.645874,-17.461914,42.224060,,,,,,
1478384994.39,-3.015877,0.480891,-2.185292,0.377038,1.470652,-0.661506,-0.111164,-0.462570,0.879586,-1.035076,-0.704087,0.443915,17.645874,-17.461914,42.224060,,,,,,
1478384994.41,-2.986093,0.517516,-2.190197,-2.792126,1.436605,-0.021786,-0.134593,-0.494723,0.858565,-0.570485,-1.389142,-0.262755,18.862915,-13.486389,42.749329,,,,,,
1478384994.43,-2.957104,0.592915,-2.190897,-4.292863,1.249054,-0.959782,-0.152133,-0.558781,0.815242,-0.111371,-0.499324,0.356069,17.280090,-15.136093,43.038452,,,,,,
1478384994.45,-2.958648,0.704977,-2.186629,-6.234800,-0.880031,-1.263902,-0.138560,-0.648017,0.748916,0.076212,0.223883,-0.029480,17.119568,-17.761993,42.144714,,,,,,
1478384994.47,-3.009628,0.856931,-2.185987,-8.235809,-3.357443,-1.230392,-0.086155,-0.755837,0.649067,0.190403,0.445290,0.019039,17.703369,-22.114227,39.913605,,,,,,
1478384994.49,-3.090104,1.040359,-2.173651,-9.545567,-3.141195,-1.120960,-0.026037,-0.862586,0.505241,0.330481,0.469031,0.760049,17.703369,-22.114227,39.913605,,,,,,
1478384994.51,3.139602,1.235224,-2.142962,-9.543296,0.010817,-0.604785,0.000655,-0.944222,0.329309,0.565156,0.626153,2.101447,20.088287,-26.993835,35.302124,,,,,,
1478384994.53,-3.123409,1.415684,-2.135063,-9.149675,1.824259,0.111389,-0.002809,-0.987994,0.154465,0.287401,1.069919,1.572052,23.366913,-36.382736,21.413025,,,,,,
1478384994.55,-0.321337,1.524352,1.381660,-10.292336,1.622321,0.624894,-0.014664,-0.998922,-0.044052,0.002151,1.015126,1.624145,23.589264,-39.013870,15.273193,,,,,,
1478384994.57,-0.057839,1.353705,1.122279,-6.746311,-0.634069,-0.891133,-0.012451,-0.976528,-0.215030,-0.279816,0.546932,2.323825,22.915009,-41.421600,7.548645,,,,,,
1478384994.59,0.074410,1.274372,0.965730,-3.160678,-0.026636,-2.434573,0.021715,-0.956387,-0.291294,-0.513033,0.545742,1.525746,22.915009,-41.421600,7.548645,,,,,,
1478384994.61,0.211849,1.200761,0.866295,-1.576708,3.054868,-1.525866,0.076043,-0.932315,-0.353563,-1.158120,-0.778897,0.648363,22.773193,-41.803192,0.948364,,,,,,
1478384994.63,0.290630,1.213502,0.862784,1.896931,3.319669,0.973534,0.100220,-0.936846,-0.335074,-0.831193,0.331729,1.270911,26.389008,-39.556992,-2.847229,,,,,,
1478384994.65,0.272658,1.294703,0.904061,3.970659,0.378086,2.147520,0.073409,-0.962128,-0.262529,-0.885466,1.299454,0.907319,26.533051,-39.703461,0.679688,,,,,,
1478384994.67,0.170322,1.354755,1.044872,1.273838,2.768800,1.950678,0.036335,-0.976754,-0.211263,-0.372486,0.453103,1.240148,24.723663,-40.675110,4.039490,,,,,,
1478384994.69,0.226858,1.399294,1.030666,2.786402,1.238151,0.016323,0.038385,-0.985330,-0.166290,0.737021,-4.231055,-0.046616,24.723663,-40.675110,4.039490,,,,,,
1478384994.71,-0.021887,1.468183,1.253182,3.427423,-2.029724,2.638905,-0.002242,-0.994740,-0.102408,0.587920,-0.111278,0.340446,21.710876,-42.321518,7.614319,,,,,,
1478384994.73,-1.043088,1.505744,2.268137,3.145274,0.480561,2.496808,-0.056163,-0.997885,-0.032734,-0.088780,0.380285,2.073124,20.806274,-41.942337,11.804138,,,,,,
1478384994.75,-1.668593,1.482291,2.887364,1.754696,-1.419644,0.993371,-0.087968,-0.996086,0.008630,-0.002227,0.963386,0.699759,18.477631,-41.864670,14.480652,,,,,,
1478384994.77,-2.000977,1.469358,-3.101216,1.259670,-1.683631,-0.046723,-0.092038,-0.994860,0.042231,-0.190158,0.139894,0.846441,17.950409,-42.088837,15.301025,,,,,,
1478384994.79,-2.219147,1.456487,-2.886459,1.339174,0.484933,0.123918,-0.090915,-0.993474,0.068878,-0.553555,-0.541499,0.511017,17.950409,-42.088837,15.301025,,,,,,
1478384994.81,-2.298711,1.431186,-2.794577,1.257468,0.403726,0.854353,-0.103890,-0.990270,0.092583,-0.655037,-0.325648,-0.161797,17.574524,-41.937790,16.346802,,,,,,
1478384994.83,-2.346037,1.400668,-2.746001,1.375570,-0.241202,0.784406,-0.120929,-0.985563,0.118497,0.061557,0.046446,-0.283445,17.348724,-41.335480,18.667786,,,,,,
1478384994.85,-2.419335,1.372225,-2.688998,1.390177,-1.242803,0.546623,-0.130411,-0.980349,0.148014,0.273523,-0.074918,-0.317081,16.597717,-41.259583,19.559937,,,,,,
1478384994.87,-2.486536,1.342506,-2.650592,1.414493,-1.452447,0.676436,-0.137871,-0.974055,0.179469,0.048912,-0.122930,-0.217845,16.072052,-41.108688,20.454285,,,,,,
1478384994.89,-2.533010,1.310204,-2.624191,1.559480,-0.818820,0.700868,-0.147302,-0.966238,0.211394,-0.191199,0.050954,-0.048399,16.072052,-41.108688,20.454285,,,,,,
1478384994.91,-2.575315,1.275652,-2.595957,1.715785,-0.790980,0.570869,-0.156055,-0.956760,0.245473,-0.134854,0.004062,-0.194448,16.224091,-40.508240,20.904053,,,,,,
1478384994.93,-2.628415,1.239023,-2.564873,1.865167,-1.535617,0.541302,-0.159912,-0.945466,0.283764,0.154877,-0.326095,-0.472622,16.601807,-39.532120,22.029907,,,,,,
1478384994.95,-2.692688,1.198138,-2.542698,2.060291,-2.521691,0.653250,-0.158008,-0.931363,0.328019,0.289127,-0.366367,-0.591890,16.300110,-39.154861,24.275696,,,,,,
1478384994.97,-2.766496,1.150587,-2.523626,2.522365,-2.819997,0.549596,-0.149458,-0.913004,0.379587,0.118132,-0.119070,-0.657938,16.377045,-38.403900,25.249207,,,,,,
1478384994.99,-2.840528,1.092479,-2.496308,3.201881,-2.225645,0.335523,-0.136492,-0.887771,0.439583,-0.095274,-0.101014,-1.190407,16.377045,-38.403900,25.249207,,,,,,
1478384995.01,-2.899318,1.020402,-2.469373,3.932431,-1.503805,0.325959,-0.125479,-0.852318,0.507749,-0.048288,-0.061927,-1.415647,18.405060,-37.503204,25.941772,,,,,,
1478384995.03,-2.940079,0.933690,-2.446153,4.584483,-0.880321,0.325603,-0.119065,-0.803821,0.582834,0.331940,-0.290799,-1.562555,18.784119,-36.001404,27.741028,,,,,,
1478384995.05,-2.970922,0.837080,-2.435730,4.876906,-1.487388,0.779590,-0.113733,-0.742691,0.659905,0.664438,-1.020844,-1.614480,18.948212,-31.121170,32.978027,,,,,,
1478384995.07,-3.011671,0.735260,-2.444059,5.077603,-2.748707,1.163238,-0.096087,-0.670780,0.735406,0.737322,-0.965741,-1.139459,20.010040,-27.894363,34.779053,,,,,,
,,,,,,,,,,,,,,,,37.354423,-122.033340,39.376587,2.060000,78.750000,1478384995.00
1478384995.09,-3.064941,0.634929,-2.454960,4.592253,-3.382478,0.786703,-0.061653,-0.593120,0.802750,0.368965,-1.102482,-0.530579,20.010040,-27.894363,34.779053,,,,,,
1478384995.11,3.130769,0.572523,-2.456278,2.500607,-4.436239,-0.389757,0.009098,-0.541754,0.840488,-1.004764,-2.140726,-0.367008,21.672089,-24.742920,36.211182,,,,,,
1478384995.13,3.075631,0.521049,-2.426455,2.701945,-0.504955,-1.785705,0.057167,-0.497790,0.865412,-1.427604,-1.366361,0.921942,24.382965,-22.342987,36.156067,,,,,,
1478384995.15,3.090722,0.486834,-2.402492,0.521226,2.103968,-0.493805,0.044941,-0.467830,0.882675,-1.120472,-0.838689,0.037582,26.943176,-20.393936,35.200867,,,,,,
1478384995.17,3.138074,0.509149,-2.403751,-1.863630,2.317251,0.149029,0.003072,-0.487435,0.873154,-0.488424,-1.168434,-0.088166,25.074402,-18.291794,37.350830,,,,,,
1478384995.19,-3.107964,0.562566,-2.404518,-3.187525,1.480472,-0.076740,-0.028440,-0.533359,0.845411,-0.113680,-0.608761,0.202364,25.074402,-18.291794,37.350830,,,,,,
1478384995.21,-3.097218,0.651044,-2.406686,-5.222148,-0.194429,-0.118008,-0.035286,-0.606018,0.794668,0.056420,-0.028275,-0.086264,23.567780,-19.791870,37.265259,,,,,,
1478384995.23,-3.116670,0.779485,-2.405855,-7.118782,-1.159559,-0.368631,-0.017725,-0.702913,0.711055,0.129252,0.180880,0.217855,23.258118,-22.267838,36.294617,,,,,,
1478384995.25,-3.134434,0.943550,-2.395334,-8.726435,0.182858,-0.402993,-0.004202,-0.809647,0.586902,0.281271,0.348633,1.037655,23.093750,-26.546143,33.005737,,,,,,
1478384995.27,-3.098692,1.121202,-2.402242,-8.988224,2.024503,0.198866,-0.018639,-0.900624,0.434200,0.521202,0.631611,1.563786,23.594971,-35.256378,22.761963,,,,,,
1478384995.29,-2.987454,1.299738,-2.478355,-8.989539,1.628983,0.587750,-0.041108,-0.963488,0.264577,0.428955,0.989687,1.307719,23.594971,-35.256378,22.761963,,,,,,
1478384995.31,-2.546799,1.469156,-2.915415,-9.385097,-0.200674,0.657886,-0.056855,-0.994839,0.084040,0.394867,1.239285,1.091741,22.763947,-38.411850,17.288086,,,,,,
1478384995.33,-0.526058,1.456724,1.326548,-8.784429,-0.736014,-0.571227,-0.057155,-0.993501,-0.098435,0.574748,0.875276,1.649094,21.938690,-40.894135,10.012329,,,,,,
1478384995.35,-0.092266,1.330735,0.906662,-5.801003,2.638323,-2.024766,-0.021906,-0.971323,-0.236751,0.278025,0.380534,2.029506,21.194977,-42.101929,2.208496,,,,,,
1478384995.37,0.184493,1.225999,0.756751,-4.321685,8.378026,-2.597241,0.062007,-0.941144,-0.332270,-0.330134,-0.078570,1.222940,23.084320,-40.907913,-3.776184,,,,,,
1478384995.39,0.435800,1.178381,0.652804,-0.765254,6.501595,-2.049184,0.161434,-0.923988,-0.346677,-0.830623,-0.066139,0.908612,23.084320,-40.907913,-3.776184,,,,,,
1478384995.41,0.537203,1.196677,0.602783,2.642254,0.740457,0.828841,0.187015,-0.930830,-0.313977,-1.022678,0.266401,0.671841,28.420746,-37.605621,-1.482666,,,,,,
1478384995.43,0.511414,1.281597,0.639456,3.373148,0.941622,3.413043,0.139573,-0.958472,-0.248697,-0.800767,0.784171,1.550882,28.116821,-37.602997,1.139221,,,,,,
1478384995.45,0.415221,1.375398,0.756418,3.733666,0.593010,2.971453,0.078322,-0.980970,-0.177659,-0.642912,0.314482,1.556459,26.682068,-38.800095,4.053467,,,,,,
1478384995.47,0.486542,1.400671,0.749783,1.892667,4.322871,-1.067605,0.079163,-0.985564,-0.149659,0.614029,-1.274996,-0.794341,24.046051,-40.222031,7.106384,,,,,,
1478384995.49,0.829927,1.432251,0.489917,3.095362,2.526750,0.683896,0.101903,-0.990418,-0.093209,0.774897,-1.882965,-0.252646,24.046051,-40.222031,7.106384,,,,,,
1478384995.51,1.179397,1.506297,0.142102,3.659853,-1.078365,2.702826,0.059580,-0.997921,-0.024588,0.347372,-0.102574,0.587592,22.838837,-39.690598,13.542664,,,,,,
1478384995.53,-3.118785,1.532081,-1.883560,2.625919,-2.358455,3.061838,-0.000883,-0.999251,0.038695,0.298978,0.323164,0.477723,20.509827,-39.612686,16.444153,,,,,,
1478384995.55,-2.663464,1.485567,-2.398902,1.304784,-2.871727,1.154200,-0.039168,-0.996370,0.075580,-0.250886,0.606020,0.687696,19.006012,-39.986282,17.855286,,,,,,
1478384995.57,-2.910544,1.465361,-2.166757,1.643271,0.830157,-1.629923,-0.024100,-0.994447,0.102443,-0.923273,0.457032,1.637303,18.481049,-39.911072,18.074768,,,,,,
1478384995.59,-3.094187,1.440852,-1.932166,1.107631,2.778311,-0.156415,-0.006140,-0.991569,0.129433,-1.678384,-0.545968,0.384437,18.481049,-39.911072,18.074768,,,,,,
1478384995.61,-2.862499,1.412345,-2.120993,1.145504,1.752585,2.221274,-0.043468,-0.987473,0.151684,-0.173557,-0.438904,0.166081,19.381378,-39.459930,19.207397,,,,,,
1478384995.63,-2.671226,1.373429,-2.320358,1.104451,-1.406557,2.102465,-0.088870,-0.980586,0.174793,0.376635,-0.153844,-0.324665,16.454315,-38.781525,22.626099,,,,,,
1478384995.65,-2.681772,1.348446,-2.355985,0.890685,-2.426014,0.175060,-0.097865,-0.975382,0.197617,0.722346,-0.090750,-0.235993,15.551239,-39.306076,23.068665,,,,,,
1478384995.67,-2.753194,1.330512,-2.317280,1.161987,-1.290568,0.272677,-0.090124,-0.971270,0.220254,0.684118,-0.113294,-0.060128,15.552948,-38.855850,23.292297,,,,,,
1478384995.69,-2.755261,1.298007,-2.342147,1.525713,-1.397351,1.045485,-0.101515,-0.963023,0.249562,-0.034334,0.070018,-0.579457,15.552948,-38.855850,23.292297,,,,,,
1478384995.71,-2.787258,1.257519,-2.341874,2.071402,-1.729229,0.517721,-0.106928,-0.951329,0.289034,-0.325384,0.167240,-0.780336,16.379059,-38.405243,23.899231,,,,,,
1478384995.73,-2.839293,1.212026,-2.332871,2.264905,-2.469043,0.788470,-0.104535,-0.936329,0.335201,-0.353442,-0.182155,-0.698177,16.607117,-37.354126,25.023376,,,,,,
1478384995.75,-2.880611,1.159325,-2.346257,2.628308,-2.750294,0.981713,-0.103201,-0.916533,0.386415,0.061315,-0.433457,-0.359696,17.360382,-36.378372,25.777954,,,,,,
1478384995.77,-2.931168,1.098403,-2.356605,3.135675,-3.196201,0.924743,-0.095042,-0.890482,0.444982,0.365855,-0.396673,-0.960653,18.112396,-35.477005,27.132751,,,,,,
1478384995.79,-2.984593,1.025634,-2.364627,3.816795,-2.740961,0.766917,-0.081079,-0.855043,0.512179,0.426004,-0.255720,-1.295840,18.112396,-35.477005,27.132751,,,,,,
1478384995.81,-3.022001,0.939233,-2.362991,4.539679,-1.157371,0.363325,-0.070440,-0.807106,0.586190,0.451940,-0.444024,-1.319848,18.189056,-34.725876,28.256287,,,,,,
1478384995.83,-3.034606,0.844317,-2.353264,4.941531,0.063431,0.329987,-0.070929,-0.747518,0.660444,0.666800,-0.937175,-1.421644,20.071472,-32.699753,29.394043,,,,,,
1478384995.85,-3.038398,0.737734,-2.363554,5.353215,-1.262507,1.312141,-0.076228,-0.672613,0.736058,0.910823,-1.201334,-1.639821,19.637085,-27.519577,34.549133,,,,,,
1478384995.87,-3.072424,0.634792,-2.392672,4.555346,-3.433733,1.588981,-0.055650,-0.593010,0.803269,-0.014800,-1.545188,-1.018342,20.098541,-24.217346,36.793823,,,,,,
1478384995.89,3.140797,0.563328,-2.411938,2.982830,-3.660934,0.302445,0.000673,-0.534003,0.845483,-1.380571,-2.019602,0.045631,20.098541,-24.217346,36.793823,,,,,,
1478384995.91,3.115782,0.516238,-2.392128,2.261289,0.904971,-1.366878,0.022444,-0.493612,0.869393,-1.607970,-1.110026,0.894783,21.232788,-21.966751,37.398499,,,,,,
1478384995.93,-3.129669,0.483133,-2.370133,0.695745,2.815020,-0.527773,-0.010559,-0.464556,0.885481,-0.997956,-0.745863,0.267031,23.718658,-19.867691,36.441956,,,,,,
1478384995.95,-3.080040,0.508573,-2.368343,-2.086421,2.256944,-0.104643,-0.053728,-0.486932,0.871786,-0.267591,-0.973457,-0.199591,21.626495,-17.315247,38.888489,,,,,,
1478384995.97,-3.043894,0.568653,-2.368036,-3.596945,1.491156,-0.314514,-0.082193,-0.538498,0.838609,0.042459,-0.271836,0.015868,19.442535,-19.189896,39.247284,,,,,,
1478384995.99,-3.030444,0.664486,-2.374534,-5.503627,-0.148447,-0.210157,-0.087320,-0.616655,0.782376,0.064416,0.318879,-0.147931,19.442535,-19.189896,39.247284,,,,,,
1478384996.01,-3.037836,0.794988,-2.388890,-7.121710,-1.136866,-0.175091,-0.072530,-0.713856,0.696527,0.013905,0.471393,0.234778,19.505920,-22.266388,37.757141,,,,,,
1478384996.03,-3.048396,0.949508,-2.400336,-8.014397,-0.667827,-0.562122,-0.054170,-0.813129,0.579558,0.022706,0.529361,0.837740,19.716339,-26.469299,34.846802,,,,,,
1478384996.05,-3.045545,1.119948,-2.398509,-8.795463,0.862485,-0.936425,-0.041786,-0.900078,0.433721,-0.010902,0.623894,1.284632,20.828461,-30.974228,29.921448,,,,,,
1478384996.07,-2.999362,1.300498,-2.411920,-9.132982,1.926373,-0.654159,-0.037850,-0.963691,0.264323,-0.079948,0.789482,1.252324,21.263092,-38.260818,18.322693,,,,,,
1478384996.09,-2.610465,1.486344,-2.775990,-10.002453,0.851635,0.406589,-0.042725,-0.996436,0.072731,0.021820,0.831687,1.454719,21.263092,-38.260818,18.322693,,,,,,
,,,,,,,,,,,,,,,,37.354423,-122.033324,39.061829,2.050000,109.687500,1478384996.00
1478384996.11,-0.492962,1.440523,1.381536,-8.528844,-0.592990,1.037685,-0.061476,-0.991526,-0.114438,0.234831,0.681193,2.096860,21.639282,-40.367935,11.207764,,,,,,
1478384996.13,-0.287082,1.322882,1.152723,-4.901349,-1.047762,-0.465867,-0.069481,-0.969426,-0.235340,0.344582,0.700765,1.753376,20.743652,-42.025818,3.328735,,,,,,
1478384996.15,-0.128437,1.255373,1.004662,-4.042864,2.730407,-1.574756,-0.039734,-0.950665,-0.307664,0.164521,0.203427,1.006531,20.453278,-42.107483,-3.348938,,,,,,
1478384996.17,0.073938,1.211643,0.885688,-0.438559,5.709766,-1.895774,0.025964,-0.936195,-0.350521,-0.440927,-0.325036,1.924740,23.769684,-39.786438,-7.297729,,,,,,
1478384996.19,0.248263,1.233657,0.811301,2.242471,3.864619,-0.421763,0.081282,-0.943705,-0.320647,-0.701353,0.541071,1.057814,23.769684,-39.786438,-7.297729,,,,,,
1478384996.21,0.260830,1.314156,0.828064,4.364832,0.823197,2.382445,0.065459,-0.967248,-0.245247,-0.901061,0.902841,1.304390,25.715820,-39.407745,-3.604431,,,,,,
1478384996.23,0.150383,1.364248,1.010374,0.310344,5.104537,1.692694,0.030725,-0.978745,-0.202768,-0.075891,-0.283096,-0.082769,25.634430,-39.629150,-0.004517,,,,,,
1478384996.25,0.329547,1.395270,0.944393,2.459029,4.677705,-0.582618,0.056512,-0.984635,-0.165229,1.314567,-3.221374,-0.010430,22.768829,-41.800262,3.873291,,,,,,
1478384996.27,0.321115,1.463679,0.955305,3.306380,-1.698286,2.184556,0.033744,-0.994268,-0.101448,0.715020,0.064932,0.377159,21.938660,-41.796829,7.315002,,,,,,
1478384996.29,-0.544889,1.519610,1.785232,2.529675,-1.591873,3.026483,-0.026520,-0.998690,-0.043755,0.893768,0.263430,1.145485,21.938660,-41.796829,7.315002,,,,,,
1478384996.31,-1.609872,1.501669,2.804133,1.933215,-3.069713,1.347163,-0.069020,-0.997612,0.002698,0.138081,0.451759,0.339541,20.207306,-41.717346,11.797485,,,,,,
1478384996.33,-2.070080,1.495947,-3.068086,1.543126,-1.452718,-0.913055,-0.065651,-0.997200,0.035804,-0.368736,0.415672,1.249733,18.703949,-42.166458,12.683777,,,,,,
1478384996.35,-2.628460,1.488007,-2.481316,1.910586,2.638325,-1.315710,-0.040596,-0.996575,0.072045,-0.992836,0.061928,0.736793,18.703766,-42.015854,13.283325,,,,,,
1478384996.37,-2.795689,1.460876,-2.267376,1.488563,1.540144,0.411379,-0.037193,-0.993965,0.103201,-1.170998,-0.635979,-0.281851,19.754730,-41.113815,15.316162,,,,,,
1478384996.39,-2.705491,1.424582,-2.354870,1.494801,-0.521259,1.500853,-0.061543,-0.989330,0.132058,-0.137676,-0.110524,-0.398141,19.754730,-41.113815,15.316162,,,,,,
1478384996.41,-2.646931,1.382198,-2.436714,1.658945,-1.226535,1.456461,-0.089004,-0.982268,0.165009,0.152771,0.109343,-0.236939,19.002533,-40.435303,18.831604,,,,,,
1478384996.43,-2.665302,1.341951,-2.440947,1.745465,-1.018033,0.661211,-0.104009,-0.973929,0.201605,0.370809,0.031210,-0.098684,17.575348,-40.584274,19.867676,,,,,,
1478384996.45,-2.715882,1.307370,-2.406751,1.765028,-0.934690,0.396505,-0.107533,-0.965503,0.237149,0.395817,-0.050717,-0.055219,17.050629,-40.133148,20.986145,,,,,,
1478384996.47,-2.753234,1.270364,-2.398415,1.768144,-1.757157,0.685927,-0.112061,-0.955209,0.273896,-0.031783,-0.192298,-0.309678,17.726898,-39.532181,21.966125,,,,,,
1478384996.49,-2.800339,1.231103,-2.386933,2.000971,-1.737017,0.423556,-0.111511,-0.942857,0.313984,-0.126267,-0.268248,-0.244908,17.726898,-39.532181,21.966125,,,,,,
1478384996.51,-2.849587,1.186826,-2.367030,2.361961,-1.410243,0.331062,-0.107839,-0.927184,0.358747,0.080297,-0.282288,-0.487196,18.330383,-38.406128,23.018738,,,,,,
1478384996.53,-2.892670,1.132887,-2.350574,2.890752,-1.482634,0.448241,-0.104468,-0.905640,0.410977,0.191489,-0.294998,-0.886548,17.880249,-37.879486,24.662720,,,,,,
1478384996.55,-2.943020,1.068182,-2.334192,3.442833,-1.983327,0.257645,-0.095029,-0.876326,0.472252,0.326993,-0.344606,-1.056542,18.933868,-36.603043,26.094360,,,,,,
1478384996.57,-3.004383,0.992548,-2.313405,4.054768,-2.227963,0.044352,-0.074758,-0.837421,0.541421,0.242131,-0.444912,-1.385034,18.933868,-36.603043,26.094360,,,,,,
1478384996.59,-3.058011,0.904606,-2.297463,4.661781,-1.834998,0.056105,-0.051593,-0.786182,0.615838,0.181674,-0.548993,-1.788872,19.613617,-34.951248,27.896240,,,,,,
1478384996.61,-3.092003,0.806177,-2.297790,5.053512,-1.835227,0.530190,-0.034315,-0.721646,0.691411,0.411985,-0.884494,-1.633306,20.819672,-32.999451,29.702393,,,,,,
1478384996.63,-3.132389,0.692995,-2.313150,6.069736,-3.004148,0.801191,-0.007080,-0.638845,0.769303,0.133560,-1.339091,-1.071778,22.561920,-27.745148,33.979065,,,,,,
1478384996.65,3.081562,0.599646,-2.330365,3.389662,-4.567667,0.370200,0.049528,-0.564350,0.824048,-0.909315,-2.337841,-0.870084,24.749969,-24.368729,35.415833,,,,,,
1478384996.67,2.997694,0.560893,-2.328573,1.538003,-2.996261,-0.606305,0.121430,-0.531943,0.838028,-1.315964,-1.679056,0.520629,27.763916,-21.594681,34.462708,,,,,,
1478384996.69,2.992237,0.523625,-2.322308,1.824961,1.251418,-0.378299,0.128864,-0.500023,0.856371,-0.907718,-0.300377,0.944410,27.763916,-21.594681,34.462708,,,,,,
1478384996.71,3.034653,0.515185,-2.327597,-0.621353,2.129938,0.498104,0.092881,-0.492696,0.865230,-0.762971,-0.780711,-0.064876,30.171814,-20.245926,33.207642,,,,,,
1478384996.73,3.076949,0.556094,-2.336324,-2.681358,1.696724,0.429224,0.054865,-0.527873,0.847549,-0.149622,-0.874135,0.107742,28.674774,-18.893860,35.288635,,,,,,
1478384996.75,3.109895,0.632831,-2.337523,-4.562628,1.575697,0.175607,0.025555,-0.591430,0.805952,-0.005200,-0.235856,0.255785,27.239990,-21.068863,35.280823,,,,,,
1478384996.77,3.139902,0.747273,-2.340072,-6.455775,1.316273,0.220747,0.001240,-0.679641,0.733544,-0.089909,0.338058,0.346244,26.329529,-23.769989,34.154785,,,,,,
1478384996.79,-3.110311,0.896575,-2.352481,-7.887947,1.180008,0.337544,-0.019525,-0.781193,0.623984,-0.081076,0.667225,0.684533,26.329529,-23.769989,34.154785,,,,,,
1478384996.81,-3.062598,1.058230,-2.381333,-8.321197,1.113013,0.402849,-0.038700,-0.871489,0.488886,0.019092,0.920775,1.071157,24.663574,-28.122391,31.751282,,,,,,
1478384996.83,-2.971395,1.225339,-2.461644,-8.550559,0.723648,0.752889,-0.057356,-0.940921,0.333734,0.201185,1.006595,1.058630,23.974457,-32.551285,27.857605,,,,,,
1478384996.85,-2.697937,1.391863,-2.739388,-9.287796,-0.115775,1.015335,-0.076397,-0.984034,0.160750,0.384472,1.104762,1.134050,23.058411,-40.063126,16.020996,,,,,,
1478384996.87,-1.318156,1.468876,2.148796,-9.143745,-0.097995,1.207950,-0.098514,-0.994811,-0.025432,0.815662,0.941924,2.157604,22.384827,-42.245621,8.520874,,,,,,
1478384996.89,-0.554028,1.361186,1.408675,-6.327866,2.579571,0.167819,-0.109474,-0.978112,-0.176953,0.715766,0.849374,2.125271,22.384827,-42.245621,8.520874,,,,,,
1478384996.91,-0.230212,1.278559,1.163461,-5.050468,5.449195,-2.000578,-0.065739,-0.957602,-0.280494,0.077076,0.157187,0.658989,20.515900,-43.378052,1.080566,,,,,,
1478384996.93,0.068770,1.210416,0.953157,-2.447030,4.983259,-3.047590,0.024231,-0.935763,-0.351797,-0.535202,-0.758985,0.695379,21.348236,-43.157257,-3.111816,,,,,,
1478384996.95,0.215633,1.193342,0.902439,0.682270,4.411674,0.291896,0.078858,-0.929606,-0.360020,-0.465074,-0.057760,1.298787,26.912750,-40.007507,-3.365601,,,,,,
1478384996.97,0.188517,1.262896,0.966453,4.127918,0.387931,2.545467,0.056794,-0.952972,-0.297689,-0.636689,1.038620,0.616735,25.856689,-40.229141,-0.000488,,,,,,
1478384996.99,0.033934,1.331267,1.149659,2.403364,1.937095,2.435612,0.008049,-0.971450,-0.237109,-0.292076,0.212432,1.450839,25.856689,-40.229141,-0.000488,,,,,,
1478384997.01,0.143433,1.373525,1.118751,2.653881,4.087121,-1.228068,0.028016,-0.980605,-0.193981,1.075851,-3.360932,0.368405,23.894135,-41.875702,3.434753,,,,,,
1478384997.03,0.132321,1.441100,1.147402,3.540458,-0.707241,1.987989,0.017064,-0.991601,-0.128202,0.713024,-0.149924,-0.005785,22.611298,-42.547501,6.648987,,,,,,
1478384997.05,-0.500017,1.509216,1.764021,3.721067,-0.480534,2.150259,-0.029506,-0.998105,-0.054008,0.096873,0.415692,1.288321,22.984192,-41.793823,10.325439,,,,,,
1478384997.07,-1.653528,1.508707,2.912291,2.497377,-0.729924,1.130306,-0.061837,-0.998073,0.005128,-0.170783,0.619518,0.651092,18.774933,-42.013306,15.833984,,,,,,
1478384997.09,-2.243885,1.489277,-2.812530,2.008216,-2.006062,-0.313220,-0.063669,-0.996679,0.050763,-0.413854,0.375311,0.734164,18.774933,-42.013306,15.833984,,,,,,
1478384997.11,-2.602297,1.465327,-2.478089,1.941582,-0.479481,-0.240758,-0.054062,-0.994443,0.090333,-0.542191,-0.099002,0.732223,19.525391,-41.562256,16.890137,,,,,,
,,,,,,,,,,,,,,,,37.354421,-122.033311,38.707703,1.410000,107.929688,1478384997.00
1478384997.13,-2.682498,1.428718,-2.372996,1.930808,1.906573,0.566036,-0.062749,-0.989924,0.126939,-0.533901,-0.259435,0.303420,20.501373,-40.885895,18.247925,,,,,,
1478384997.15,-2.676660,1.388968,-2.345156,1.820378,1.201283,0.695319,-0.081077,-0.983515,0.161633,-0.060433,-0.154791,-0.229566,19.677307,-40.059021,20.112183,,,,,,
1478384997.17,-2.689700,1.351288,-2.342117,1.628383,-1.570204,0.916004,-0.095084,-0.976005,0.195892,0.272254,-0.061837,-0.375000,17.575226,-39.305374,23.763916,,,,,,
1478384997.19,-2.716869,1.316821,-2.358997,1.380835,-2.143075,0.828523,-0.103534,-0.967921,0.228931,0.223880,-0.024800,0.301404,17.575226,-39.305374,23.763916,,,,,,
1478384997.21,-2.746689,1.289281,-2.358393,1.230789,-1.086016,0.392049,-0.106880,-0.960635,0.256430,0.028327,0.066486,0.640009,18.326691,-38.854996,24.145081,,,,,,
1478384997.23,-2.774689,1.266822,-2.346149,0.980115,-0.746729,0.198093,-0.107372,-0.954155,0.279393,-0.101444,-0.194420,0.235515,18.852570,-38.554688,24.449402,,,,,,
1478384997.25,-2.798430,1.248252,-2.342359,0.910551,-1.224105,0.366538,-0.106654,-0.948432,0.298499,-0.144674,-0.603280,-0.299125,19.229492,-37.954163,24.976440,,,,,,
1478384997.27,-2.826922,1.225813,-2.345692,1.229780,-1.764837,0.380564,-0.104668,-0.941081,0.321575,-0.026985,-0.425221,-0.692593,18.328247,-38.028580,25.567627,,,,,,
1478384997.29,-2.872914,1.189432,-2.337166,2.139186,-1.990938,0.375113,-0.098800,-0.928158,0.358834,0.129149,-0.068943,-1.279000,18.328247,-38.028580,25.567627,,,,,,
1478384997.31,-2.925461,1.132619,-2.322789,3.232878,-1.857036,0.434011,-0.090990,-0.905527,0.414418,0.117937,-0.227042,-1.556782,20.356934,-36.977875,26.259705,,,,,,
1478384997.33,-2.965865,1.053651,-2.314593,4.316863,-1.598225,0.679140,-0.086434,-0.869234,0.486787,0.361794,-0.798399,-1.655564,20.509979,-35.851532,27.607910,,,,,,
1478384997.35,-3.002717,0.955973,-2.310557,5.158680,-1.724377,0.575552,-0.079848,-0.816875,0.571261,0.594146,-0.944264,-1.900057,20.364288,-34.349884,29.251892,,,,,,
1478384997.37,-3.042982,0.846634,-2.303289,5.670963,-1.752891,0.440676,-0.065225,-0.749054,0.659290,0.844369,-1.073349,-2.195468,21.044708,-32.171967,32.177246,,,,,,
1478384997.39,-3.079565,0.731708,-2.319738,5.513420,-2.978864,1.393267,-0.046121,-0.668141,0.742603,0.275323,-1.279094,-1.415852,21.044708,-32.171967,32.177246,,,,,,
1478384997.41,-3.135311,0.648577,-2.349645,2.985157,-4.336879,1.056059,-0.005006,-0.604053,0.796929,-0.550749,-1.342984,-0.854683,23.547058,-24.893356,35.780396,,,,,,
1478384997.43,3.050256,0.601084,-2.357902,2.262875,-4.638491,-0.293308,0.075222,-0.565537,0.821285,-0.931866,-0.876525,0.739872,25.882812,-22.418121,36.021240,,,,,,
1478384997.45,3.002850,0.563777,-2.337387,1.637498,0.052711,-1.509108,0.116896,-0.534383,0.837120,-1.188704,-0.767726,1.425041,28.516998,-20.919754,34.393188,,,,,,
1478384997.47,3.032568,0.550865,-2.301073,-0.836388,3.102904,-1.507158,0.092713,-0.523424,0.847013,-1.650772,-0.570417,-0.336714,30.627319,-18.820328,33.807922,,,,,,
1478384997.49,3.085257,0.595963,-2.272300,-2.874180,3.768198,-0.741746,0.046599,-0.561306,0.826295,-0.893767,-0.693775,0.373915,30.627319,-18.820328,33.807922,,,,,,
1478384997.51,-3.120123,0.671329,-2.261197,-4.388405,4.154971,-0.229405,-0.016809,-0.622027,0.782815,-0.245184,0.024935,0.362586,26.948792,-18.667526,36.620728,,,,,,
1478384997.53,-3.056418,0.782493,-2.268936,-6.273889,1.990785,0.082956,-0.060330,-0.705050,0.706587,-0.012730,0.473284,0.049959,23.784821,-21.516724,37.422668,,,,,,
1478384997.55,-3.027628,0.924652,-2.299339,-7.641240,-0.655589,0.335061,-0.068471,-0.798411,0.598207,0.163747,0.534052,0.379836,21.668488,-25.568008,36.138611,,,,,,
1478384997.57,-3.012127,1.080670,-2.352830,-7.936452,-1.811581,0.579242,-0.060774,-0.882273,0.466798,0.481169,0.624201,1.069457,21.730194,-29.997406,31.727539,,,,,,
1478384997.59,-2.964639,1.238660,-2.442707,-8.305310,-1.402436,0.543489,-0.057397,-0.945348,0.320971,0.607507,0.873128,1.071286,21.730194,-29.997406,31.727539,,,,,,
1478384997.61,-2.705726,1.404964,-2.711565,-9.252407,0.412012,0.869497,-0.069693,-0.986281,0.149640,0.564063,0.768996,1.132678,22.617828,-34.803619,25.525818,,,,,,
1478384997.63,-1.180696,1.466002,2.057217,-9.440123,1.166235,1.623414,-0.096744,-0.994514,-0.039779,0.388828,0.341514,1.982177,22.008728,-41.342178,11.964417,,,,,,
1478384997.65,-0.539514,1.323306,1.430365,-7.646296,1.039864,1.293908,-0.125847,-0.969530,-0.210176,0.197746,0.354769,1.950670,20.736755,-43.224838,4.307312,,,,,,
1478384997.67,-0.346799,1.224242,1.256945,-4.589983,2.187806,-1.109046,-0.115446,-0.940549,-0.319438,-0.213838,0.439755,1.143839,19.393951,-43.831451,-2.304321,,,,,,
1478384997.69,-0.130073,1.163254,1.102807,-2.198838,4.537540,-1.946750,-0.051410,-0.918098,-0.393006,-0.559979,-0.276711,0.899872,19.393951,-43.831451,-2.304321,,,,,,
1478384997.71,0.022979,1.166702,1.073879,1.591197,6.952260,0.250341,0.009034,-0.919459,-0.393082,-0.399812,0.416010,1.502549,20.078461,-42.935120,-5.975220,,,,,,
1478384997.73,0.084732,1.238985,1.121274,4.606968,3.963351,1.545498,0.027569,-0.945454,-0.324588,-0.479794,0.945973,0.874164,23.001251,-41.955673,-1.523865,,,,,,
1478384997.75,0.042093,1.312646,1.238688,1.285511,4.302880,1.615444,0.010743,-0.966864,-0.255067,-0.084656,-0.001032,1.254517,22.541229,-42.400345,3.797791,,,,,,
1478384997.77,0.144019,1.343788,1.205038,2.205747,2.486120,-0.947893,0.032301,-0.974344,-0.222734,1.387926,-3.645743,-0.182708,20.581482,-43.371750,7.381165,,,,,,
1478384997.79,0.040419,1.406623,1.294492,3.288225,-1.828597,2.517699,0.006604,-0.986554,-0.163304,0.974628,-0.106037,0.488591,20.581482,-43.371750,7.381165,,,,,,
1478384997.81,-0.519198,1.463134,1.829011,3.577307,-0.867846,2.724914,-0.053317,-0.994210,-0.093294,0.183826,0.332574,1.698549,20.728271,-43.143906,10.231934,,,,,,
1478384997.83,-1.195143,1.467350,2.501886,2.273157,-0.373803,1.523097,-0.096061,-0.994654,-0.037885,-0.117165,0.825541,0.916608,18.475830,-42.916611,12.533691,,,,,,
1478384997.85,-1.627265,1.470863,2.914716,1.812135,-1.380876,-0.451714,-0.099609,-0.995011,0.005631,-0.506532,0.358414,0.651092,15.770020,-42.762283,16.856201,,,,,,
1478384997.87,-1.982827,1.474399,-3.039994,1.516020,-1.305115,-0.270389,-0.088193,-0.995357,0.038545,-0.841311,-0.434818,0.401259,16.672272,-41.861084,18.062561,,,,,,
1478384997.89,-2.146874,1.448653,-2.874650,1.400103,0.902203,1.060325,-0.102176,-0.992550,0.066371,-0.710813,-0.356556,0.458867,16.672272,-41.861084,18.062561,,,,,,
1478384997.91,-2.207941,1.418640,-2.784112,1.314126,1.300066,0.716169,-0.121832,-0.988447,0.090169,-0.102595,-0.035205,0.054072,16.371826,-41.635101,19.033875,,,,,,
1478384997.93,-2.270917,1.392256,-2.720178,1.201946,-0.858172,0.794442,-0.135817,-0.984104,0.114425,0.266249,-0.042935,-0.302368,15.094849,-41.633774,20.371094,,,,,,
1478384997.95,-2.335354,1.362817,-2.685386,1.258801,-1.620556,0.826634,-0.149017,-0.978450,0.142931,0.404144,-0.053975,-0.213137,14.871216,-40.656754,22.390930,,,,,,
1478384997.97,-2.409125,1.333947,-2.640647,1.470243,-1.537631,0.645598,-0.156906,-0.972082,0.174462,-0.043747,0.037374,-0.316918,14.647186,-40.206085,23.062317,,,,,,
1478384997.99,-2.475803,1.301124,-2.602647,1.647580,-1.355348,0.663503,-0.164559,-0.963858,0.209517,-0.236411,0.148841,-0.269026,14.647186,-40.206085,23.062317,,,,,,
1478384998.01,-2.535321,1.265496,-2.560220,1.875654,-0.782741,0.556495,-0.171272,-0.953757,0.247010,-0.141823,-0.014368,-0.228333,13.970856,-40.205185,23.955505,,,,,,
1478384998.03,-2.593691,1.226292,-2.520822,2.065925,-1.325547,0.526486,-0.175923,-0.941243,0.288293,0.031132,-0.314510,-0.390939,14.572571,-39.529282,24.859558,,,,,,
1478384998.05,-2.660602,1.182733,-2.489034,2.237175,-2.180555,0.630206,-0.175068,-0.925644,0.335463,0.288990,-0.391800,-0.451292,14.648926,-38.853165,25.983276,,,,,,
1478384998.07,-2.734458,1.132049,-2.463217,2.724182,-2.591360,0.570091,-0.168215,-0.905285,0.390082,0.178575,-0.260731,-0.622977,15.102875,-37.200836,28.307861,,,,,,
1478384998.09,-2.810322,1.070292,-2.431337,3.408552,-2.168519,0.379061,-0.156074,-0.877341,0.453777,0.271843,-0.457910,-1.119976,15.102875,-37.200836,28.307861,,,,,,
,,,,,,,,,,,,,,,,37.354415,-122.033301,39.083008,1.490000,106.875000,1478384998.00
