timestamp(unix),attitude_roll(radians),attitude_pitch(radians),attitude_yaw(radians),rotation_rate_x(radians/s),rotation_rate_y(radians/s),rotation_rate_z(radians/s),gravity_x(G),gravity_y(G),gravity_z(G),user_acc_x(G),user_acc_y(G),user_acc_z(G),magnetic_field_x(microteslas),magnetic_field_y(microteslas),magnetic_field_z(microteslas),latitude(degree),longitude(degree),altitude(meter),speed(m/s),course(degree),timestamp(unix)
1478385508.31,-0.870590,1.456599,-2.206999,-0.001819,0.121337,0.169108,-0.087138,-0.993487,-0.073426,-0.019765,0.017733,0.007310,-7.811218,-46.277008,27.130920,,,,,,
,,,,,,,,,,,,,,,,37.354371,-122.033716,39.508911,0.000000,73.476562,1478385597.92
1478385508.33,-0.872043,1.455502,-2.204136,-0.034475,-0.020363,0.108822,-0.088079,-0.993361,-0.074001,0.065695,-0.005693,-0.005452,-8.034851,-46.052231,26.903015,,,,,,
,,,,,,,,,,,,,,,,37.354371,-122.033716,39.508911,0.000000,73.476562,1478385597.00
1478385508.35,-0.877973,1.453648,-2.201974,-0.040226,-0.228092,0.052727,-0.089934,-0.993146,-0.074653,0.083540,0.000531,-0.016228,-7.959854,-46.052231,26.903809,,,,,,
1478385508.37,-0.891546,1.452533,-2.191073,-0.005672,-0.054326,0.027628,-0.091799,-0.993015,-0.074121,-0.038831,0.046497,0.025766,-7.810104,-46.127304,26.830505,,,,,,
1478385508.39,-0.892369,1.452175,-2.188289,0.003208,0.152452,0.004707,-0.092138,-0.992973,-0.074269,-0.025981,0.008125,0.030919,-7.810104,-46.127304,26.830505,,,,,,
1478385508.41,-0.881141,1.453843,-2.196870,0.021462,0.097841,-0.016787,-0.090020,-0.993169,-0.074244,0.062188,0.024175,-0.002797,-8.185654,-46.202164,26.976990,,,,,,
1478385508.43,-0.884529,1.453765,-2.193658,0.010358,-0.065888,0.037233,-0.090331,-0.993160,-0.073988,0.019912,-0.000264,-0.041368,-8.711639,-46.351944,27.197144,,,,,,
1478385508.45,-0.892306,1.452881,-2.187650,0.020040,-0.085885,0.057495,-0.091587,-0.993056,-0.073834,-0.001965,0.008834,-0.012103,-8.259171,-45.827011,27.125122,,,,,,
,,,,,,,,,,,,,,,,37.354371,-122.033716,39.507690,0.000000,73.476562,1478385598.00
1478385508.47,-0.903686,1.452268,-2.177282,0.030586,-0.038820,0.064081,-0.092900,-0.992984,-0.073164,0.002781,0.016910,0.002714,-8.484604,-45.977158,26.973328,,,,,,
1478385508.49,-0.913310,1.452160,-2.167710,0.044344,0.001023,0.089853,-0.093684,-0.992971,-0.072332,0.029109,0.012350,0.001440,-8.484604,-45.977158,26.973328,,,,,,
1478385508.51,-0.932995,1.450652,-2.148273,0.053107,-0.041905,0.155992,-0.096293,-0.992791,-0.071366,0.009302,0.005807,-0.007583,-8.260971,-46.277161,26.976440,,,,,,
1478385508.53,-0.964840,1.448061,-2.117772,0.093868,-0.094240,0.228573,-0.100630,-0.992478,-0.069728,-0.003985,-0.002365,-0.007802,-9.085281,-46.051941,27.192505,,,,,,
1478385508.55,-1.003912,1.445205,-2.080642,0.124939,-0.135397,0.257361,-0.105668,-0.992124,-0.067266,0.025406,0.002851,-0.014613,-8.708939,-45.827164,26.970642,,,,,,
1478385508.57,-1.047225,1.442021,-2.040344,0.152864,-0.182726,0.306425,-0.111217,-0.991720,-0.064207,0.022426,0.018926,-0.008120,-8.784164,-45.827026,27.119812,,,,,,
1478385508.59,-1.092995,1.439119,-1.997762,0.193381,-0.189941,0.315018,-0.116593,-0.991343,-0.060374,0.040147,0.000910,-0.003591,-8.784164,-45.827026,27.119812,,,,,,
1478385508.61,-1.146909,1.435825,-1.946207,0.264452,-0.071663,0.367816,-0.122653,-0.990905,-0.055346,0.029803,-0.055314,0.051333,-9.610489,-45.976578,27.562073,,,,,,
1478385508.63,-1.210032,1.431470,-1.878460,0.399314,0.403772,0.372596,-0.129936,-0.990310,-0.049022,-0.050453,-0.122605,0.098811,-9.310730,-46.051651,27.490234,,,,,,
1478385508.65,-1.283501,1.426966,-1.788680,0.607588,0.927267,0.448119,-0.137460,-0.989674,-0.040615,0.003213,0.075673,-0.004383,-10.287292,-46.276291,27.856201,,,,,,
1478385508.67,-1.372641,1.420529,-1.679687,0.743213,0.869153,0.543285,-0.146773,-0.988731,-0.029471,0.047484,-0.066079,-0.028284,-12.463486,-46.049805,29.333679,,,,,,
1478385508.69,-1.474433,1.410059,-1.562585,0.866803,0.622103,0.726589,-0.159303,-0.987110,-0.015399,-0.011442,-0.028180,0.010317,-12.463486,-46.049805,29.333679,,,,,,
1478385508.71,-1.576457,1.394794,-1.445668,0.985911,0.735890,0.835020,-0.175092,-0.984552,0.000991,-0.096408,-0.022681,0.123643,-14.038681,-45.899231,29.917542,,,,,,
1478385508.73,-1.676419,1.375780,-1.327361,1.280889,0.810648,0.926554,-0.192702,-0.981045,0.020430,-0.141084,0.065227,0.260698,-14.334854,-44.923859,30.286682,,,,,,
1478385508.75,-1.790606,1.351967,-1.192035,1.708167,1.113325,0.939883,-0.211864,-0.976152,0.047335,-0.172688,0.237810,0.665785,-15.458130,-44.247971,31.173401,,,,,,
1478385508.77,-1.894367,1.323499,-1.057384,1.935318,1.371511,0.953809,-0.232082,-0.969577,0.077830,-0.168019,0.210849,0.354817,-16.580872,-43.497223,31.909912,,,,,,
1478385508.79,-1.977208,1.294235,-0.948618,1.751202,0.913248,0.793034,-0.250808,-0.962000,0.107941,0.063263,0.250895,0.131592,-16.580872,-43.497223,31.909912,,,,,,
1478385508.81,-2.037566,1.270257,-0.872262,1.317298,0.562685,0.525277,-0.264367,-0.955177,0.133217,0.114938,0.286400,-0.066017,-19.271912,-40.719864,34.274658,,,,,,
1478385508.83,-2.067961,1.256014,-0.825870,0.721578,0.786520,0.154114,-0.272128,-0.950864,0.147664,0.101305,0.226468,-0.228856,-20.017960,-39.594116,35.013855,,,,,,
1478385508.85,-2.064504,1.255156,-0.811295,-0.084466,0.858889,-0.146247,-0.273355,-0.950598,0.147109,0.201928,-0.019800,-0.610533,-20.541367,-39.068619,35.532104,,,,,,
1478385508.87,-2.046437,1.254441,-0.832138,-0.287260,-1.016669,0.487157,-0.276572,-0.950376,0.142457,0.317160,-0.856128,-0.978608,-22.193604,-39.368027,36.116394,,,,,,
1478385508.89,-2.066081,1.243998,-0.866944,-0.222113,-3.272120,0.679792,-0.282438,-0.947075,0.152572,0.485715,-0.369179,-0.253860,-22.193604,-39.368027,36.116394,,,,,,
1478385508.91,-2.105187,1.237319,-0.887190,-0.069748,-2.448359,0.360728,-0.281694,-0.944910,0.166715,0.084489,0.309397,0.196749,-20.693390,-39.292938,36.206177,,,,,,
1478385508.93,-2.119162,1.232210,-0.901816,-0.081656,-0.765969,0.327941,-0.283453,-0.943225,0.173150,-0.368174,-0.061932,0.305793,-18.968857,-39.142166,36.972961,,,,,,
1478385508.95,-2.112125,1.228195,-0.912440,-0.023619,0.015301,0.232965,-0.287907,-0.941884,0.173101,-0.234905,0.127568,0.194255,-18.519073,-39.066788,37.352234,,,,,,
1478385508.97,-2.113516,1.224310,-0.918288,0.029695,-0.665553,0.213021,-0.290798,-0.940572,0.175389,0.122814,0.142537,-0.125707,-19.345657,-39.291428,37.719666,,,,,,
1478385508.99,-2.131051,1.219699,-0.924755,0.033265,-1.397656,0.295419,-0.291349,-0.938996,0.182764,0.066693,-0.005767,-0.277872,-19.345657,-39.291428,37.719666,,,,,,
1478385509.01,-2.152365,1.213046,-0.930896,0.144613,-1.217345,0.347393,-0.292601,-0.936687,0.192359,-0.050523,0.020122,-0.121131,-18.820221,-39.216492,37.649658,,,,,,
1478385509.03,-2.170267,1.204616,-0.928079,0.347773,-0.482825,0.313441,-0.295619,-0.933702,0.202015,0.061656,0.064058,-0.001926,-17.619446,-38.840881,38.260559,,,,,,
1478385509.05,-2.181289,1.195086,-0.921462,0.361803,-0.204082,0.328121,-0.300653,-0.930247,0.210352,0.082559,-0.157323,0.009542,-18.144196,-38.540131,39.004364,,,,,,
1478385509.07,-2.190826,1.185152,-0.917377,0.338777,-0.301617,0.388713,-0.306139,-0.926556,0.218569,-0.000654,-0.023639,0.114545,-18.369644,-38.615067,39.077332,,,,,,
1478385509.09,-2.195159,1.174903,-0.916088,0.296473,-0.058224,0.409609,-0.312877,-0.922653,0.225433,-0.019169,-0.018738,0.121826,-18.369644,-38.615067,39.077332,,,,,,
1478385509.11,-2.192545,1.165568,-0.920027,0.153866,-0.095968,0.421010,-0.320453,-0.919012,0.229621,-0.004666,-0.090631,0.119759,-17.918976,-38.389832,39.306213,,,,,,
1478385509.13,-2.187278,1.158768,-0.928753,0.003590,-0.110258,0.343782,-0.326750,-0.916310,0.231539,-0.068682,0.004064,0.139921,-18.368179,-38.014236,39.900574,,,,,,
1478385509.15,-2.175667,1.154622,-0.939530,-0.091390,0.234220,0.267638,-0.332538,-0.914642,0.229887,-0.149838,-0.035462,0.140153,-19.342377,-37.713882,40.264954,,,,,,
1478385509.17,-2.155973,1.152262,-0.950822,-0.138508,0.607844,0.204479,-0.338799,-0.913686,0.224485,-0.076408,-0.031139,0.091143,-19.042831,-37.939255,39.893616,,,,,,
1478385509.19,-2.129712,1.150917,-0.960892,-0.134499,0.989269,0.153182,-0.345618,-0.913138,0.216164,-0.014474,-0.070947,0.048424,-19.042831,-37.939255,39.893616,,,,,,
1478385509.21,-2.097093,1.147316,-0.970639,-0.041532,1.322808,0.352988,-0.355325,-0.911664,0.206427,0.161828,0.021238,-0.063788,-19.493393,-38.164551,39.589783,,,,,,
1478385509.23,-2.057277,1.138349,-0.981804,0.041324,1.517217,0.611157,-0.370472,-0.907943,0.195934,0.139576,-0.164979,-0.081783,-20.693039,-38.089569,39.577545,,,,,,
1478385509.25,-2.016483,1.121701,-0.996030,0.128136,1.260486,1.066865,-0.391741,-0.900840,0.187153,0.393816,-0.148552,-0.119480,-23.617432,-38.240417,38.723816,,,,,,
1478385509.27,-1.975188,1.095061,-1.014342,0.216148,1.298938,1.577830,-0.421051,-0.888956,0.180201,0.434952,-0.231466,-0.018351,-25.867401,-38.240433,38.701294,,,,,,
1478385509.29,-1.930949,1.055739,-1.035352,0.274047,1.212134,2.331998,-0.460982,-0.870265,0.173595,0.571425,-0.312673,0.014515,-25.867401,-38.240433,38.701294,,,,,,
1478385509.31,-1.884734,0.998490,-1.064785,0.257435,1.123324,3.120221,-0.515103,-0.840654,0.167241,0.257305,-0.646711,-0.322911,-28.414902,-37.790771,38.374512,,,,,,
1478385509.33,-1.846762,0.932636,-1.085409,0.440929,0.970457,3.665015,-0.573178,-0.803193,0.162319,0.807263,-1.056182,-0.083233,-31.184555,-36.741180,37.968628,,,,,,
1478385509.35,-1.811898,0.846258,-1.104568,0.568593,0.879338,4.750504,-0.643619,-0.748806,0.158256,0.994708,-1.575032,-0.167412,-35.966125,-32.841751,37.384094,,,,,,
1478385509.37,-1.793505,0.736973,-1.119574,0.813365,0.155893,5.838729,-0.722218,-0.672050,0.163557,1.562000,-1.853677,-0.225645,-38.275208,-29.467239,36.900879,,,,,,
1478385509.39,-1.785037,0.607446,-1.135706,0.773205,-0.481797,6.780322,-0.802336,-0.570772,0.174573,1.703520,-2.476316,-0.138897,-38.275208,-29.467239,36.900879,,,,,,
1478385509.41,-1.832461,0.457885,-1.156959,0.809287,-4.805448,7.951235,-0.866457,-0.442052,0.232041,1.458025,-2.180721,-0.109696,-38.477585,-24.517487,36.658997,,,,,,
1478385509.43,-1.952406,0.303316,-1.194042,0.816010,-7.092402,7.490876,-0.885701,-0.298686,0.355415,0.666402,-2.411747,0.612694,-38.974518,-18.142044,37.084900,,,,,,
1478385509.45,-2.067149,0.181548,-1.228981,1.176068,-5.399818,5.517440,-0.864874,-0.180552,0.468395,0.472342,-2.104940,0.543461,-30.830688,-5.984818,44.329865,,,,,,
,,,,,,,,,,,,,,,,37.354371,-122.033716,39.509338,0.000000,73.476562,1478385599.00
1478385509.47,-2.140003,0.096546,-1.256256,0.815454,-2.855547,3.601720,-0.838406,-0.096396,0.536454,0.840527,-1.334619,0.575378,-26.544250,-2.682526,46.612823,,,,,,
1478385509.49,-2.172278,0.056425,-1.277106,-0.167062,-1.130213,1.483939,-0.823186,-0.056395,0.564964,0.457830,-1.072618,0.175713,-26.544250,-2.682526,46.612823,,,,,,
1478385509.51,-2.177114,0.061439,-1.296317,-1.390495,0.129281,-0.339590,-0.820202,-0.061401,0.568770,0.384945,-0.578919,-0.018538,-24.139572,-1.256378,47.757599,,,,,,
1478385509.53,-2.169617,0.111166,-1.313992,-2.562588,0.277557,-2.298571,-0.820902,-0.110937,0.560190,0.620936,-0.055475,-0.272653,-24.514999,-1.256088,48.053864,,,,,,
1478385509.55,-2.170465,0.204179,-1.328440,-3.570693,-0.457198,-4.085543,-0.808375,-0.202763,0.552646,0.836985,0.306263,-0.326526,-24.149246,-3.431458,47.689056,,,,,,
1478385509.57,-2.187126,0.330374,-1.337317,-4.137846,-1.267710,-5.384755,-0.771877,-0.324397,0.546784,0.857067,0.298213,-0.362183,-23.512985,-12.131714,47.421478,,,,,,
1478385509.59,-2.221695,0.476878,-1.336631,-4.382280,-1.858510,-6.258638,-0.706783,-0.459008,0.538303,0.683895,0.283196,-0.211459,-23.512985,-12.131714,47.421478,,,,,,
1478385509.61,-2.262677,0.638224,-1.314869,-4.176577,-1.046843,-7.248611,-0.618468,-0.595770,0.512402,0.267180,0.618872,0.080097,-21.590271,-18.131531,47.608734,,,,,,
1478385509.63,-2.305638,0.800423,-1.262402,-3.615102,-0.139047,-7.360528,-0.516687,-0.717651,0.466917,-0.085943,0.937469,0.224901,-17.040787,-24.132523,46.622192,,,,,,
1478385509.65,-2.366024,0.945831,-1.189721,-3.153088,-0.313261,-6.546065,-0.409620,-0.810983,0.417753,-0.496096,0.764810,0.540789,-13.685318,-28.933899,45.245178,,,,,,
1478385509.67,-2.466114,1.068357,-1.080507,-2.342788,-0.342946,-6.157969,-0.301108,-0.876411,0.375817,-1.303933,1.207450,1.000023,-7.186020,-35.687042,42.105438,,,,,,
1478385509.69,-2.614848,1.164998,-0.909541,-1.514143,0.699683,-5.429268,-0.198450,-0.918788,0.341243,-2.319967,1.477122,1.576879,-7.186020,-35.687042,42.105438,,,,,,
1478385509.71,-2.763044,1.211658,-0.737450,-0.159772,0.207671,-2.734773,-0.129893,-0.936200,0.326584,-2.833684,0.859174,1.463089,-4.643265,-37.562836,41.311493,,,,,,
1478385509.73,-2.816321,1.202655,-0.672510,1.322447,0.611470,-0.216018,-0.115006,-0.932998,0.341011,-3.074096,1.284972,1.636985,-2.166962,-37.563705,40.436249,,,,,,
1478385509.75,-2.784970,1.164129,-0.670014,1.993483,2.262877,1.141247,-0.138091,-0.918444,0.370663,-2.686112,1.526095,0.829791,-1.866745,-37.262955,41.188354,,,,,,
1478385509.77,-2.723202,1.112392,-0.704837,2.586300,-0.183903,1.856732,-0.179791,-0.896760,0.404348,-1.322239,2.310410,-0.396367,-3.513992,-36.286850,42.293945,,,,,,
1478385509.79,-2.671587,1.023024,-0.758269,3.166437,1.939502,3.984401,-0.235860,-0.853687,0.464315,0.262730,-3.051205,2.958643,-3.513992,-36.286850,42.293945,,,,,,
1478385509.81,-2.638451,0.954065,-0.811719,2.235728,-0.601436,2.298369,-0.278880,-0.815773,0.506696,-1.727499,0.108559,-0.281125,-6.349747,-31.858063,46.077332,,,,,,
1478385509.83,-2.600468,0.881418,-0.855113,2.612794,0.742658,3.034592,-0.327633,-0.771642,0.545184,-0.621830,2.652974,0.381986,-9.274582,-31.406815,47.321716,,,,,,
1478385509.85,-2.554451,0.820970,-0.868662,1.914048,1.705223,1.649212,-0.377546,-0.731807,0.567377,-0.391024,-1.706013,0.636327,-10.989304,-28.780792,48.346680,,,,,,
1478385509.87,-2.511576,0.778550,-0.893529,0.924517,1.497342,1.974924,-0.419441,-0.702248,0.575254,-0.429192,0.055626,0.717547,-13.606018,-26.604782,49.363983,,,,,,
1478385509.89,-2.462238,0.753976,-0.919266,0.049041,1.432167,1.259516,-0.458007,-0.684543,0.567125,-0.556305,-0.802442,0.777586,-13.606018,-26.604782,49.363983,,,,,,
1478385509.91,-2.417047,0.743772,-0.958197,-0.791725,0.642217,1.497344,-0.487764,-0.677069,0.551057,-0.680342,-1.970545,0.352828,-15.994186,-24.205490,48.657898,,,,,,
1478385509.93,-2.375585,0.738357,-0.998701,-0.774003,0.898904,1.094217,-0.512721,-0.673073,0.533000,-0.175359,-2.111747,-0.113353,-16.441360,-23.756012,48.127106,,,,,,
1478385509.95,-2.331850,0.740387,-1.028156,-0.919169,1.365104,0.504409,-0.534543,-0.674574,0.509131,0.479642,-2.968249,-0.567175,-16.213211,-23.381989,47.153229,,,,,,
1478385509.97,-2.285092,0.743951,-1.049979,-0.554901,1.635621,0.346592,-0.555936,-0.677200,0.482011,2.131193,-2.522339,-1.112886,-17.486847,-23.307678,46.465302,,,,,,
1478385509.99,-2.264597,0.734998,-1.072254,-0.253810,-1.310718,1.497181,-0.570336,-0.670585,0.474375,2.740151,-0.757607,-1.127115,-17.486847,-23.307678,46.465302,,,,,,
1478385510.01,-2.300633,0.681043,-1.129068,0.812603,-4.059378,4.751232,-0.579023,-0.629604,0.518008,2.332319,-0.605733,-0.587618,-17.408569,-23.008942,45.190186,,,,,,
1478385510.03,-2.325943,0.566122,-1.188460,2.641185,-2.303895,6.062716,-0.614568,-0.536363,0.578465,1.141637,-0.772597,-0.680760,-15.451508,-21.057816,46.328918,,,,,,
1478385510.05,-2.313338,0.441459,-1.226801,3.275564,1.165393,5.429105,-0.666119,-0.427259,0.611338,0.292325,-1.732622,-0.705149,-15.437531,-17.456314,47.818237,,,,,,
1478385510.07,-2.236928,0.320285,-1.243952,3.263785,4.588836,5.000449,-0.746236,-0.314837,0.586524,0.595143,-2.219693,-0.632407,-17.143051,-13.106277,47.863129,,,,,,
1478385510.09,-2.134189,0.206680,-1.251810,2.756340,4.923537,4.770776,-0.827455,-0.205211,0.522691,1.421831,-2.111866,-0.738970,-17.143051,-13.106277,47.863129,,,,,,
1478385510.11,-2.063546,0.105358,-1.254749,2.230157,2.357352,4.238206,-0.876150,-0.105164,0.470427,1.558431,-1.656479,-0.764586,-21.093430,-8.007385,46.758301,,,,,,
1478385510.13,-2.063697,0.024685,-1.260669,1.223247,-1.298666,3.293664,-0.880696,-0.024683,0.473039,1.164830,-1.747397,-0.243989,-27.500687,0.389313,43.444031,,,,,,
1478385510.15,-2.116481,-0.019506,-1.276895,-0.160235,-3.133844,1.693192,-0.854609,0.019504,0.518905,0.434138,-1.091709,0.502289,-27.190994,2.790054,44.189941,,,,,,
1478385510.17,-2.186417,-0.005907,-1.298725,-2.158687,-3.847145,-1.203398,-0.816401,0.005907,0.577456,0.336908,-0.281832,0.466429,-23.436325,4.140991,45.123413,,,,,,
1478385510.19,-2.268276,0.087862,-1.309719,-4.011259,-3.727604,-4.460706,-0.763507,-0.087749,0.639811,0.506320,0.245342,0.533590,-23.436325,4.140991,45.123413,,,,,,
1478385510.21,-2.304734,0.235330,-1.307619,-5.216957,-0.657897,-6.167041,-0.722077,-0.233164,0.651337,0.594452,0.404322,0.290054,-19.776337,1.518127,47.267914,,,,,,
1478385510.23,-2.286182,0.410042,-1.299989,-5.559959,2.199730,-7.048704,-0.692267,-0.398648,0.601537,0.010291,0.459485,0.131892,-16.951141,-3.580627,48.511475,,,,,,
1478385510.25,-2.223442,0.593701,-1.283876,-5.136702,3.986677,-7.933008,-0.658525,-0.559433,0.503368,0.205202,0.592209,0.040943,-17.310608,-17.382385,46.749237,,,,,,
1478385510.27,-2.172695,0.790198,-1.254664,-4.648751,2.804999,-9.010242,-0.580037,-0.710493,0.398444,0.575902,0.870267,-0.321585,-17.786728,-24.135223,43.914795,,,,,,
1478385510.29,-2.203050,0.989039,-1.204314,-4.245604,-1.201814,-8.853889,-0.443274,-0.835499,0.324731,0.920218,1.053257,-0.498147,-17.786728,-24.135223,43.914795,,,,,,
1478385510.31,-2.361326,1.166586,-1.108077,-3.958816,-4.750099,-7.885544,-0.276669,-0.919413,0.279523,-0.677051,0.010981,0.265658,-15.563354,-31.038177,40.957733,,,,,,
1478385510.33,-2.673194,1.318209,-0.885276,-4.042164,-4.895277,-6.971519,-0.112824,-0.968269,0.222992,-2.217499,-0.277458,1.730834,-8.906067,-35.690353,38.788239,,,,,,
1478385510.35,3.072119,1.417531,-0.421782,-3.404668,-3.067973,-4.190691,0.010598,-0.988278,0.152297,-3.459511,0.012722,2.677552,5.102478,-41.095596,33.544556,,,,,,
1478385510.37,2.800439,1.442238,-0.124522,-0.579471,3.082319,-0.831106,0.042894,-0.991748,0.120816,-4.265428,0.837192,3.586612,6.899750,-42.372604,31.541382,,,,,,
1478385510.39,2.908448,1.429922,-0.162189,1.270625,3.345008,0.927184,0.032440,-0.990094,0.136610,-2.819122,1.503155,1.820879,6.899750,-42.372604,31.541382,,,,,,
1478385510.41,-3.024856,1.341014,-0.520472,7.737717,-2.942881,4.847589,-0.026528,-0.973716,0.226216,-2.032844,0.844794,5.507396,5.925232,-42.072006,32.130676,,,,,,
1478385510.43,-2.642386,1.197201,-0.898292,5.759700,1.578086,5.523281,-0.174719,-0.931021,0.320426,-2.139047,-4.783777,-4.804266,4.279633,-40.344788,34.359009,,,,,,
1478385510.45,-2.559106,1.081862,-0.983722,3.424261,-2.454599,5.083961,-0.258375,-0.882834,0.392233,1.131818,3.396079,1.030573,0.153046,-39.290558,38.589661,,,,,,
,,,,,,,,,,,,,,,,37.354371,-122.033716,39.687561,0.000000,82.265625,1478385600.00
1478385510.47,-2.550536,0.985730,-1.014421,3.502006,1.481995,2.296727,-0.307738,-0.833675,0.458566,-1.465105,1.488735,1.210410,-6.658539,-34.485077,44.057129,,,,,,
1478385510.49,-2.489423,0.905597,-1.035523,2.457716,2.304460,3.134816,-0.374596,-0.786794,0.490544,-1.595497,-2.069804,0.709682,-6.658539,-34.485077,44.057129,,,,,,
1478385510.51,-2.434961,0.849317,-1.054940,1.525640,1.727523,1.939248,-0.428844,-0.750830,0.502343,0.049632,-0.129221,0.648094,-8.445770,-31.183685,45.454315,,,,,,
1478385510.53,-2.403676,0.808950,-1.072179,0.872115,0.705302,1.523957,-0.464370,-0.723563,0.510703,-0.641908,-1.799783,0.698022,-12.489044,-29.382751,46.383514,,,,,,
1478385510.55,-2.358150,0.784051,-1.090930,0.250527,2.141510,1.440284,-0.499693,-0.706153,0.501652,-1.055254,-2.700478,-0.061207,-13.157974,-28.032761,46.372772,,,,,,
1478385510.57,-2.292551,0.762690,-1.118737,-0.126118,2.241451,1.259340,-0.542703,-0.690869,0.477675,0.365976,-2.041172,-0.884505,-16.374939,-26.458405,45.735870,,,,,,
1478385510.59,-2.240711,0.759329,-1.137493,-0.609663,1.673200,0.114792,-0.568543,-0.688435,0.450351,1.387253,-1.154995,-0.937305,-16.374939,-26.458405,45.735870,,,,,,
1478385510.61,-2.213864,0.777618,-1.156008,-1.366147,0.148608,-0.427066,-0.570255,-0.701584,0.427304,2.014102,-1.007751,-0.667325,-18.846298,-25.859024,45.109344,,,,,,
1478385510.63,-2.228008,0.788809,-1.190065,-1.377759,-3.380145,1.196825,-0.557903,-0.709515,0.430504,1.406185,-1.336338,-0.409096,-17.267502,-25.485443,43.699005,,,,,,
1478385510.65,-2.258603,0.734809,-1.262302,0.753699,-4.160154,4.997697,-0.573267,-0.670445,0.471028,1.893015,-1.067332,0.144191,-15.694550,-26.161102,43.041779,,,,,,
1478385510.67,-2.310055,0.627873,-1.310312,2.810720,-3.428312,5.143251,-0.598031,-0.587425,0.545244,1.058038,0.235206,-0.325670,-14.118912,-25.785416,43.731415,,,,,,
1478385510.69,-2.305407,0.506054,-1.320598,4.378672,2.229158,4.537584,-0.649081,-0.484730,0.586286,0.382342,-1.076977,-0.464566,-14.118912,-25.785416,43.731415,,,,,,
1478385510.71,-2.213832,0.378263,-1.303697,4.666003,5.904794,4.491569,-0.743705,-0.369307,0.557239,0.906944,-2.452394,-0.640811,-14.692398,-18.807129,47.004730,,,,,,
1478385510.73,-2.107553,0.253426,-1.289831,3.520967,4.806793,5.031451,-0.831922,-0.250722,0.495019,1.646376,-2.640345,-0.748986,-19.391769,-13.257584,46.566071,,,,,,
1478385510.75,-2.043876,0.134228,-1.283424,3.113970,2.501737,4.970981,-0.882162,-0.133825,0.451531,1.660971,-1.637842,-0.989617,-25.063644,-7.559219,44.917267,,,,,,
1478385510.77,-2.021792,0.028763,-1.269710,2.657488,-0.061368,4.049635,-0.899641,-0.028759,0.435681,1.258376,-1.974980,-0.543042,-28.113724,-2.535767,43.371704,,,,,,
1478385510.79,-2.064925,-0.037106,-1.266801,0.992261,-2.905302,2.062334,-0.879776,0.037097,0.473938,0.889359,-1.776218,0.159210,-28.113724,-2.535767,43.371704,,,,,,
1478385510.81,-2.132029,-0.052632,-1.269780,-0.415375,-3.787625,-0.071908,-0.845428,0.052608,0.531493,0.786071,-0.670299,0.033311,-26.955185,5.039597,43.735565,,,,,,
1478385510.83,-2.220551,-0.004640,-1.280929,-2.618795,-4.534995,-2.630257,-0.796224,0.004640,0.604985,0.600758,-0.112779,0.426876,-23.356705,5.191055,45.196075,,,,,,
1478385510.85,-2.296275,0.107082,-1.285813,-4.401891,-3.062680,-4.954196,-0.743896,-0.106878,0.659693,0.210144,0.238607,0.411031,-19.846252,2.718353,47.488617,,,,,,
1478385510.87,-2.316286,0.260754,-1.280402,-5.209079,0.485814,-6.278162,-0.709918,-0.257809,0.655401,-0.051434,0.526012,0.421366,-17.622177,-2.454895,49.251373,,,,,,
1478385510.89,-2.270397,0.434553,-1.266624,-5.274868,3.488999,-7.388653,-0.693990,-0.421005,0.584066,0.173940,0.515503,0.208414,-17.622177,-2.454895,49.251373,,,,,,
1478385510.91,-2.202610,0.626370,-1.239440,-4.805236,4.187940,-8.785546,-0.653765,-0.586208,0.478488,0.519259,0.548274,-0.070133,-17.199799,-8.680176,48.974274,,,,,,
1478385510.93,-2.171033,0.829809,-1.191798,-4.142671,2.197498,-9.551655,-0.557025,-0.737803,0.381275,0.648898,0.688364,-0.517368,-18.529617,-22.485001,44.127380,,,,,,
1478385510.95,-2.240626,1.026833,-1.112771,-3.763379,-1.891824,-9.148765,-0.405707,-0.855664,0.321311,0.654196,0.242444,-0.524832,-16.606705,-29.312454,41.692108,,,,,,
1478385510.97,-2.466232,1.203250,-0.958437,-3.801204,-5.618536,-8.365244,-0.224643,-0.933212,0.280448,-0.563855,-0.556626,0.020608,-11.600266,-33.964035,40.106140,,,,,,
1478385510.99,-2.929446,1.349262,-0.611588,-4.716395,-6.608450,-7.068221,-0.046266,-0.975561,0.214801,-1.868361,-1.027261,1.631573,-11.600266,-33.964035,40.106140,,,,,,
1478385511.01,2.553056,1.421599,0.103874,-4.052259,-3.017955,-4.714139,0.082519,-0.988891,0.123636,-3.530975,-0.587312,2.877356,-2.238922,-37.716187,37.960999,,,,,,
1478385511.03,2.103413,1.409473,0.576331,-1.016263,2.559307,-1.955148,0.138375,-0.987016,0.081563,-3.478402,0.385392,3.171168,10.353180,-41.998764,30.374756,,,,,,
1478385511.05,2.182282,1.393476,0.534081,1.594002,0.990275,0.500311,0.144430,-0.984320,0.101264,-2.433461,1.397497,1.999627,10.803864,-41.773544,30.603638,,,,,,
1478385511.07,2.535758,1.380913,0.191952,3.034169,1.267242,2.420328,0.107480,-0.982026,0.155153,-3.382977,1.332673,1.358885,8.780365,-41.022293,31.856079,,,,,,
1478385511.09,3.069427,1.298661,-0.322092,7.767268,0.978028,6.028349,0.019380,-0.963199,0.268090,-0.830583,-2.071240,4.137428,8.780365,-41.022293,31.856079,,,,,,
1478385511.11,-2.800061,1.186109,-0.767692,4.300773,-3.845003,6.865926,-0.125689,-0.926916,0.353594,-3.121808,-1.530573,-4.160479,8.033752,-39.520050,34.094116,,,,,,
1478385511.13,-2.724339,1.071788,-0.915595,4.313998,-1.574437,3.629533,-0.193935,-0.878057,0.437498,0.277889,5.355383,2.366411,3.311249,-37.189697,39.439911,,,,,,
1478385511.15,-2.671870,0.974284,-0.937543,3.905000,2.999046,2.942655,-0.254275,-0.827300,0.500918,-2.185484,-0.045365,1.412473,-3.358353,-34.334747,44.389648,,,,,,
1478385511.17,-2.598271,0.895285,-0.982636,2.232958,1.241285,2.284241,-0.323267,-0.780387,0.535252,-0.522818,-1.556756,0.516887,-5.142899,-30.358124,46.009888,,,,,,
1478385511.19,-2.555075,0.847886,-0.998587,1.460448,1.748605,1.848377,-0.366155,-0.749883,0.551004,-0.178950,-0.156229,1.217902,-5.142899,-30.358124,46.009888,,,,,,
1478385511.21,-2.501358,0.815808,-1.013955,0.713238,2.381138,0.810310,-0.409375,-0.728280,0.549564,-0.641895,-2.416999,0.872249,-7.538467,-29.082260,46.882080,,,,,,
1478385511.23,-2.437371,0.798021,-1.033812,0.063736,2.588097,1.454008,-0.451995,-0.715976,0.532052,-0.768693,-2.602124,-0.428506,-9.555649,-27.282059,47.081512,,,,,,
1478385511.25,-2.364383,0.785457,-1.062196,-0.353960,2.595728,0.705407,-0.495860,-0.707148,0.504048,0.512065,-2.064504,-1.018147,-14.125305,-26.232483,46.657654,,,,,,
1478385511.27,-2.309685,0.795323,-1.071838,-0.738631,2.068665,-0.506133,-0.517492,-0.714089,0.471464,1.946051,-1.822043,-1.228101,-14.125305,-26.232483,46.657654,,,,,,
1478385511.29,-2.284346,0.814749,-1.087217,-1.006555,-0.505111,-0.058531,-0.518684,-0.727553,0.449035,2.546089,-1.220658,-0.945984,-15.997803,-26.008469,45.663269,,,,,,
1478385511.31,-2.299535,0.786743,-1.144394,0.220193,-3.541615,4.328603,-0.526802,-0.708057,0.470249,2.060005,-1.532833,0.197567,-15.919525,-25.709747,44.388184,,,,,,
1478385511.33,-2.325697,0.667934,-1.211589,3.028677,-3.367049,6.360766,-0.571821,-0.619366,0.537965,1.626585,-0.081074,-0.312517,-14.571243,-26.084732,44.402771,,,,,,
1478385511.35,-2.328845,0.524083,-1.245214,4.408842,0.546205,6.034173,-0.628714,-0.500419,0.595231,0.741537,-1.731850,-0.651627,-14.564499,-24.208618,45.522217,,,,,,
1478385511.37,-2.264966,0.373854,-1.257638,4.516798,4.021677,5.992637,-0.715496,-0.365206,0.595558,0.703610,-3.189421,-0.742653,-16.545959,-13.781342,47.796143,,,,,,
1478385511.39,-2.173757,0.229033,-1.265030,3.811748,4.281077,5.952593,-0.802151,-0.227036,0.552275,1.299924,-2.627609,-0.748686,-16.545959,-13.781342,47.796143,,,,,,
1478385511.41,-2.102824,0.096212,-1.268987,3.229055,3.068441,5.476001,-0.857795,-0.096063,0.504935,1.615104,-1.919562,-0.866370,-21.466385,-7.557388,46.753235,,,,,,
1478385511.43,-2.061295,-0.018055,-1.261072,3.031623,1.335146,4.351182,-0.881954,0.018054,0.470989,1.332455,-1.886691,-0.825237,-25.715210,-2.158646,45.494537,,,,,,
1478385511.45,-2.071591,-0.099372,-1.255843,1.378186,-1.620087,2.868959,-0.872874,0.099208,0.477754,1.233454,-1.931377,-0.194948,-26.964310,2.864151,43.291992,,,,,,
1478385511.47,-2.129845,-0.125814,-1.267783,-0.371973,-3.439596,0.462301,-0.841059,0.125482,0.526188,0.688563,-0.672510,0.312160,-24.166168,8.264923,44.053772,,,,,,
,,,,,,,,,,,,,,,,37.354382,-122.033672,38.826599,1.110000,84.726562,1478385601.00
1478385511.49,-2.224880,-0.078021,-1.278512,-2.924553,-5.319921,-2.942758,-0.791192,0.077942,0.606581,0.614419,0.286209,0.264039,-24.166168,8.264923,44.053772,,,,,,
1478385511.51,-2.330742,0.050470,-1.279757,-4.913873,-4.904063,-5.828746,-0.723951,-0.050449,0.688005,0.863324,0.497135,0.407271,-21.101227,6.842346,46.488678,,,,,,
1478385511.53,-2.397292,0.225730,-1.260854,-5.934279,-1.961412,-7.152613,-0.660271,-0.223818,0.716901,0.275216,0.654009,0.387622,-17.001160,2.044586,48.719086,,,,,,
1478385511.55,-2.392077,0.415260,-1.231879,-5.995879,2.339297,-7.646253,-0.623383,-0.403428,0.669805,-0.139084,0.647996,0.315317,-13.508057,-4.704391,49.749268,,,,,,
1478385511.57,-2.333289,0.615202,-1.182740,-5.394975,4.891282,-9.127568,-0.590538,-0.577124,0.564086,0.220344,0.805914,-0.122222,-12.715393,-12.130112,49.029449,,,,,,
1478385511.59,-2.295572,0.820927,-1.103588,-4.384486,3.797048,-9.658757,-0.510236,-0.731778,0.451841,0.549085,1.395337,-0.598356,-12.715393,-12.130112,49.029449,,,,,,
1478385511.61,-2.355874,1.012575,-0.992738,-3.839533,-0.069184,-9.123549,-0.374659,-0.848198,0.374419,0.720332,0.911873,-0.714034,-15.470444,-25.934814,44.318359,,,,,,
1478385511.63,-2.587926,1.182215,-0.782479,-3.609041,-3.375034,-8.923901,-0.199217,-0.925448,0.322273,-0.749377,-0.325117,-0.050712,-11.812744,-30.662476,41.669067,,,,,,
1478385511.65,-3.094490,1.312455,-0.355271,-4.423671,-5.961660,-7.952689,-0.012029,-0.966815,0.255194,-1.789958,-1.104215,0.983865,-5.001495,-34.414566,39.573425,,,,,,
1478385511.67,2.366778,1.361946,0.345013,-4.881532,-6.768993,-5.361577,0.145049,-0.978270,0.148152,-3.141188,-1.274812,2.333889,3.391846,-36.892548,36.589783,,,,,,
1478385511.69,1.961108,1.350483,0.719517,-1.634031,1.555747,-1.267681,0.202099,-0.975829,0.083147,-4.664090,0.167113,3.874067,3.391846,-36.892548,36.589783,,,,,,
1478385511.71,2.054817,1.345184,0.699547,1.187519,3.533959,0.601724,0.198006,-0.974657,0.104098,-3.169320,1.257601,2.182630,12.008881,-40.798981,30.162720,,,,,,
1478385511.73,2.388918,1.354411,0.403553,2.791432,1.600012,3.195461,0.146768,-0.976680,0.156702,-3.006051,1.481227,0.724020,10.434509,-40.272797,31.345398,,,,,,
1478385511.75,2.843654,1.309759,-0.068058,7.761858,-1.802823,3.533437,0.075760,-0.966123,0.246713,1.211593,0.183042,5.161948,7.657166,-39.895126,34.016479,,,,,,
1478385511.77,-2.987493,1.211897,-0.538143,2.942451,-8.733897,8.230549,-0.053913,-0.936284,0.347081,-7.022259,-3.593226,-7.426717,9.399750,-35.017197,36.944275,,,,,,
1478385511.79,-2.801284,1.095179,-0.807155,4.905832,2.736613,5.491894,-0.152833,-0.889010,0.431628,1.964906,7.429324,5.138608,9.399750,-35.017197,36.944275,,,,,,
1478385511.81,-2.706018,0.998962,-0.833320,3.635752,3.517339,2.107071,-0.228339,-0.840909,0.490645,-1.906305,-0.580782,0.832231,-3.212402,-35.535645,43.494720,,,,,,
1478385511.83,-2.638830,0.925936,-0.908880,1.698035,-0.517885,3.294574,-0.289633,-0.799184,0.526705,-0.720056,-1.855357,0.598173,-4.319916,-31.033798,45.345123,,,,,,
1478385511.85,-2.598622,0.884318,-0.931083,1.288598,2.002464,1.446014,-0.327482,-0.773483,0.542660,-0.859118,-0.723480,1.351215,-6.715057,-29.607773,46.366913,,,,,,
1478385511.87,-2.538453,0.855148,-0.954137,0.563308,2.080056,1.021871,-0.372164,-0.754668,0.540343,-0.353391,-2.879884,0.264833,-8.885971,-28.482117,47.016815,,,,,,
1478385511.89,-2.478805,0.837989,-0.974851,0.128319,2.343771,1.347708,-0.411622,-0.743300,0.527327,-0.242095,-2.350588,-0.687574,-8.885971,-28.482117,47.016815,,,,,,
1478385511.91,-2.416575,0.826332,-0.995524,-0.010873,2.392571,0.296273,-0.449335,-0.735451,0.507159,1.369837,-1.603401,-1.135104,-11.208801,-28.032227,46.917236,,,,,,
1478385511.93,-2.379963,0.828644,-0.995584,-0.203560,1.242570,0.027805,-0.466423,-0.737015,0.489140,1.716225,-1.009063,-0.900181,-14.577530,-26.832794,46.354980,,,,,,
1478385511.95,-2.371982,0.815206,-1.024636,0.000129,-1.998688,2.335583,-0.477161,-0.727867,0.492470,1.412967,-1.772240,-0.166100,-14.346466,-25.858902,45.229340,,,,,,
1478385511.96,-2.384010,0.730933,-1.098319,2.000487,-3.555389,5.833864,-0.511632,-0.667564,0.540917,1.565449,-0.947502,-0.167336,-14.119232,-25.108154,45.979370,,,,,,
1478385511.98,-2.403327,0.606475,-1.157715,3.532674,-1.710581,5.783909,-0.552984,-0.569975,0.607732,0.773153,-0.609819,-0.363240,-14.119232,-25.108154,45.979370,,,,,,
1478385512.00,-2.360565,0.471005,-1.178819,4.766931,3.622486,5.014368,-0.627352,-0.453782,0.632859,0.471499,-1.607543,-0.627793,-12.532959,-22.407547,46.587158,,,,,,
1478385512.02,-2.239190,0.328966,-1.171565,4.969337,7.339581,5.249314,-0.742734,-0.323065,0.586495,1.207715,-2.766443,-0.546807,-16.765335,-12.355820,48.314636,,,,,,
1478385512.04,-2.102695,0.183780,-1.164535,3.883072,6.018576,6.129512,-0.847332,-0.182747,0.498629,2.094220,-3.126671,-0.793033,-24.158493,-5.832504,46.646118,,,,,,
1478385512.06,-2.021363,0.043008,-1.163952,3.203227,3.109829,6.089344,-0.899368,-0.042994,0.435073,1.975189,-2.085866,-0.906539,-29.074860,0.463989,43.128082,,,,,,
1478385512.08,-1.977971,-0.082538,-1.150275,3.137266,1.559277,4.946026,-0.915117,0.082444,0.394668,1.683474,-1.808701,-0.734146,-29.074860,0.463989,43.128082,,,,,,
1478385512.10,-1.989052,-0.173799,-1.139162,1.597647,-2.047660,3.363913,-0.900032,0.172925,0.400048,1.460823,-2.330518,-0.207025,-30.169800,6.461929,41.074188,,,,,,
1478385512.12,-2.061210,-0.217343,-1.152260,-0.207581,-4.007345,1.566842,-0.861385,0.215636,0.459910,0.784404,-1.092772,0.231084,-30.294922,11.485413,39.557800,,,,,,
1478385512.14,-2.171001,-0.201281,-1.181300,-2.736226,-5.972514,-0.998628,-0.808560,0.199925,0.553409,0.570599,-0.146351,0.037839,-24.737320,14.188461,42.605316,,,,,,
1478385512.16,-2.299660,-0.100362,-1.209295,-4.951225,-5.800393,-4.297022,-0.742178,0.100194,0.662671,0.873068,0.285213,0.673160,-19.579620,11.341446,45.590424,,,,,,
1478385512.18,-2.376285,0.058682,-1.215202,-6.241482,-2.565629,-5.916508,-0.691567,-0.058649,0.719928,0.264397,0.470239,0.452848,-19.579620,11.341446,45.590424,,,,,,
1478385512.20,-2.377614,0.241568,-1.216141,-6.774488,1.504172,-6.565456,-0.671713,-0.239226,0.701123,0.001028,0.335982,0.404651,-16.312073,5.194641,48.791504,,,,,,
1478385512.22,-2.314069,0.443418,-1.200897,-6.330530,4.283995,-8.487676,-0.665055,-0.429030,0.611258,0.513367,0.298186,0.092691,-15.673782,-2.679489,49.646545,,,,,,
1478385512.24,-2.250113,0.662872,-1.156777,-5.393620,4.048185,-10.027360,-0.613243,-0.615383,0.495213,0.812096,0.593929,-0.325078,-18.066345,-18.958298,45.846436,,,,,,
1478385512.26,-2.256474,0.885569,-1.083387,-4.665106,0.985254,-10.372111,-0.489819,-0.774275,0.400718,0.757519,0.621611,-0.501747,-17.197815,-26.911194,42.954010,,,,,,
1478385512.28,-2.391079,1.091367,-0.953305,-4.191016,-2.636057,-9.679296,-0.314595,-0.887258,0.337347,0.038243,-0.309473,-0.169134,-17.197815,-26.911194,42.954010,,,,,,
1478385512.30,-2.748637,1.263495,-0.675668,-4.453527,-6.316950,-8.742187,-0.115829,-0.953153,0.279432,-1.987244,-0.934252,0.901399,-11.895981,-32.913742,40.400024,,,,,,
1478385512.32,2.804471,1.376157,-0.074390,-5.268405,-7.217722,-6.446838,0.063976,-0.981117,0.182526,-3.060954,-1.020882,2.659103,-4.036209,-36.815308,38.840332,,,,,,
1478385512.34,2.208013,1.389934,0.472795,-2.201529,0.483385,-1.976749,0.144578,-0.983689,0.107020,-5.144043,-0.015426,4.203877,4.730682,-39.743652,35.486755,,,,,,
1478385512.36,2.226484,1.382947,0.522095,0.856795,3.825499,0.187430,0.148020,-0.982408,0.113860,-3.620524,1.524049,2.635224,9.754425,-41.473022,31.117188,,,,,,
1478385512.38,2.549880,1.376759,0.242854,2.609215,1.344653,2.600426,0.107553,-0.981234,0.160040,-2.850580,1.754870,0.661722,9.754425,-41.473022,31.117188,,,,,,
1478385512.40,3.049258,1.277938,-0.279490,9.062482,1.032655,5.997693,0.026618,-0.957423,0.287460,1.284035,-3.673086,6.924683,7.127899,-41.095871,33.264771,,,,,,
1478385512.42,-2.842314,1.167913,-0.702645,4.336490,-4.834366,6.484037,-0.115595,-0.919934,0.374645,-4.896856,1.858579,-2.345577,8.571045,-35.917435,36.713684,,,,,,
1478385512.44,-2.729423,1.048463,-0.842326,4.612428,0.580434,3.389236,-0.199860,-0.866658,0.457122,0.290497,5.175023,1.513016,0.235260,-36.888153,40.983246,,,,,,
1478385512.46,-2.666155,0.954045,-0.855795,3.539776,2.301668,2.919862,-0.264744,-0.815762,0.514240,-2.348201,-1.530857,1.017223,-5.069580,-30.808365,45.786957,,,,,,
1478385512.48,-2.597702,0.876781,-0.909632,2.252664,1.539843,2.525553,-0.330989,-0.768684,0.547332,-0.500478,-0.881081,0.909135,-5.069580,-30.808365,45.786957,,,,,,
,,,,,,,,,,,,,,,,37.354387,-122.033636,38.330566,1.970000,84.726562,1478385602.00
1478385512.50,-2.540533,0.824465,-0.915783,1.942782,2.999313,1.523643,-0.383957,-0.734185,0.559955,-0.291778,-1.632011,0.832791,-7.987991,-28.781662,47.476685,,,,,,
1478385512.52,-2.478882,0.784791,-0.926271,1.061909,2.914709,1.416104,-0.435316,-0.706677,0.557770,-1.026965,-3.118335,-0.199646,-10.829956,-26.755951,48.192200,,,,,,
1478385512.54,-2.392910,0.753387,-0.950016,0.387095,3.555447,1.755383,-0.496468,-0.684113,0.534330,0.325340,-2.161224,-1.013502,-12.923050,-25.331268,47.867004,,,,,,
1478385512.56,-2.315825,0.741038,-0.970729,-0.400800,2.750996,0.317976,-0.542310,-0.675054,0.500201,1.685056,-1.116480,-1.097125,-16.367493,-24.206619,47.529175,,,,,,
1478385512.58,-2.268149,0.760143,-0.987303,-1.523867,1.469463,-0.486683,-0.555543,-0.689025,0.465420,1.840974,-0.796418,-0.894604,-16.367493,-24.206619,47.529175,,,,,,
1478385512.60,-2.248417,0.777283,-1.033842,-1.948576,-2.225692,1.628574,-0.555336,-0.701345,0.446897,1.416603,-2.247813,-0.301496,-19.734909,-23.233749,45.392578,,,,,,
1478385512.62,-2.285520,0.716527,-1.130011,0.082632,-7.067542,5.781362,-0.569546,-0.656770,0.494238,2.174221,-0.862136,0.103678,-18.236969,-23.909409,44.734589,,,,,,
1478385512.64,-2.380266,0.607674,-1.208800,2.398170,-5.839085,6.059080,-0.566378,-0.570960,0.594324,1.293872,-0.137643,-0.029748,-15.910080,-23.233627,45.505829,,,,,,
1478385512.66,-2.392146,0.478695,-1.243464,4.544925,1.119857,4.971867,-0.604661,-0.460621,0.649780,-0.311523,-1.272945,-0.650375,-11.851242,-20.606644,47.488556,,,,,,
1478385512.68,-2.290815,0.344378,-1.237240,4.911944,7.299927,4.538632,-0.707653,-0.337611,0.620682,0.822735,-2.855184,-0.461701,-11.851242,-20.606644,47.488556,,,,,,
1478385512.70,-2.128102,0.214534,-1.224917,3.831273,8.033370,5.082596,-0.829228,-0.212892,0.516777,1.750859,-3.134001,-0.759407,-18.477570,-9.580994,48.139221,,,,,,
1478385512.72,-2.007191,0.092161,-1.216170,3.196826,4.961451,5.125395,-0.902436,-0.092031,0.420881,2.024155,-1.874644,-0.956312,-25.273682,-4.259308,44.830261,,,,,,
1478385512.74,-1.953282,-0.014337,-1.200538,2.367531,1.059436,4.167665,-0.927645,0.014337,0.373189,1.432741,-2.323266,-0.538106,-30.345917,0.912689,41.839050,,,,,,
1478385512.76,-1.973086,-0.085412,-1.190128,1.511554,-1.844733,2.512816,-0.916812,0.085308,0.390099,0.939609,-1.805508,0.282676,-31.598267,5.411102,40.237976,,,,,,
1478385512.78,-2.040956,-0.112214,-1.198247,-0.741576,-4.427991,0.466446,-0.885889,0.111979,0.450179,0.611994,-0.489359,0.394303,-31.598267,5.411102,40.237976,,,,,,
1478385512.80,-2.155678,-0.061650,-1.215445,-2.891025,-6.181349,-3.065773,-0.832194,0.061610,0.551052,0.699106,0.129445,0.316243,-30.911575,8.261856,40.986359,,,,,,
1478385512.82,-2.287959,0.065747,-1.227919,-5.303761,-6.675320,-5.428269,-0.752046,-0.065699,0.655829,0.684373,0.189067,0.486383,-22.303772,6.016602,45.729156,,,,,,
1478385512.84,-2.381875,0.243273,-1.233645,-6.795814,-3.036623,-6.491415,-0.668437,-0.240880,0.703682,0.124095,0.389440,0.527794,-16.710602,-0.055405,48.728302,,,,,,
1478385512.86,-2.375991,0.439705,-1.228296,-7.005322,2.390184,-7.270688,-0.627053,-0.425673,0.652386,-0.329948,0.554655,0.601109,-14.198364,-8.004089,50.052246,,,,,,
1478385512.88,-2.289893,0.653154,-1.203483,-6.297471,6.226995,-9.229074,-0.597535,-0.607694,0.523125,0.038926,0.735654,0.412132,-14.198364,-8.004089,50.052246,,,,,,
1478385512.90,-2.199918,0.882274,-1.141447,-4.764339,6.404891,-10.803976,-0.513747,-0.772186,0.373890,0.565215,1.236083,-0.204929,-14.607498,-16.180862,48.272705,,,,,,
1478385512.92,-2.213544,1.100648,-1.030834,-3.553975,1.989136,-10.294765,-0.362619,-0.891501,0.271538,0.985590,0.867926,-0.765144,-16.161346,-30.738632,40.500793,,,,,,
1478385512.94,-2.486742,1.283215,-0.780498,-2.858968,-4.280587,-9.390891,-0.172745,-0.958933,0.224961,-0.427643,-0.849722,-0.130235,-11.830887,-35.916138,38.009644,,,,,,
1478385512.96,2.994738,1.406544,-0.104582,-4.542350,-8.262216,-8.262629,0.023927,-0.986541,0.161755,-2.080659,-2.308198,1.486865,-3.665375,-38.542694,36.449219,,,,,,
1478385512.98,1.821194,1.395284,0.924111,-4.798048,-6.694569,-4.964815,0.169167,-0.984637,0.043267,-4.076303,-1.399564,2.963843,-3.665375,-38.542694,36.449219,,,,,,
1478385513.00,1.509597,1.354161,1.205108,-0.934740,1.293526,-0.837653,0.214543,-0.976626,-0.013146,-3.919087,1.158114,3.728005,6.981171,-40.721924,32.212219,,,,,,
1478385513.02,1.659062,1.359780,1.098366,1.946165,1.530866,0.621066,0.208638,-0.977819,0.018464,-2.526723,1.404668,2.234405,12.153564,-42.901749,27.395447,,,,,,
1478385513.04,1.992196,1.377038,0.784847,3.253419,1.739229,2.556690,0.175704,-0.981288,0.078760,-3.163954,0.900233,1.369910,10.428986,-42.074524,29.625732,,,,,,
1478385513.06,2.604126,1.395919,0.215156,3.208717,3.026035,4.612591,0.089075,-0.984748,0.149456,-2.023096,0.461219,0.435886,7.879333,-41.172073,32.072571,,,,,,
1478385513.08,-3.078257,1.286986,-0.336054,4.147295,6.537749,6.539566,-0.017723,-0.959996,0.279454,4.467400,-6.816692,-0.001835,7.879333,-41.172073,32.072571,,,,,,
1478385513.10,-2.781675,1.176160,-0.793076,4.661168,-5.104752,7.151623,-0.135410,-0.923137,0.359837,-1.721325,6.451274,1.716914,6.992340,-36.892899,36.250793,,,,,,
1478385513.12,-2.675306,1.048773,-0.874238,4.758093,2.300213,2.685856,-0.224173,-0.866812,0.445402,-1.917902,1.881506,1.934725,-1.872604,-38.989227,39.918427,,,,,,
1478385513.14,-2.602093,0.958163,-0.893423,2.969604,1.572021,3.297221,-0.295394,-0.818137,0.493351,-1.205934,-2.647333,0.455838,-7.098740,-31.858749,45.394806,,,,,,
1478385513.16,-2.546818,0.890970,-0.939901,1.755249,1.269189,1.999348,-0.352251,-0.777682,0.520702,-1.114714,-0.003003,1.064458,-8.738892,-29.458099,46.046234,,,,,,
1478385513.18,-2.487447,0.849816,-0.957125,1.082343,2.311539,1.655944,-0.401672,-0.751159,0.523851,-0.397797,-1.853074,0.772978,-8.738892,-29.458099,46.046234,,,,,,
1478385513.20,-2.439357,0.825615,-0.971951,0.443007,2.026350,0.940341,-0.438006,-0.734965,0.517666,-0.976316,-2.622335,-0.161510,-11.207321,-27.807526,46.616608,,,,,,
1478385513.22,-2.366465,0.806758,-0.992834,0.054795,3.271168,1.198443,-0.484157,-0.722048,0.494205,0.150355,-2.193464,-0.939212,-13.229935,-27.132095,47.044312,,,,,,
1478385513.24,-2.289446,0.804850,-1.007356,-0.539384,3.202353,-0.176771,-0.521783,-0.720727,0.456394,1.613534,-1.493614,-1.024067,-16.828186,-26.832367,46.782440,,,,,,
1478385513.26,-2.239681,0.828304,-1.022231,-1.384869,0.949458,-0.557319,-0.530430,-0.736786,0.419273,2.549992,-1.288833,-0.791038,-19.220291,-25.934937,44.205841,,,,,,
1478385513.28,-2.242789,0.823913,-1.071275,-0.807516,-3.525670,3.126002,-0.531652,-0.733810,0.422930,1.567128,-2.207017,0.575864,-19.220291,-25.934937,44.205841,,,,,,
1478385513.30,-2.285021,0.713606,-1.150347,2.265369,-5.562104,6.864156,-0.571240,-0.654564,0.495208,1.845699,-0.001472,0.258622,-18.171204,-26.385666,43.467682,,,,,,
1478385513.32,-2.334364,0.569008,-1.197839,4.194515,-2.168496,6.369346,-0.608554,-0.538797,0.582547,0.695239,-0.987677,-0.618130,-16.590805,-24.734299,44.828552,,,,,,
1478385513.34,-2.306198,0.411475,-1.207565,5.380534,3.086194,5.931785,-0.679665,-0.399961,0.614887,0.319176,-2.606829,-0.637852,-15.899811,-20.381912,47.222382,,,,,,
1478385513.36,-2.201174,0.253206,-1.205254,4.824471,6.124458,6.122944,-0.782047,-0.250509,0.570655,1.261585,-3.839960,-0.478278,-21.239502,-7.107300,46.829163,,,,,,
1478385513.38,-2.085568,0.106245,-1.204429,3.616276,5.223254,6.184606,-0.865497,-0.106045,0.489560,1.976810,-2.926548,-0.999707,-21.239502,-7.107300,46.829163,,,,,,
1478385513.40,-2.009596,-0.031828,-1.195523,3.551583,2.919259,5.659970,-0.904804,0.031823,0.424638,1.872379,-1.802849,-1.059740,-26.307007,-0.810089,44.059601,,,,,,
1478385513.42,-1.986899,-0.141514,-1.177690,2.469457,-0.276436,3.879989,-0.905528,0.141042,0.400159,1.598521,-2.555715,-0.387479,-30.329025,4.662689,41.827972,,,,,,
1478385513.44,-2.019070,-0.198779,-1.177578,0.671590,-2.264228,1.961055,-0.883450,0.197473,0.424876,1.005994,-1.410913,0.122487,-29.851562,10.135803,39.941284,,,,,,
1478385513.46,-2.098432,-0.208340,-1.186949,-1.030039,-4.897133,-0.393267,-0.845317,0.206836,0.492604,0.484294,-0.052112,0.247737,-27.591461,12.536270,40.406708,,,,,,
1478385513.48,-2.219742,-0.128075,-1.200898,-3.773935,-6.305424,-4.599746,-0.790196,0.127725,0.599397,0.548222,0.658652,0.364852,-27.591461,12.536270,40.406708,,,,,,
1478385513.50,-2.333336,0.038119,-1.192685,-5.755426,-4.947569,-7.331413,-0.722558,-0.038110,0.690259,0.537820,0.972497,0.634998,-21.085693,9.840988,45.129822,,,,,,
1478385513.52,-2.387669,0.233659,-1.177443,-6.785555,-0.966809,-7.239987,-0.665904,-0.231539,0.709198,0.302638,0.870714,0.241211,-17.294815,3.319199,48.337341,,,,,,
,,,,,,,,,,,,,,,,37.354396,-122.033590,38.183960,3.460000,81.914062,1478385603.00
1478385513.54,-2.357831,0.435215,-1.161949,-6.596302,3.067455,-7.962566,-0.640139,-0.421605,0.642238,0.321078,0.396963,-0.053325,-14.930893,-4.329712,49.433929,,,,,,
1478385513.56,-2.303617,0.651946,-1.120647,-6.004712,3.812824,-9.619814,-0.590845,-0.606735,0.531767,0.350122,0.802779,-0.252515,-15.340118,-12.355957,48.178925,,,,,,
1478385513.58,-2.290572,0.875382,-1.057063,-5.461858,2.183310,-9.881910,-0.481779,-0.767788,0.422362,0.411680,1.260235,-0.339263,-15.340118,-12.355957,48.178925,,,,,,
1478385513.60,-2.364126,1.077863,-0.952628,-4.301382,-0.531922,-9.126644,-0.331947,-0.880949,0.337255,0.013420,0.845853,-0.514486,-15.404007,-28.261078,43.050964,,,,,,
1478385513.62,-2.637691,1.247248,-0.721494,-3.917466,-4.273219,-8.444999,-0.153513,-0.948113,0.278416,-1.343283,-0.148063,0.860806,-10.473251,-33.514023,40.116058,,,,,,
1478385513.64,3.005226,1.365663,-0.190306,-4.638331,-7.805978,-7.381139,0.027692,-0.979034,0.201806,-2.522382,-1.314499,1.432105,-3.061111,-37.116272,37.875977,,,,,,
1478385513.66,2.213058,1.391982,0.476172,-3.374238,-4.494952,-2.706168,0.142423,-0.984055,0.106541,-4.394086,-0.967666,3.400111,6.534119,-39.369843,34.303711,,,,,,
1478385513.68,2.078733,1.394007,0.628294,0.145313,3.147617,0.207856,0.153666,-0.984413,0.085539,-3.856639,1.197121,3.293505,6.534119,-39.369843,34.303711,,,,,,
1478385513.70,2.368952,1.394329,0.394625,2.273480,2.377411,1.884725,0.122541,-0.984470,0.125708,-2.433119,1.389301,1.287957,10.280853,-41.398773,30.372192,,,,,,
1478385513.72,2.819326,1.371305,-0.028656,3.645869,1.009730,3.359910,0.062764,-0.980168,0.187969,-1.907369,0.965840,1.509999,8.179474,-41.021698,32.450134,,,,,,
1478385513.74,-2.967124,1.237485,-0.466760,3.783499,7.410177,7.327713,-0.056792,-0.944964,0.322207,0.874541,-7.045393,-3.574221,8.042969,-37.269455,34.687500,,,,,,
1478385513.76,-2.787069,1.126684,-0.784009,4.168671,-2.350594,6.498080,-0.149152,-0.902992,0.402937,-0.243548,6.266518,4.705019,-1.568420,-37.713181,40.967682,,,,,,
1478385513.78,-2.670753,1.014123,-0.860647,4.163376,3.501782,2.246891,-0.239685,-0.849018,0.470872,-1.766785,0.998432,1.258391,-1.568420,-37.713181,40.967682,,,,,,
1478385513.80,-2.587518,0.931363,-0.893556,2.216230,0.682917,3.336224,-0.313979,-0.802434,0.507461,-1.067201,-3.049922,-0.052078,-4.867462,-36.735886,43.256775,,,,,,
1478385513.82,-2.544287,0.877077,-0.932757,1.482952,1.787423,1.962927,-0.359610,-0.768873,0.528692,-0.883936,-0.630846,1.378520,-8.438766,-29.458176,45.974213,,,,,,
1478385513.84,-2.482537,0.837763,-0.953468,0.922266,2.011523,1.513831,-0.409754,-0.743148,0.528992,-0.422003,-2.822190,0.043731,-10.534241,-28.257584,46.549683,,,,,,
1478385513.86,-2.425470,0.811818,-0.974832,0.368904,2.457936,1.448922,-0.451767,-0.725539,0.519134,-0.298905,-2.598588,-0.675155,-13.680923,-27.357086,47.040497,,,,,,
1478385513.88,-2.349094,0.793964,-0.996968,-0.015170,3.255097,0.679046,-0.499206,-0.713138,0.492167,1.416854,-1.680615,-1.008509,-13.680923,-27.357086,47.040497,,,,,,
1478385513.90,-2.293667,0.805646,-1.004023,-1.007004,1.715131,-0.539575,-0.519421,-0.721278,0.458213,2.381696,-1.418904,-0.980781,-16.152512,-26.757568,46.563995,,,,,,
1478385513.92,-2.284866,0.812405,-1.036612,-0.993928,-2.579138,1.667748,-0.519738,-0.725943,0.450420,1.458932,-1.768182,-0.440685,-17.948227,-26.158646,45.494232,,,,,,
1478385513.94,-2.311149,0.739092,-1.119808,1.368919,-4.779848,6.078389,-0.545612,-0.673617,0.498546,1.903766,-0.586439,0.171178,-16.142853,-25.409973,44.160034,,,,,,
1478385513.96,-2.357790,0.614045,-1.184330,3.068319,-3.540594,6.112534,-0.577012,-0.576179,0.578857,0.891618,-0.478723,-0.425109,-14.708618,-22.783249,45.891479,,,,,,
1478385513.98,-2.353616,0.479628,-1.215533,4.320920,1.406607,5.372947,-0.628937,-0.461449,0.625702,0.105851,-1.570655,-0.639572,-14.708618,-22.783249,45.891479,,,,,,
1478385514.00,-2.261800,0.339956,-1.215344,4.812204,6.141089,5.107967,-0.726504,-0.333446,0.600837,0.720035,-2.457616,-0.423194,-13.267075,-18.581665,47.468323,,,,,,
1478385514.02,-2.126549,0.202890,-1.206014,3.925662,6.726180,5.500145,-0.832079,-0.201500,0.516761,1.783922,-2.826072,-0.601570,-16.242950,-13.031113,48.021912,,,,,,
1478385514.04,-2.026867,0.070255,-1.206007,2.967321,3.831066,5.883694,-0.895575,-0.070197,0.439337,2.035254,-2.144143,-1.160300,-28.483765,-1.335480,43.664398,,,,,,
1478385514.06,-1.982651,-0.053055,-1.195303,3.042458,1.246286,4.947187,-0.915091,0.053030,0.399746,1.727545,-1.775686,-0.881329,-30.107193,3.837311,41.457642,,,,,,
1478385514.08,-1.998532,-0.144772,-1.182462,1.917283,-2.096740,3.263952,-0.900389,0.144266,0.410472,1.192152,-1.941141,-0.227199,-30.107193,3.837311,41.457642,,,,,,
1478385514.10,-2.063818,-0.186744,-1.183315,0.322200,-3.671861,1.078331,-0.865591,0.185661,0.465062,0.668020,-1.016456,0.188747,-29.933533,8.786407,40.544525,,,,,,
1478385514.12,-2.155397,-0.168961,-1.193352,-1.866163,-5.131238,-1.505456,-0.822057,0.168158,0.544008,0.589315,-0.362448,0.103468,-27.598434,11.262100,41.235474,,,,,,
1478385514.14,-2.275688,-0.077388,-1.207797,-4.171127,-6.161155,-4.190834,-0.759402,0.077311,0.646012,0.964084,-0.107722,0.636673,-23.699829,11.714386,43.523102,,,,,,
1478385514.16,-2.387282,0.076503,-1.213965,-6.317798,-4.927533,-5.837614,-0.682784,-0.076428,0.726612,0.463576,-0.012668,0.564358,-14.369766,3.544830,48.965881,,,,,,
1478385514.18,-2.445979,0.263206,-1.213305,-7.218208,-1.478373,-6.337193,-0.618786,-0.260177,0.741223,0.106854,0.117324,0.455142,-14.369766,3.544830,48.965881,,,,,,
1478385514.20,-2.434369,0.462539,-1.198083,-7.145082,2.029593,-7.487722,-0.581454,-0.446222,0.680292,0.136813,0.032541,0.323248,-11.407303,-4.403992,50.144348,,,,,,
1478385514.22,-2.391780,0.681283,-1.151382,-6.499852,4.163240,-9.431670,-0.529367,-0.629790,0.568450,-0.038352,0.663680,0.317140,-10.091232,-12.129547,49.580719,,,,,,
1478385514.24,-2.364967,0.898464,-1.057874,-5.082073,4.635833,-9.885188,-0.436515,-0.782371,0.444241,0.326194,1.342735,-0.005292,-11.323868,-20.006424,47.717041,,,,,,
1478385514.26,-2.423444,1.090448,-0.918652,-3.853855,1.452692,-9.015701,-0.304050,-0.886834,0.347964,-0.251141,0.619363,-0.108630,-9.347137,-32.837738,41.400299,,,,,,
1478385514.28,-2.716029,1.241782,-0.647865,-3.343729,-4.347193,-8.206996,-0.133391,-0.946361,0.294291,-1.777498,0.036098,0.825475,-9.347137,-32.837738,41.400299,,,,,,
1478385514.30,2.968300,1.335823,-0.161498,-3.747578,-7.106845,-6.484446,0.040144,-0.972521,0.229330,-2.992216,-0.023924,2.177546,-4.259369,-36.214706,39.436279,,,,,,
1478385514.32,2.497826,1.352062,0.237218,-1.509670,-1.245667,-1.864871,0.130243,-0.976173,0.173561,-5.451059,0.197715,3.835015,3.083099,-38.692108,37.042114,,,,,,
1478385514.34,2.576412,1.353220,0.220643,0.855510,4.848720,0.800353,0.115610,-0.976424,0.182295,-4.180688,1.439711,2.627275,8.481049,-40.044815,34.325195,,,,,,
1478385514.36,2.855401,1.334259,0.005854,2.677005,1.550672,2.762483,0.066154,-0.972155,0.224806,-1.757758,1.875445,1.433626,4.129883,-39.442230,36.904846,,,,,,
1478385514.38,-3.003549,1.215655,-0.421275,3.219156,4.960826,8.545493,-0.047848,-0.937598,0.344415,-2.992130,-6.982934,-4.153955,4.129883,-39.442230,36.904846,,,,,,
1478385514.40,-2.773210,1.091251,-0.725109,4.113096,-2.330463,6.413652,-0.166145,-0.887205,0.430422,0.383964,3.957563,3.377973,2.713379,-35.912308,41.830078,,,,,,
1478385514.42,-2.689987,0.974309,-0.807089,4.727764,1.513621,2.058654,-0.245149,-0.827314,0.505424,-1.642775,2.308256,0.419411,-2.985168,-34.784897,44.244751,,,,,,
1478385514.44,-2.615486,0.878050,-0.827284,3.519347,2.566724,4.030688,-0.320712,-0.769495,0.552287,-1.933636,-2.550833,0.584813,-6.427109,-32.232620,46.527649,,,,,,
1478385514.46,-2.541408,0.799730,-0.868409,2.330950,2.801018,2.041999,-0.393606,-0.717168,0.575104,0.253545,0.234242,1.441726,-8.358582,-27.656219,47.919617,,,,,,
1478385514.48,-2.484068,0.751742,-0.870019,1.474022,2.072195,1.596177,-0.446452,-0.682912,0.578197,-0.930700,-2.214686,0.319356,-8.358582,-27.656219,47.919617,,,,,,
1478385514.50,-2.430195,0.719250,-0.893393,0.347803,2.472520,1.603866,-0.491171,-0.658821,0.569830,-1.467859,-3.025093,0.309717,-14.866043,-23.304871,49.266479,,,,,,
1478385514.52,-2.342709,0.699527,-0.926202,-0.429081,3.514537,1.532728,-0.548287,-0.643856,0.533695,0.373696,-2.637440,-0.675617,-17.034241,-21.955353,48.790771,,,,,,
,,,,,,,,,,,,,,,,37.354406,-122.033543,37.783844,3.630000,80.507812,1478385604.00
1478385514.54,-2.254100,0.704206,-0.953440,-1.203207,3.520400,-0.323384,-0.591021,-0.647429,0.481175,1.811572,-1.720414,-1.013523,-19.279709,-21.281342,47.791290,,,,,,
1478385514.56,-2.191292,0.744877,-0.976427,-2.245765,1.339269,-1.244698,-0.598128,-0.677881,0.427457,2.288909,-1.126822,-1.113584,-21.601990,-21.207947,46.192841,,,,,,
1478385514.58,-2.201973,0.766672,-1.030101,-2.025396,-4.582997,2.092103,-0.581461,-0.693742,0.425000,1.986398,-2.701003,0.432162,-21.601990,-21.207947,46.192841,,,,,,
1478385514.60,-2.278640,0.680723,-1.127811,0.785291,-8.455977,6.710471,-0.590427,-0.629355,0.505280,2.126041,0.100287,0.354751,-20.334564,-23.610107,44.037720,,,,,,
1478385514.62,-2.379297,0.555618,-1.193376,3.322541,-4.802773,5.961012,-0.586703,-0.527468,0.614457,0.573748,-0.221464,-0.278168,-15.453323,-21.507950,46.180237,,,,,,
1478385514.64,-2.370425,0.415942,-1.205995,5.396502,3.211369,4.793238,-0.637546,-0.404052,0.655955,-0.291760,-1.775147,-0.304590,-12.441986,-18.356064,48.075897,,,,,,
1478385514.66,-2.230486,0.272180,-1.182143,5.644145,9.192061,4.590025,-0.761094,-0.268832,0.590310,1.248932,-3.371076,-0.218026,-14.215714,-12.205124,49.014679,,,,,,
1478385514.68,-2.060425,0.133721,-1.157267,3.992416,7.541777,5.595477,-0.874629,-0.133323,0.466100,2.444835,-3.294427,-0.771458,-14.215714,-12.205124,49.014679,,,,,,
1478385514.70,-1.966000,-0.003204,-1.147302,3.291197,3.251722,6.057903,-0.922914,0.003204,0.384994,1.985627,-1.740341,-1.061080,-21.306259,-5.156937,47.197662,,,,,,
1478385514.72,-1.943675,-0.127732,-1.130652,2.756599,-0.279751,4.940373,-0.923696,0.127385,0.361330,1.364339,-2.365178,-0.484438,-31.818192,6.536087,40.232422,,,,,,
1478385514.74,-1.977109,-0.208545,-1.120701,1.537026,-2.324566,2.802193,-0.898681,0.207037,0.386662,0.999222,-1.745901,0.170666,-30.444244,11.635422,39.555847,,,,,,
1478385514.76,-2.049200,-0.244743,-1.125727,-0.295438,-4.447082,0.960822,-0.861276,0.242307,0.446644,0.435205,-0.393811,0.485637,-27.430878,14.710739,39.876740,,,,,,
1478385514.78,-2.159810,-0.206654,-1.144498,-2.692173,-5.487130,-2.543155,-0.813797,0.205186,0.543721,0.400101,0.224486,0.424083,-27.430878,14.710739,39.876740,,,,,,
1478385514.80,-2.266861,-0.084625,-1.155370,-4.922802,-4.967162,-5.571377,-0.764626,0.084524,0.638908,0.575874,0.425486,0.457222,-24.731918,15.313232,42.376984,,,,,,
1478385514.82,-2.328700,0.090860,-1.154641,-6.248200,-1.597769,-6.897805,-0.723283,-0.090735,0.684565,0.483781,0.670080,0.426885,-16.978638,6.768738,47.880157,,,,,,
1478385514.84,-2.310833,0.282698,-1.150643,-6.452114,2.261134,-7.349103,-0.709132,-0.278948,0.647549,-0.104100,0.610704,0.287769,-16.792130,-1.329895,49.256317,,,,,,
1478385514.86,-2.242968,0.488046,-1.134209,-5.806225,4.339834,-8.980153,-0.691118,-0.468901,0.549989,0.236895,0.499022,0.048140,-18.850769,-8.980408,48.733673,,,,,,
1478385514.88,-2.190484,0.710943,-1.092366,-5.074104,2.914531,-10.428375,-0.616851,-0.652549,0.440085,0.694869,0.500586,-0.376242,-18.850769,-8.980408,48.733673,,,,,,
1478385514.90,-2.229653,0.937178,-1.019035,-4.442463,-0.379226,-10.502579,-0.468141,-0.805891,0.362470,0.717180,0.732359,-0.537946,-20.157532,-17.008316,45.819672,,,,,,
1478385514.92,-2.395621,1.140546,-0.878728,-4.128210,-3.519555,-9.515969,-0.283079,-0.908861,0.306329,-0.088808,0.113894,-0.419641,-18.766693,-25.410751,43.383789,,,,,,
1478385514.94,-2.788763,1.313428,-0.580847,-5.094746,-6.448448,-8.295954,-0.087956,-0.967063,0.238857,-1.468349,-0.222268,0.423237,-5.307785,-35.914871,39.274872,,,,,,
1478385514.96,2.567781,1.417585,0.233889,-5.678312,-5.846894,-6.889271,0.082844,-0.988286,0.128170,-2.507771,-1.105616,1.834339,2.931488,-39.443298,35.842834,,,,,,
1478385514.98,1.787252,1.386512,0.967877,-2.926025,-0.657400,-3.094403,0.178967,-0.983068,0.039355,-4.283612,-1.122539,3.284696,2.931488,-39.443298,35.842834,,,,,,
1478385515.00,1.733468,1.367596,1.052720,0.553364,1.735116,0.019861,0.199140,-0.979426,0.032683,-3.565183,1.012858,3.272721,9.903076,-41.923477,30.669983,,,,,,
1478385515.02,1.990967,1.387128,0.809189,2.684291,0.794546,2.440958,0.166752,-0.983180,0.074501,-2.966724,1.394466,1.977944,11.403046,-42.450027,29.111694,,,,,,
1478385515.04,2.532250,1.401794,0.287228,3.201754,1.867611,3.848717,0.096265,-0.985753,0.137927,-3.148481,1.086339,1.055188,6.749420,-41.845810,33.338257,,,,,,
1478385515.06,-3.136258,1.284868,-0.263688,5.659479,6.670619,6.469950,-0.001505,-0.959400,0.282044,4.518717,-2.584362,6.844283,7.669800,-36.142288,36.855347,,,,,,
1478385515.08,-2.803346,1.171964,-0.746906,5.358665,-5.802523,7.567642,-0.128865,-0.921515,0.366338,-7.977534,0.936270,-5.799184,7.669800,-36.142288,36.855347,,,,,,
1478385515.10,-2.668538,1.038931,-0.835067,4.968735,3.330557,2.579050,-0.231058,-0.861863,0.451448,2.003854,6.410416,4.060088,-1.494781,-38.088394,40.744537,,,,,,
1478385515.12,-2.603594,0.947286,-0.858840,2.835572,-0.099360,4.027506,-0.299196,-0.811834,0.501406,-1.727172,-1.144480,0.547163,-5.688049,-35.384781,44.369507,,,,,,
1478385515.14,-2.548924,0.877805,-0.912620,1.836500,1.357203,1.658945,-0.356842,-0.769338,0.529889,-0.868729,-1.648478,1.523181,-6.718201,-30.282700,46.443909,,,,,,
1478385515.16,-2.486599,0.836256,-0.929127,1.113042,2.860782,1.975939,-0.408283,-0.742139,0.531540,-0.402004,-1.144534,1.622086,-11.204285,-26.831635,47.513702,,,,,,
1478385515.18,-2.430689,0.810716,-0.946851,0.366577,2.004969,1.049170,-0.449572,-0.724781,0.522090,-0.529173,-3.201351,-0.410564,-11.204285,-26.831635,47.513702,,,,,,
1478385515.20,-2.359139,0.789953,-0.977793,-0.168679,2.696660,1.501015,-0.496250,-0.710320,0.499181,-0.258419,-2.550407,-0.915669,-14.350281,-26.006805,47.329773,,,,,,
1478385515.22,-2.294712,0.791764,-0.993283,-0.667983,2.379117,-0.357645,-0.526394,-0.711594,0.465342,1.702541,-1.497329,-1.391001,-16.597778,-25.557129,47.005920,,,,,,
1478385515.24,-2.265437,0.815753,-1.011045,-1.416810,-0.560650,-0.293313,-0.526520,-0.728242,0.438680,2.339066,-0.823699,-1.238500,-19.145279,-25.257904,46.229553,,,,,,
1478385515.26,-2.286503,0.792646,-1.075259,-0.148440,-4.788517,4.398321,-0.529722,-0.712213,0.460593,1.651228,-2.188681,-0.226325,-16.065384,-24.734604,44.533783,,,,,,
1478385515.28,-2.344852,0.685698,-1.157633,2.192501,-5.458336,6.104684,-0.553457,-0.633213,0.541042,1.763250,-0.345272,0.202214,-16.065384,-24.734604,44.533783,,,,,,
1478385515.30,-2.366430,0.557808,-1.197656,4.065683,-0.010981,5.412442,-0.593750,-0.529327,0.606031,0.784378,-0.299408,-0.536802,-13.734436,-22.857925,46.201477,,,,,,
1478385515.32,-2.285692,0.416867,-1.205310,4.809714,6.039244,5.336358,-0.690491,-0.404897,0.599400,0.057175,-1.916834,-0.602330,-13.644440,-19.106674,47.466125,,,,,,
1478385515.34,-2.130177,0.277193,-1.194980,4.245286,8.300931,5.374720,-0.815229,-0.273657,0.510404,1.074659,-3.113947,-0.349256,-17.594818,-13.405975,48.159515,,,,,,
1478385515.36,-2.001295,0.140121,-1.193174,2.780782,5.095583,6.386903,-0.899851,-0.139663,0.413234,2.061411,-3.105744,-0.701213,-23.861862,-6.883377,45.752258,,,,,,
1478385515.38,-1.937887,0.004881,-1.191703,2.707610,2.118113,5.853989,-0.933364,-0.004881,0.358897,2.183181,-1.997057,-0.947063,-23.861862,-6.883377,45.752258,,,,,,
1478385515.40,-1.938332,-0.100200,-1.181187,1.928348,-1.547023,3.986702,-0.928535,0.100033,0.357515,1.769782,-1.919033,-0.557008,-32.202423,4.285507,39.635345,,,,,,
1478385515.42,-1.999544,-0.155810,-1.186106,0.233871,-3.605121,1.956638,-0.898470,0.155180,0.410696,1.217973,-2.042982,0.285471,-31.730606,9.010117,39.250885,,,,,,
1478385515.44,-2.094822,-0.159050,-1.206891,-1.662274,-5.376274,-0.376420,-0.854884,0.158380,0.494054,0.492915,-0.735727,0.469172,-28.196198,11.636719,40.853363,,,,,,
1478385515.46,-2.216980,-0.080806,-1.236547,-4.484329,-5.904252,-3.670317,-0.795782,0.080718,0.600179,0.510001,-0.023024,0.435404,-24.077545,11.039169,43.296326,,,,,,
1478385515.48,-2.308903,0.071273,-1.252018,-5.993956,-3.394723,-6.080675,-0.737866,-0.071213,0.671180,0.700451,0.387543,0.706063,-24.077545,11.039169,43.296326,,,,,,
1478385515.50,-2.320604,0.256673,-1.261994,-7.010672,1.110791,-6.550839,-0.707846,-0.253864,0.659172,-0.046457,0.637698,0.697288,-17.384918,0.245041,49.170654,,,,,,
,,,,,,,,,,,,,,,,37.354413,-122.033497,38.388062,3.610000,79.804688,1478385605.00
1478385515.52,-2.245949,0.455568,-1.270392,-6.558125,4.798188,-7.895737,-0.700998,-0.439973,0.561272,-0.048026,0.581239,0.505196,-17.196640,-8.005249,48.897278,,,,,,
1478385515.54,-2.144634,0.675883,-1.253944,-5.438030,5.535904,-10.179252,-0.655193,-0.625587,0.423514,0.696025,0.756034,0.256433,-18.428268,-15.807556,46.583344,,,,,,
1478385515.56,-2.100705,0.911415,-1.211103,-4.510955,2.129188,-10.957342,-0.528608,-0.790372,0.309656,0.968397,1.148999,-0.276758,-19.510483,-24.286530,42.622986,,,,,,
1478385515.58,-2.187827,1.129415,-1.125036,-3.602134,-2.080264,-10.057045,-0.348415,-0.904162,0.247178,0.656445,0.567599,-0.154039,-19.510483,-24.286530,42.622986,,,,,,
1478385515.60,-2.491572,1.315608,-0.889364,-3.638823,-5.065826,-9.047115,-0.152770,-0.967616,0.200950,-1.288957,-0.312658,0.411599,-17.515152,-32.014923,39.216095,,,,,,
1478385515.62,2.925657,1.444216,-0.127949,-4.676239,-6.080226,-7.617887,0.027049,-0.991999,0.123310,-2.257823,-1.135625,1.864009,5.239120,-34.925751,30.987366,,,,,,
1478385515.64,1.826431,1.427775,0.892864,-3.122362,-1.988722,-3.354814,0.137902,-0.989790,0.036041,-4.128671,-1.159594,2.953156,12.510147,-37.179871,26.866760,,,,,,
1478385515.66,1.744752,1.410291,1.012115,0.715547,2.945216,-0.031003,0.157405,-0.987147,0.027661,-4.152782,0.833109,3.570651,15.885178,-38.157837,23.903442,,,,,,
1478385515.68,2.081189,1.419833,0.701695,2.823101,0.867906,2.106999,0.131224,-0.988627,0.073469,-3.030195,1.471171,1.814638,15.885178,-38.157837,23.903442,,,,,,
1478385515.70,2.762706,1.410885,0.040023,4.682837,2.024907,4.404115,0.058897,-0.987241,0.147937,-3.214155,1.236646,1.010831,14.459335,-37.931580,25.163513,,,,,,
1478385515.72,-2.860617,1.280523,-0.591450,3.509469,-0.242049,8.304126,-0.079365,-0.958166,0.274990,4.142354,-6.344767,3.088108,12.675064,-32.676285,30.454895,,,,,,
1478385515.74,-2.689599,1.151761,-0.898156,4.586274,-1.938218,6.674127,-0.177709,-0.913482,0.366020,-4.582850,4.362884,-1.098763,4.409546,-34.471329,35.402618,,,,,,
1478385515.76,-2.594889,1.034864,-0.935980,4.356737,4.467861,1.857807,-0.265470,-0.859793,0.436213,-1.258151,3.629080,1.290517,-0.010193,-32.443756,37.977356,,,,,,
1478385515.78,-2.514308,0.949504,-0.969200,1.969490,0.543573,3.985045,-0.341655,-0.813127,0.471271,-1.364964,-3.078245,0.675915,-0.010193,-32.443756,37.977356,,,,,,
1478385515.80,-2.466425,0.894443,-1.004133,1.462696,1.676485,1.704062,-0.391238,-0.779861,0.488620,-0.496808,-0.072800,1.159039,-2.016006,-27.266022,40.716736,,,,,,
1478385515.82,-2.409662,0.853606,-1.023279,0.881841,2.105816,1.736285,-0.439258,-0.753655,0.488934,-0.359066,-2.433936,0.810734,-4.410233,-25.840591,41.138550,,,,,,
1478385515.84,-2.342817,0.825210,-1.046951,0.268925,2.838797,1.649624,-0.486077,-0.734690,0.473243,-0.969092,-2.799596,-0.409370,-8.976257,-23.665054,41.686371,,,,,,
1478385515.86,-2.262551,0.804537,-1.075287,-0.185224,2.923254,0.911855,-0.534041,-0.720510,0.442341,0.840697,-1.997462,-1.149601,-12.873367,-23.065155,41.570587,,,,,,
1478385515.88,-2.203672,0.815152,-1.086249,-1.029821,2.149493,-0.618518,-0.552947,-0.727830,0.405603,1.705642,-1.169296,-1.173333,-12.873367,-23.065155,41.570587,,,,,,
1478385515.90,-2.170597,0.837079,-1.111214,-1.310405,-0.661166,0.101926,-0.552749,-0.742690,0.377994,1.862228,-0.912645,-0.816120,-13.993073,-22.391678,40.057373,,,,,,
1478385515.92,-2.182395,0.795546,-1.177601,0.127314,-4.161170,4.927273,-0.573026,-0.714246,0.401863,1.332059,-2.269565,0.472938,-13.838364,-21.868256,38.482391,,,,,,
1478385515.94,-2.237612,0.681457,-1.241303,2.285975,-4.750281,6.033089,-0.610293,-0.629925,0.480351,2.000872,-0.037662,0.248103,-10.982544,-20.217178,39.555969,,,,,,
1478385515.96,-2.267078,0.547788,-1.268799,3.997356,-0.450822,5.774377,-0.654970,-0.520800,0.547524,0.808488,-0.565839,-0.461510,-10.969009,-16.464935,41.794861,,,,,,
1478385515.98,-2.208544,0.400863,-1.265486,4.930843,4.966634,5.641324,-0.739746,-0.390213,0.548188,0.285477,-1.944031,-0.559677,-10.969009,-16.464935,41.794861,,,,,,
1478385516.00,-2.081376,0.251307,-1.252485,4.183398,6.761318,6.215498,-0.845056,-0.248671,0.473333,1.522073,-3.123156,-0.404531,-12.745667,-11.064301,42.435852,,,,,,
1478385516.02,-1.987015,0.102834,-1.250806,3.011886,3.316573,6.748879,-0.909792,-0.102652,0.402169,2.165072,-2.929925,-0.858773,-18.188065,-4.240570,41.160980,,,,,,
1478385516.04,-1.951510,-0.035342,-1.244464,2.916670,1.011289,5.769040,-0.927820,0.035335,0.371351,1.982278,-2.022884,-0.832045,-24.004196,2.281418,38.158234,,,,,,
1478385516.06,-1.963877,-0.136875,-1.235494,1.802603,-1.644161,3.755436,-0.915094,0.136448,0.379454,1.594186,-2.706486,-0.429396,-24.851166,13.304138,35.866730,,,,,,
1478385516.08,-2.017636,-0.194288,-1.238563,0.592652,-3.137727,2.112400,-0.884850,0.193068,0.423987,1.230843,-1.775816,0.204247,-24.851166,13.304138,35.866730,,,,,,
1478385516.10,-2.106724,-0.197819,-1.257426,-1.757391,-5.014254,-0.502732,-0.843027,0.196532,0.500680,0.711267,-0.653075,0.230139,-22.215164,15.929672,36.410217,,,,,,
1478385516.12,-2.223487,-0.114101,-1.285507,-4.504460,-5.748809,-3.961604,-0.789287,0.113854,0.603377,0.546367,-0.040581,0.482088,-18.989960,16.757019,38.764954,,,,,,
1478385516.14,-2.320120,0.044563,-1.300633,-6.378434,-3.839116,-6.268472,-0.731423,-0.044549,0.680468,0.647545,0.250313,0.643629,-15.333466,13.685150,41.885773,,,,,,
1478385516.16,-2.354788,0.240963,-1.306580,-7.350523,-0.460552,-7.116675,-0.687643,-0.238638,0.685711,0.187978,0.395681,0.539326,-9.103363,-0.711441,45.291229,,,,,,
1478385516.18,-2.317195,0.457501,-1.299076,-7.059807,3.400163,-8.730620,-0.658639,-0.441708,0.609170,0.091623,0.435559,0.568182,-9.103363,-0.711441,45.291229,,,,,,
1478385516.20,-2.245688,0.693206,-1.257698,-5.884185,5.181056,-10.801757,-0.600573,-0.639007,0.480607,0.346270,0.568862,0.336684,-8.540436,-9.412842,43.897980,,,,,,
1478385516.22,-2.219340,0.934738,-1.168735,-4.495213,3.895875,-11.534745,-0.473420,-0.804444,0.358809,0.528260,0.895157,0.041001,-9.398102,-17.741043,40.689362,,,,,,
1478385516.24,-2.333803,1.149566,-0.997668,-3.059973,0.013031,-10.524723,-0.295525,-0.912587,0.282578,0.351433,0.446263,-0.547791,-9.352173,-25.168945,37.787140,,,,,,
1478385516.26,-2.767142,1.309916,-0.616056,-3.165275,-5.641052,-9.199590,-0.094341,-0.966163,0.240059,-1.149113,-0.706490,-0.064095,-4.271301,-30.421951,34.778625,,,,,,
1478385516.28,2.580838,1.388242,0.187394,-4.943578,-7.652048,-7.443182,0.096549,-0.983383,0.153740,-2.461798,-1.559036,1.655159,-4.271301,-30.421951,34.778625,,,,,,
1478385516.30,1.906880,1.358421,0.794907,-2.558950,-1.117774,-2.979615,0.198990,-0.977533,0.069514,-4.589951,-1.134436,3.164555,13.942276,-34.852615,29.124084,,,,,,
1478385516.32,1.909736,1.348145,0.837178,0.932618,2.937253,0.484344,0.208254,-0.975315,0.073419,-4.553743,1.014515,3.643470,17.542068,-35.980881,25.863525,,,,,,
1478385516.34,2.208010,1.359519,0.564633,3.018522,1.003804,2.701767,0.168555,-0.977764,0.124768,-2.927817,1.550686,1.633655,17.016983,-35.830353,26.382751,,,,,,
1478385516.36,2.710992,1.358805,0.059859,3.411416,0.046551,4.715930,0.087827,-0.977614,0.191200,-3.293211,1.048491,0.601387,15.890060,-35.603424,28.320801,,,,,,
1478385516.38,-3.072424,1.239889,-0.416641,5.284661,7.901893,6.393647,-0.022455,-0.945748,0.324124,5.137903,-2.309455,7.334765,15.890060,-35.603424,28.320801,,,,,,
1478385516.40,-2.852035,1.136767,-0.796004,4.425570,-6.846071,6.793910,-0.120073,-0.907279,0.403023,-7.926802,2.204032,-4.839730,8.845169,-31.770325,36.413879,,,,,,
1478385516.42,-2.681466,1.005684,-0.928926,4.926949,3.777252,3.359112,-0.237800,-0.844528,0.479816,0.485023,5.343903,2.671735,4.789505,-32.443558,38.175354,,,,,,
1478385516.44,-2.612584,0.911125,-0.950567,3.120751,0.725336,3.476853,-0.309295,-0.790194,0.529084,-0.887284,-1.401563,0.924133,1.580444,-28.015915,40.829987,,,,,,
1478385516.46,-2.580796,0.840236,-0.986346,2.458369,1.828486,1.789560,-0.354904,-0.744801,0.565080,-1.608002,-0.650310,1.134933,-0.355652,-24.414368,42.374847,,,,,,
1478385516.48,-2.514565,0.789131,-0.984683,1.814155,3.228627,1.463217,-0.413337,-0.709742,0.570456,-0.566339,-1.824636,1.037699,-0.355652,-24.414368,42.374847,,,,,,
1478385516.50,-2.455971,0.755028,-0.992088,0.888698,2.645623,1.096740,-0.461096,-0.685309,0.563686,-0.668329,-2.698831,-0.117901,-2.147629,-22.313400,43.325592,,,,,,
1478385516.52,-2.382527,0.731266,-1.011131,0.163470,3.351287,1.348498,-0.512280,-0.667813,0.539995,-0.321796,-2.334598,-0.805681,-7.008591,-19.012878,43.867096,,,,,,
,,,,,,,,,,,,,,,,37.354420,-122.033448,38.683807,3.630000,82.617188,1478385606.00
1478385516.54,-2.304300,0.728326,-1.022991,-0.470989,3.410066,-0.320251,-0.554369,-0.665621,0.499623,1.320116,-1.381178,-1.060354,-11.054916,-18.413513,43.224823,,,,,,
1478385516.56,-2.246859,0.756324,-1.035351,-1.599529,1.714108,-0.709375,-0.567374,-0.686253,0.455131,2.216574,-0.988872,-0.880057,-13.077545,-18.339874,41.854401,,,,,,
1478385516.58,-2.236997,0.761379,-1.091500,-1.693288,-3.488556,2.845749,-0.569100,-0.689921,0.447364,1.359765,-1.735403,-0.582496,-13.077545,-18.339874,41.854401,,,,,,
1478385516.60,-2.305596,0.676222,-1.195505,0.605300,-8.460794,6.719785,-0.578690,-0.625851,0.522904,2.418335,-1.602344,0.393844,-13.224396,-18.191528,40.202454,,,,,,
1478385516.62,-2.397929,0.551279,-1.278673,2.872898,-5.062008,6.730943,-0.576697,-0.523777,0.626960,1.499686,-0.287212,0.027261,-7.521088,-16.764450,42.280243,,,,,,
1478385516.64,-2.392798,0.403951,-1.313098,5.159197,2.226098,5.641673,-0.625966,-0.393054,0.673554,-0.359294,-1.376492,-0.605775,-5.109741,-13.687790,43.945129,,,,,,
1478385516.66,-2.271456,0.254716,-1.309818,5.203154,7.815357,5.161376,-0.739753,-0.251970,0.623920,0.758933,-2.992216,-0.315815,-7.332001,-7.312149,44.578735,,,,,,
1478385516.68,-2.119447,0.113689,-1.301465,3.917220,6.841563,5.780419,-0.847721,-0.113445,0.518169,1.615894,-3.581853,-0.684795,-7.332001,-7.312149,44.578735,,,,,,
1478385516.70,-2.022338,-0.027175,-1.293571,3.753565,3.855265,5.965304,-0.899443,0.027172,0.436192,1.723876,-2.227642,-0.842351,-15.177734,-1.163223,43.506836,,,,,,
1478385516.72,-1.978221,-0.147069,-1.274384,2.941385,0.917201,4.317917,-0.908233,0.146539,0.391969,1.371749,-2.120447,-0.551179,-20.919785,4.908020,39.756226,,,,,,
1478385516.74,-1.985666,-0.220300,-1.254594,1.988912,-1.290038,2.345360,-0.893051,0.218522,0.393330,0.971924,-2.059053,-0.045872,-23.492737,15.329605,36.324219,,,,,,
1478385516.76,-2.046470,-0.248765,-1.251446,-0.156969,-4.413680,0.319058,-0.861619,0.246207,0.443841,0.658372,-0.772620,0.095222,-21.907043,17.880127,36.857422,,,,,,
1478385516.78,-2.163220,-0.200116,-1.259000,-2.447060,-6.186396,-3.271154,-0.813034,0.198783,0.547230,0.253281,0.164087,0.111812,-21.907043,17.880127,36.857422,,,,,,
1478385516.80,-2.290104,-0.071296,-1.259140,-4.867033,-6.238034,-5.942287,-0.750351,0.071236,0.657190,0.572571,0.309822,0.510977,-18.535355,17.882324,39.066132,,,,,,
1478385516.82,-2.383984,0.109974,-1.252706,-6.683781,-3.327406,-7.018685,-0.683035,-0.109752,0.722093,0.455740,0.503307,0.393890,-13.679550,14.735687,42.424133,,,,,,
1478385516.84,-2.392145,0.310405,-1.241143,-7.008988,1.495271,-7.417327,-0.648678,-0.305445,0.697080,-0.136707,0.491892,0.429782,-6.924911,0.264175,45.910095,,,,,,
1478385516.86,-2.328735,0.521346,-1.213316,-6.343809,4.886443,-8.971011,-0.629771,-0.498048,0.596101,0.193217,0.585618,0.357527,-8.608902,-7.611786,44.941895,,,,,,
1478385516.88,-2.259027,0.747217,-1.153552,-5.226937,4.957559,-10.600353,-0.566598,-0.679600,0.465951,0.563669,0.774632,-0.014565,-8.608902,-7.611786,44.941895,,,,,,
1478385516.90,-2.271609,0.968757,-1.052841,-4.120613,1.910711,-10.431588,-0.432852,-0.824183,0.365188,0.847174,1.091074,-0.551727,-9.688507,-15.264999,41.729034,,,,,,
1478385516.92,-2.449490,1.159640,-0.867384,-3.221475,-2.323635,-9.646767,-0.255052,-0.916659,0.307708,-0.072554,0.260989,-0.542007,-9.190903,-22.468353,38.380615,,,,,,
1478385516.94,-2.926100,1.304205,-0.463810,-3.694098,-5.976702,-8.815721,-0.056332,-0.964674,0.257352,-1.492130,-0.278871,0.545764,2.924316,-31.321732,35.003326,,,,,,
1478385516.96,2.456994,1.356711,0.320501,-4.694229,-6.814449,-7.706470,0.134348,-0.977171,0.164582,-2.611795,-1.390108,1.586348,11.920242,-33.350082,31.649353,,,,,,
1478385516.98,1.915314,1.316574,0.807028,-2.493023,-0.704368,-2.874727,0.236715,-0.967859,0.084940,-4.858999,-1.318823,3.076529,11.920242,-33.350082,31.649353,,,,,,
1478385517.00,1.919718,1.301722,0.857359,0.797547,3.287143,-0.019224,0.249820,-0.964017,0.090886,-3.865695,0.963514,3.056819,18.519302,-35.004440,27.295349,,,,,,
1478385517.02,2.149179,1.307318,0.663798,2.845937,1.773477,2.244162,0.218080,-0.965490,0.142375,-2.712449,1.272314,1.623723,18.294998,-34.929672,27.067932,,,,,,
1478385517.04,2.552310,1.311671,0.294558,3.157627,2.775140,4.080873,0.142407,-0.966614,0.213019,-3.206356,0.817887,0.622690,16.644119,-34.402512,29.224792,,,,,,
1478385517.06,2.960157,1.211672,-0.062187,9.383374,6.408753,2.238370,0.063417,-0.936205,0.345685,3.050825,0.145769,5.299258,12.761215,-28.546341,35.393341,,,,,,
1478385517.08,-3.004726,1.140254,-0.489471,4.179494,-10.842543,9.444997,-0.056945,-0.908740,0.413460,-7.816392,-3.676954,-7.941109,12.761215,-28.546341,35.393341,,,,,,
1478385517.10,-2.815089,1.015564,-0.693020,5.336559,3.926867,3.338867,-0.169072,-0.849778,0.499292,3.515340,7.851975,5.807974,4.349564,-29.742142,39.587860,,,,,,
1478385517.12,-2.729242,0.924412,-0.715963,3.259039,2.311917,3.237858,-0.241382,-0.798267,0.551820,-1.702862,-0.768231,1.066283,1.881134,-27.565002,41.731628,,,,,,
1478385517.14,-2.654481,0.852886,-0.797302,1.825644,1.019724,2.887778,-0.307906,-0.753182,0.581301,-1.360291,-1.839210,0.523969,-0.498901,-22.463013,43.717529,,,,,,
1478385517.16,-2.579117,0.806550,-0.818151,1.396435,3.380366,1.700097,-0.369028,-0.721904,0.585383,-0.332114,-0.396489,1.315252,-5.059052,-18.862106,44.636108,,,,,,
1478385517.18,-2.514904,0.775210,-0.846985,0.395787,1.803616,1.602135,-0.418897,-0.699866,0.578543,-0.617190,-2.660317,0.270578,-5.059052,-18.862106,44.636108,,,,,,
1478385517.20,-2.440240,0.754777,-0.883000,-0.181954,2.937846,1.684381,-0.470017,-0.685126,0.556494,-0.399536,-2.606286,-0.194205,-7.754181,-17.887436,44.306244,,,,,,
1478385517.22,-2.351285,0.747150,-0.912449,-0.592628,3.825175,0.431780,-0.521294,-0.679551,0.516201,0.828545,-2.036300,-0.708111,-9.852005,-17.437515,44.208923,,,,,,
1478385517.24,-2.273741,0.770385,-0.922212,-1.417856,3.025677,-1.025978,-0.547520,-0.696411,0.463933,1.973011,-1.253433,-1.006962,-13.674713,-17.213379,43.345062,,,,,,
1478385517.26,-2.244819,0.795071,-0.946352,-1.494825,-1.371962,0.596477,-0.547105,-0.713913,0.437040,1.978868,-1.340713,-0.757002,-14.194305,-16.690414,41.313263,,,,,,
1478385517.28,-2.262914,0.736359,-1.029794,0.666477,-4.997636,6.019986,-0.570430,-0.671595,0.472831,2.058819,-2.182348,0.605477,-14.194305,-16.690414,41.313263,,,,,,
1478385517.30,-2.324755,0.611834,-1.097943,2.970894,-4.307724,6.240645,-0.596744,-0.574370,0.560354,1.774234,0.208464,0.068324,-12.843536,-16.615707,41.026550,,,,,,
1478385517.32,-2.325045,0.470148,-1.119001,5.012322,1.775295,5.468169,-0.649714,-0.453018,0.610448,0.235941,-1.053864,-0.599278,-10.880600,-12.938293,43.435150,,,,,,
1478385517.34,-2.229870,0.316903,-1.106707,5.488445,6.424297,5.555508,-0.751194,-0.311625,0.581891,0.567387,-2.737432,-0.413998,-10.932175,-7.537720,44.018402,,,,,,
1478385517.36,-2.104880,0.164439,-1.095413,4.049731,5.641234,6.288062,-0.849125,-0.163699,0.502185,1.739414,-3.914914,-0.541828,-15.996521,-0.038986,42.745270,,,,,,
1478385517.38,-2.024771,0.017864,-1.095874,3.371570,3.283152,6.428906,-0.898568,-0.017863,0.438472,2.015618,-2.609731,-0.981959,-15.996521,-0.038986,42.745270,,,,,,
1478385517.40,-1.980829,-0.115699,-1.080914,3.349867,1.203994,5.239337,-0.910976,0.115441,0.395975,1.752544,-1.932427,-0.941324,-23.804779,12.779968,36.703766,,,,,,
1478385517.42,-2.001159,-0.209340,-1.071382,1.440754,-2.249586,3.389897,-0.888973,0.207814,0.408092,1.443737,-2.769780,-0.206600,-24.227646,18.253296,35.033081,,,,,,
1478385517.44,-2.064096,-0.251393,-1.085167,-0.186443,-3.367101,1.377495,-0.853090,0.248753,0.458650,0.673661,-1.347355,0.129912,-21.362350,21.553009,34.751862,,,,,,
1478385517.46,-2.157413,-0.222189,-1.111893,-3.009549,-4.861325,-1.869914,-0.812346,0.220365,0.539939,0.424849,-0.315321,0.132425,-17.984467,22.679474,36.207275,,,,,,
1478385517.48,-2.263800,-0.103535,-1.138044,-5.508826,-5.032006,-5.101367,-0.765211,0.103350,0.635430,0.862791,0.273481,0.742210,-17.984467,22.679474,36.207275,,,,,,
1478385517.50,-2.347002,0.080453,-1.158866,-7.753302,-3.367742,-6.399895,-0.711269,-0.080366,0.698311,0.607265,0.719145,0.886436,-14.624252,20.357361,39.097839,,,,,,
1478385517.52,-2.364762,0.290355,-1.186474,-8.602447,0.224990,-6.510084,-0.671679,-0.286293,0.683289,0.259417,0.684623,0.785812,-10.347168,6.037994,44.733551,,,,,,
,,,,,,,,,,,,,,,,37.354426,-122.033404,38.780029,3.610000,84.375000,1478385607.00
1478385517.54,-2.318416,0.514928,-1.206275,-8.371584,2.821705,-8.151115,-0.638220,-0.492472,0.591732,0.438498,0.307948,0.523701,-9.565201,-3.562119,44.620178,,,,,,
1478385517.56,-2.251207,0.760837,-1.195285,-7.154995,4.081980,-10.313361,-0.562977,-0.689528,0.455640,0.375157,0.711027,0.484988,-9.979614,-13.164642,42.094849,,,,,,
1478385517.58,-2.213652,1.005457,-1.142449,-5.750830,3.572519,-10.610409,-0.428769,-0.844407,0.321145,0.208448,1.188523,0.536445,-9.979614,-13.164642,42.094849,,,,,,
1478385517.60,-2.281619,1.219177,-1.033792,-4.074679,-0.302654,-9.480284,-0.261009,-0.938816,0.224718,0.097481,0.700871,0.018080,-9.414886,-22.168137,38.602509,,,,,,
1478385517.62,-2.734518,1.391510,-0.656422,-3.921018,-6.559524,-8.671337,-0.070604,-0.983971,0.163755,-1.017073,-0.101356,0.485507,-0.907059,-33.875137,31.597656,,,,,,
1478385517.64,2.210155,1.450542,0.533606,-4.751175,-8.058238,-6.490912,0.096269,-0.992778,0.071581,-2.495149,-0.986622,2.110411,8.914078,-35.828415,28.326721,,,,,,
1478385517.66,1.492110,1.398309,1.162598,-2.584841,-1.811126,-1.878948,0.171102,-0.985161,-0.013491,-4.893728,-1.136375,3.929507,16.187576,-37.858505,23.230591,,,,,,
1478385517.68,1.513889,1.386845,1.178575,1.199643,2.896024,0.165244,0.182619,-0.983129,-0.010404,-3.535570,1.168676,3.798184,16.187576,-37.858505,23.230591,,,,,,
1478385517.70,1.889001,1.411947,0.833393,3.518834,1.309613,2.418218,0.150241,-0.987410,0.049489,-2.786838,1.543425,2.112941,16.861771,-38.610214,21.514526,,,,,,
1478385517.72,2.580193,1.418482,0.171591,3.560998,2.460388,3.869169,0.080775,-0.988423,0.128438,-3.268809,1.054249,0.777995,16.563248,-37.783722,23.009094,,,,,,
1478385517.74,-3.077122,1.306108,-0.361241,3.200746,-0.963064,6.911607,-0.016854,-0.965174,0.261065,7.388482,-6.680837,1.580915,12.596786,-33.351135,30.606140,,,,,,
1478385517.76,-2.780748,1.192892,-0.845906,5.065982,-5.834649,8.361984,-0.130272,-0.929440,0.345211,-6.675210,5.469006,-0.317211,4.557953,-35.147308,34.431213,,,,,,
1478385517.78,-2.622937,1.054451,-0.950474,5.005189,4.940057,1.967095,-0.244736,-0.869629,0.428776,0.062973,3.390015,2.850383,4.557953,-35.147308,34.431213,,,,,,
1478385517.80,-2.557518,0.966123,-0.948078,2.760756,0.981824,4.066710,-0.313483,-0.822688,0.474250,-0.949121,-2.825978,0.282739,0.513672,-32.894348,37.383942,,,,,,
1478385517.82,-2.508802,0.895298,-1.003330,1.882458,1.570920,2.203474,-0.369792,-0.780396,0.504218,-1.216115,-0.021957,1.386254,-1.040802,-27.567062,39.677429,,,,,,
1478385517.84,-2.449426,0.849002,-1.019896,1.154097,2.029636,1.972689,-0.421684,-0.750621,0.508675,-0.514549,-1.989430,0.745277,-6.578323,-24.265472,41.262146,,,,,,
1478385517.86,-2.391187,0.816582,-1.043466,0.500495,2.301851,1.471211,-0.466932,-0.728810,0.500810,-0.474123,-2.638805,-0.089112,-9.424774,-23.289902,41.830780,,,,,,
1478385517.88,-2.320901,0.793660,-1.066602,0.066860,2.862871,1.226263,-0.513040,-0.712924,0.478047,0.546152,-2.491727,-0.675114,-9.424774,-23.289902,41.830780,,,,,,
1478385517.90,-2.254264,0.792783,-1.077910,-0.536610,2.623406,-0.317179,-0.544218,-0.712309,0.443218,1.702940,-1.356859,-0.743953,-11.294815,-22.390518,41.209351,,,,,,
1478385517.92,-2.213125,0.816502,-1.093991,-1.320702,0.284155,-0.442505,-0.548301,-0.728755,0.410222,2.143302,-1.083165,-0.801213,-13.237915,-21.341980,39.761780,,,,,,
1478385517.94,-2.223102,0.804803,-1.148350,-0.672161,-3.760376,3.354286,-0.550919,-0.720694,0.420819,1.338761,-2.144510,0.097339,-13.008194,-20.668091,38.637085,,,,,,
1478385517.96,-2.264248,0.708641,-1.219595,1.803972,-4.665241,5.887197,-0.583894,-0.650803,0.485307,1.859361,-0.234253,0.203627,-11.207535,-20.141953,39.778503,,,,,,
1478385517.98,-2.303557,0.581632,-1.258974,3.694774,-1.783501,5.700756,-0.621102,-0.549389,0.558931,0.838891,-0.214894,-0.490434,-11.207535,-20.141953,39.778503,,,,,,
1478385518.00,-2.272467,0.438804,-1.263515,5.071927,3.397787,5.401151,-0.691406,-0.424857,0.584341,0.330184,-1.698846,-0.563101,-9.243713,-16.540375,41.362305,,,,,,
1478385518.02,-2.169542,0.287899,-1.247362,5.009475,6.044478,5.710687,-0.792045,-0.283939,0.540410,1.237633,-3.022473,-0.401097,-11.096161,-11.214432,42.302795,,,,,,
1478385518.04,-2.076008,0.137591,-1.239863,3.735051,3.589853,6.530813,-0.866802,-0.137157,0.479418,2.142269,-3.510914,-0.626635,-16.014099,-4.315094,41.632935,,,,,,
1478385518.06,-2.032637,-0.009704,-1.238163,3.579349,1.552256,6.270653,-0.895192,0.009704,0.445576,2.099293,-2.474624,-1.043339,-22.479340,7.831497,38.231873,,,,,,
1478385518.08,-2.019961,-0.136348,-1.220206,3.301289,-0.222237,4.581454,-0.892450,0.135926,0.430183,1.522668,-1.972001,-0.724708,-22.479340,7.831497,38.231873,,,,,,
1478385518.10,-2.055725,-0.209391,-1.216380,0.853119,-2.498021,2.429816,-0.865384,0.207864,0.455963,1.153043,-2.526117,-0.139054,-22.300415,13.830200,36.940674,,,,,,
1478385518.12,-2.124426,-0.231137,-1.233080,-0.971725,-4.015477,0.586918,-0.828001,0.229085,0.511796,0.569929,-1.076268,-0.461381,-20.411926,16.980667,37.400055,,,,,,
1478385518.14,-2.231060,-0.177102,-1.263610,-3.867281,-5.159478,-2.620122,-0.777477,0.176177,0.603732,0.549831,-0.011230,0.084699,-18.086838,17.657639,39.371307,,,,,,
1478385518.16,-2.326205,-0.040712,-1.283053,-5.910611,-4.187905,-5.510019,-0.727389,0.040700,0.685018,0.506060,0.712412,0.438182,-10.407074,9.337845,44.573059,,,,,,
1478385518.18,-2.377110,0.146429,-1.291342,-7.381005,-1.328486,-6.604117,-0.684757,-0.145906,0.714017,0.057010,0.803118,0.358020,-10.407074,9.337845,44.573059,,,,,,
1478385518.20,-2.357514,0.354886,-1.295432,-7.696630,2.231136,-7.597054,-0.662169,-0.347483,0.663918,0.132399,0.564662,0.345420,-7.745377,1.239090,45.823944,,,,,,
1478385518.22,-2.291200,0.585276,-1.275388,-6.855137,4.452099,-9.885520,-0.626453,-0.552429,0.549889,0.601505,0.352326,0.023551,-7.556442,-7.011627,45.100616,,,,,,
1478385518.24,-2.247462,0.828773,-1.215654,-5.561817,3.511491,-11.132708,-0.526883,-0.737103,0.423172,0.593320,0.587139,-0.275772,-9.391342,-15.564026,42.707916,,,,,,
1478385518.26,-2.302329,1.060966,-1.102510,-4.578788,0.781933,-10.806226,-0.363167,-0.872828,0.326009,0.454598,0.517054,-0.107289,-7.621338,-23.442657,39.074249,,,,,,
1478385518.28,-2.580800,1.259248,-0.841176,-3.904154,-3.579209,-10.114028,-0.163032,-0.951860,0.259582,-0.706292,-0.442869,-0.123733,-7.621338,-23.442657,39.074249,,,,,,
1478385518.30,2.901826,1.384496,-0.132329,-4.900252,-6.236533,-8.840963,0.043986,-0.982696,0.179925,-2.189021,-1.591477,1.665289,4.193985,-33.048370,33.371216,,,,,,
1478385518.32,1.962032,1.366388,0.719316,-3.873558,-3.256881,-4.764560,0.187650,-0.979181,0.077406,-4.247190,-1.539358,3.171892,13.488510,-35.226273,30.470703,,,,,,
1478385518.34,1.807468,1.340238,0.905762,-0.025351,3.143148,-0.650339,0.222151,-0.973539,0.053581,-5.004072,0.244138,4.002953,17.766129,-36.130722,26.016174,,,,,,
1478385518.36,2.051421,1.349766,0.711437,2.845747,2.274767,2.490223,0.194397,-0.975672,0.101359,-3.384002,1.562662,2.433110,18.214676,-36.430634,26.096558,,,,,,
1478385518.38,2.575073,1.359053,0.203165,3.902097,0.820834,4.703969,0.112795,-0.977666,0.177332,-3.323214,1.137258,1.045996,18.214676,-36.430634,26.096558,,,,,,
1478385518.40,3.122941,1.253911,-0.288230,7.743032,6.843609,4.668455,0.005812,-0.950211,0.311554,5.051470,-4.255600,4.406478,13.794296,-33.575150,31.593750,,,,,,
1478385518.42,-2.903896,1.157334,-0.672212,4.565771,-7.758445,7.373948,-0.094606,-0.915735,0.390485,-6.059660,1.458796,-1.675214,7.497330,-30.944290,37.447906,,,,,,
1478385518.44,-2.749759,1.030611,-0.841704,5.074155,4.501446,3.638095,-0.196401,-0.857614,0.475316,-0.231440,5.418389,3.899363,5.618881,-31.167648,39.079865,,,,,,
1478385518.46,-2.653160,0.932210,-0.869853,3.194483,1.684025,3.577927,-0.279697,-0.802939,0.526363,-1.215481,-1.902429,0.607273,2.708588,-27.040070,41.663361,,,,,,
1478385518.48,-2.610969,0.863649,-0.927564,1.868850,0.253702,2.351548,-0.328778,-0.760218,0.560333,-0.982409,-0.401296,0.707947,2.708588,-27.040070,41.663361,,,,,,
1478385518.50,-2.554165,0.816695,-0.946620,1.465343,2.769891,1.581025,-0.379439,-0.728887,0.569869,-0.519182,-0.448298,1.623613,-0.202713,-23.363159,43.573212,,,,,,
1478385518.52,-2.493270,0.792151,-0.953964,0.496927,2.704470,0.695575,-0.424093,-0.711866,0.559815,-1.118204,-3.191149,0.279465,-4.315720,-20.286942,44.797821,,,,,,
,,,,,,,,,,,,,,,,37.354429,-122.033366,39.464172,3.330000,85.781250,1478385608.00
1478385518.54,-2.414019,0.776330,-0.977265,-0.123241,3.382985,1.321389,-0.474514,-0.700665,0.532827,-0.478642,-2.932071,-0.563909,-6.936722,-19.462128,44.619141,,,,,,
1478385518.56,-2.330040,0.775371,-0.997863,-0.666988,3.499262,-0.118402,-0.518022,-0.699981,0.491609,1.145952,-2.078400,-0.986284,-10.085678,-19.538055,43.687897,,,,,,
1478385518.58,-2.281603,0.798646,-1.001791,-0.896710,1.111047,-0.763219,-0.528725,-0.716412,0.455197,2.670647,-1.424259,-0.963452,-10.085678,-19.538055,43.687897,,,,,,
1478385518.60,-2.302117,0.778602,-1.039417,0.089340,-4.109610,3.895277,-0.529859,-0.702285,0.475442,1.381254,-1.765779,0.879737,-11.880707,-18.789124,42.617706,,,,,,
1478385518.62,-2.328931,0.659842,-1.133702,2.494472,-3.790311,7.180397,-0.573699,-0.612992,0.543240,1.686477,-1.094131,-0.481839,-9.774216,-17.514618,42.109955,,,,,,
1478385518.64,-2.328701,0.512248,-1.170703,4.619464,0.684281,6.089517,-0.633056,-0.490138,0.599170,0.549881,-0.774114,0.060696,-9.084335,-13.688049,43.680359,,,,,,
1478385518.66,-2.247350,0.351854,-1.173583,5.495755,5.774357,6.171286,-0.731965,-0.344639,0.587751,0.656235,-2.696575,-0.112943,-11.533081,-7.612350,44.387634,,,,,,
1478385518.68,-2.125125,0.183080,-1.168324,4.566444,5.736541,7.225165,-0.836044,-0.182059,0.517576,1.608994,-4.315637,-0.575834,-11.533081,-7.612350,44.387634,,,,,,
1478385518.70,-2.042252,0.015068,-1.173877,3.654501,3.217958,7.402556,-0.890807,-0.015067,0.454132,2.172866,-3.008020,-0.825852,-17.799316,-0.488480,43.253632,,,,,,
1478385518.72,-1.994504,-0.139155,-1.164924,3.794217,1.985464,6.289319,-0.902759,0.138706,0.407169,1.920169,-2.065907,-1.015217,-21.811981,6.708237,39.966919,,,,,,
1478385518.74,-1.963069,-0.267639,-1.139548,3.523538,0.714253,4.922044,-0.891145,0.264456,0.368679,1.619264,-2.121710,-0.781720,-23.022934,19.378525,35.266754,,,,,,
1478385518.76,-1.987242,-0.361664,-1.126284,1.421514,-2.824286,3.523978,-0.855371,0.353831,0.378345,1.391809,-2.365061,-0.326755,-21.574417,24.252472,34.216644,,,,,,
1478385518.78,-2.073279,-0.398000,-1.144690,-0.756959,-4.344703,1.008418,-0.807889,0.387576,0.443960,0.868100,-1.085635,-0.145467,-21.574417,24.252472,34.216644,,,,,,
1478385518.80,-2.189959,-0.356418,-1.181125,-3.706790,-5.400904,-1.978380,-0.763184,0.348919,0.543880,0.769867,0.167637,0.293034,-17.891693,26.278412,35.147400,,,,,,
1478385518.82,-2.294307,-0.231954,-1.217570,-6.127106,-4.064984,-4.711940,-0.729415,0.229880,0.644290,0.761656,0.694848,0.593823,-13.698715,25.530853,37.591553,,,,,,
1478385518.84,-2.343080,-0.051136,-1.244543,-7.631847,-0.944760,-6.116292,-0.715383,0.051114,0.696861,0.327947,0.752215,0.595116,-11.250214,20.809357,41.080200,,,,,,
1478385518.86,-2.316593,0.158663,-1.260186,-7.771379,2.529673,-7.773716,-0.725321,-0.157998,0.670034,0.376246,0.545571,0.392878,-11.474731,5.738815,45.548187,,,,,,
1478385518.88,-2.241911,0.392331,-1.249265,-6.793501,4.454463,-9.975149,-0.723627,-0.382343,0.574611,0.879251,0.522495,0.149877,-11.474731,5.738815,45.548187,,,,,,
1478385518.90,-2.175082,0.636761,-1.213712,-5.558260,3.759916,-11.062565,-0.661639,-0.594594,0.456827,0.933872,0.650411,-0.275522,-13.687988,-3.262680,44.053040,,,,,,
1478385518.92,-2.176622,0.874124,-1.160173,-4.896490,0.288895,-10.621155,-0.527473,-0.766982,0.365393,0.846046,0.600233,-0.460241,-15.377625,-12.940292,41.440186,,,,,,
1478385518.94,-2.304312,1.087937,-1.066281,-4.266441,-4.063512,-9.809347,-0.344904,-0.885671,0.310851,0.014002,-0.062571,-0.452376,-13.611908,-21.493103,38.633514,,,,,,
1478385518.96,-2.642221,1.274456,-0.825366,-4.639590,-6.206380,-8.988933,-0.139842,-0.956412,0.256362,-1.474370,-0.119287,1.063890,1.422546,-31.922348,34.390167,,,,,,
1478385518.98,2.868281,1.396855,-0.149609,-4.842679,-5.169033,-7.934036,0.046714,-0.984910,0.166642,-2.578223,-0.711501,2.182434,1.422546,-31.922348,34.390167,,,,,,
1478385519.00,2.042574,1.379325,0.644155,-2.923812,0.432729,-4.205726,0.169515,-0.981725,0.086487,-4.360876,-1.290598,3.529144,11.314896,-34.926285,30.448059,,,,,,
1478385519.02,1.963002,1.351564,0.802661,0.261478,4.643170,-0.767514,0.200967,-0.976065,0.083127,-4.224282,0.248755,3.162845,16.262802,-36.579834,26.902527,,,,,,
1478385519.04,2.210960,1.360766,0.599646,2.414307,1.066750,2.709450,0.167209,-0.978024,0.124537,-2.747561,1.574414,1.281820,15.739609,-36.204910,26.821167,,,,,,
1478385519.06,2.686508,1.356635,0.112012,4.566692,-0.261187,4.409400,0.093414,-0.977155,0.190898,-2.150451,0.830503,1.031926,12.511978,-35.977478,29.263184,,,,,,
1478385519.08,-3.035902,1.239200,-0.434658,3.636720,-1.553468,8.624496,-0.034344,-0.945524,0.323736,3.218304,-7.043948,-1.440603,12.511978,-35.977478,29.263184,,,,,,
1478385519.10,-2.841757,1.121543,-0.778383,5.158137,-2.248645,6.592023,-0.128274,-0.900772,0.414917,-2.982795,6.194122,2.008347,6.594986,-31.770203,36.541382,,,,,,
1478385519.12,-2.702421,0.999615,-0.843990,4.827503,5.428845,1.758725,-0.229869,-0.841263,0.489323,-2.083364,1.965546,0.666316,3.217133,-31.768280,38.457611,,,,,,
1478385519.14,-2.616403,0.907271,-0.894684,2.259835,-0.251557,4.774019,-0.308797,-0.787826,0.532893,-0.507182,-3.789353,0.380529,-0.589554,-26.665176,41.554230,,,,,,
1478385519.16,-2.578559,0.845685,-0.925283,2.201082,1.952590,1.003108,-0.353996,-0.748425,0.560844,-1.077630,0.463437,1.404655,-2.974884,-22.988937,42.794342,,,,,,
1478385519.18,-2.508884,0.800011,-0.938816,1.245332,2.835491,2.048791,-0.411980,-0.717364,0.561838,-0.476646,-1.905927,0.618216,-2.974884,-22.988937,42.794342,,,,,,
1478385519.20,-2.453840,0.774970,-0.959795,0.173136,1.894976,1.100922,-0.453530,-0.699695,0.552031,-0.919899,-2.659619,-0.458891,-7.009827,-19.388168,43.568207,,,,,,
1478385519.22,-2.381935,0.760116,-0.995797,-0.523674,2.767687,1.481400,-0.499120,-0.689005,0.525500,0.049856,-2.826070,-0.905413,-9.781403,-18.713425,43.313477,,,,,,
1478385519.24,-2.302470,0.767977,-1.017340,-1.068680,2.998701,-0.536094,-0.535213,-0.694682,0.480587,1.729076,-1.356588,-1.285214,-12.480698,-18.713898,42.836456,,,,,,
1478385519.26,-2.271452,0.799398,-1.031899,-1.367757,-0.746177,-0.654826,-0.532906,-0.716936,0.449458,2.327965,-0.824812,-0.998790,-13.603561,-18.715332,41.400238,,,,,,
1478385519.28,-2.303521,0.778102,-1.097302,-0.315617,-5.318961,4.708589,-0.529452,-0.701929,0.476420,1.660968,-2.630530,0.724828,-13.603561,-18.715332,41.400238,,,,,,
1478385519.30,-2.372753,0.666023,-1.187067,2.329363,-6.443105,6.431326,-0.546706,-0.617864,0.565117,1.928526,0.064275,0.329277,-10.228149,-18.866058,40.684448,,,,,,
1478385519.32,-2.412770,0.530193,-1.236033,4.467492,-1.170307,5.872602,-0.574557,-0.505700,0.643546,0.279834,-0.603965,-0.475303,-7.817245,-15.638641,43.098877,,,,,,
1478385519.34,-2.346562,0.376184,-1.243596,5.738468,5.753438,5.327599,-0.663966,-0.367374,0.651295,-0.131750,-2.090435,-0.466634,-7.500916,-11.587372,44.364868,,,,,,
1478385519.36,-2.182565,0.223703,-1.227140,5.083152,9.184244,5.536760,-0.798235,-0.221842,0.560006,1.440295,-3.760428,-0.671227,-11.369568,-4.687576,44.155487,,,,,,
1478385519.38,-2.035633,0.074378,-1.226597,3.220729,5.664680,6.899966,-0.891423,-0.074309,0.447038,2.389607,-3.683473,-1.306779,-11.369568,-4.687576,44.155487,,,,,,
1478385519.40,-1.979843,-0.078197,-1.227792,3.115271,1.323485,6.737193,-0.914697,0.078117,0.396520,2.311593,-2.014870,-1.176366,-19.583984,2.134171,40.902893,,,,,,
1478385519.42,-1.996604,-0.204419,-1.226679,2.035278,-2.148317,5.068641,-0.891744,0.202998,0.404456,1.219869,-2.645640,-0.616813,-25.522659,14.054047,35.782745,,,,,,
1478385519.44,-2.059772,-0.282115,-1.241604,0.576088,-3.108895,3.188379,-0.847916,0.278387,0.451154,0.474472,-2.448111,0.222827,-22.051422,18.703842,35.578461,,,,,,
1478385519.46,-2.147042,-0.312432,-1.276673,-1.631877,-4.713473,1.407611,-0.797921,0.307374,0.518502,0.261101,-0.934190,0.311989,-18.218491,20.955307,37.035065,,,,,,
1478385519.48,-2.294604,-0.265367,-1.327795,-4.716321,-7.595432,-1.532091,-0.723062,0.262264,0.639062,0.169595,-0.113033,0.588798,-18.218491,20.955307,37.035065,,,,,,
1478385519.50,-2.444892,-0.126702,-1.368109,-7.096246,-5.954369,-4.371584,-0.636547,0.126364,0.760815,0.046230,0.560694,1.115665,-13.947815,20.657303,39.028687,,,,,,
,,,,,,,,,,,,,,,,37.354428,-122.033328,39.122498,3.330000,88.945312,1478385609.00
1478385519.52,-2.479908,0.060825,-1.383578,-8.166363,1.259512,-5.445529,-0.613310,-0.060787,0.787499,-0.282350,1.540920,1.182441,-4.185638,8.888870,45.611633,,,,,,
1478385519.54,-2.381675,0.263043,-1.398890,-8.130677,6.183747,-6.476838,-0.665167,-0.260020,0.699959,0.142005,0.939555,0.523735,-4.761475,1.500168,45.324860,,,,,,
1478385519.56,-2.241167,0.480849,-1.405382,-7.127289,7.105692,-8.755774,-0.694734,-0.462532,0.550825,0.919191,1.236473,0.060274,-9.296890,-7.202347,42.830597,,,,,,
1478385519.58,-2.119309,0.714076,-1.385341,-5.202913,6.111922,-10.540494,-0.644839,-0.654919,0.394036,1.438448,1.861096,-0.152337,-9.296890,-7.202347,42.830597,,,,,,
1478385519.60,-2.075776,0.930543,-1.341276,-3.485972,2.000712,-9.707968,-0.522834,-0.801945,0.289015,1.356940,1.147846,-0.292418,-13.007446,-16.431320,38.846191,,,,,,
1478385519.62,-2.174653,1.122238,-1.252897,-2.947110,-2.652983,-9.255068,-0.356974,-0.901073,0.246246,-0.204214,0.237438,-0.059997,-13.336090,-24.085205,34.965820,,,,,,
1478385519.64,-2.442814,1.294315,-1.054362,-3.408452,-4.811914,-8.322666,-0.175599,-0.962022,0.208995,-1.543869,0.202378,1.141682,0.283508,-32.264465,30.701599,,,,,,
1478385519.66,-3.125419,1.431035,-0.476821,-4.416206,-6.431015,-7.587389,-0.002253,-0.990249,0.139289,-2.157217,-0.187165,1.739419,8.754105,-34.142151,28.016907,,,,,,
1478385519.68,2.040238,1.446874,0.549120,-3.174284,-2.923360,-3.060427,0.110234,-0.992332,0.055917,-3.662922,-0.642480,3.345968,8.754105,-34.142151,28.016907,,,,,,
1478385519.70,1.822540,1.438823,0.803055,-0.178889,4.269940,-0.430614,0.127443,-0.991304,0.032778,-3.831621,0.777254,3.585706,15.651474,-36.171509,23.666992,,,,,,
1478385519.72,2.073268,1.419608,0.643138,2.142594,4.006875,-0.130278,0.131996,-0.988593,0.072534,-2.300423,1.303198,1.924841,17.826767,-36.923965,21.216003,,,,,,
1478385519.74,2.530496,1.405665,0.235142,2.991609,2.056671,2.677922,0.094317,-0.986397,0.134632,-2.237734,0.629036,0.756466,14.149948,-35.643890,26.275391,,,,,,
1478385519.76,-3.083335,1.295656,-0.395572,6.478223,4.029028,8.222773,-0.015819,-0.962387,0.271221,5.991130,-6.254929,4.537006,13.413498,-31.365082,30.080200,,,,,,
1478385519.78,-2.788581,1.183971,-0.853145,5.070031,-7.346437,6.421859,-0.130425,-0.926111,0.353988,-5.321952,5.182001,-1.611343,13.413498,-31.365082,30.080200,,,,,,
1478385519.80,-2.691204,1.048776,-0.954186,5.396068,2.676144,2.688082,-0.217063,-0.866813,0.448908,-0.843667,4.386039,2.237005,4.473129,-33.536346,33.822327,,,,,,
1478385519.82,-2.622146,0.948053,-0.947250,3.736464,1.403726,3.526817,-0.289533,-0.812281,0.506330,-2.110614,-2.325002,-0.019040,2.153564,-31.208008,37.167114,,,,,,
1478385519.84,-2.570484,0.864603,-1.002766,2.480420,0.810321,2.215251,-0.350796,-0.760837,0.545957,-0.478779,-0.670574,0.544803,0.598328,-25.880188,39.985596,,,,,,
1478385519.86,-2.525203,0.806540,-1.011339,2.053057,2.442960,2.077966,-0.400040,-0.721897,0.564653,-0.326202,-1.011822,1.137542,-4.411484,-21.602463,42.697662,,,,,,
1478385519.88,-2.470240,0.763459,-1.020794,1.182886,2.674579,1.283252,-0.449396,-0.691425,0.565664,-1.139288,-3.277035,0.049891,-4.411484,-21.602463,42.697662,,,,,,
1478385519.90,-2.386242,0.732215,-1.041293,0.414600,3.914297,1.679574,-0.509836,-0.668519,0.541434,-0.255835,-2.649307,-0.747961,-5.978592,-19.877563,42.601837,,,,,,
1478385519.92,-2.292398,0.723475,-1.054897,-0.320252,4.317935,-0.120886,-0.562693,-0.661993,0.495118,1.407084,-1.621058,-1.053238,-9.346451,-18.453064,42.113861,,,,,,
1478385519.94,-2.219213,0.751631,-1.059305,-1.390119,2.887203,-1.282716,-0.582299,-0.682831,0.441213,2.306130,-0.977219,-1.081686,-12.717010,-17.854218,40.953369,,,,,,
1478385519.96,-2.197455,0.772460,-1.092746,-1.685260,-1.985477,1.552849,-0.580113,-0.697899,0.420007,1.790669,-2.097511,-0.189935,-14.966415,-18.531631,38.532898,,,,,,
1478385519.98,-2.245170,0.688723,-1.183454,0.622504,-7.525769,6.733087,-0.603053,-0.635552,0.482080,2.214931,-1.141746,0.275626,-14.966415,-18.531631,38.532898,,,,,,
1478385520.00,-2.341654,0.564314,-1.252473,2.922365,-5.151852,6.161328,-0.606098,-0.534836,0.588723,1.578175,0.091492,0.014487,-12.037643,-17.405777,39.383789,,,,,,
1478385520.02,-2.352979,0.424419,-1.275760,4.968356,1.207564,5.478291,-0.646440,-0.411791,0.642295,-0.185347,-1.319959,-0.541771,-8.500854,-13.953293,41.883789,,,,,,
1478385520.04,-2.264376,0.272814,-1.273424,5.135203,5.946772,5.531150,-0.740524,-0.269443,0.615650,0.717651,-3.038480,-0.358326,-8.332062,-9.301880,43.296570,,,,,,
1478385520.06,-2.142912,0.127258,-1.266376,4.150447,5.583170,5.861784,-0.833959,-0.126915,0.537034,1.562673,-3.576286,-0.542756,-13.026443,-2.476791,43.379150,,,,,,
1478385520.08,-2.064607,-0.014362,-1.266178,3.443794,3.176774,6.076167,-0.880442,0.014361,0.473936,1.705805,-2.434054,-0.824507,-13.026443,-2.476791,43.379150,,,,,,
1478385520.10,-2.021648,-0.141098,-1.253151,3.272842,1.091778,4.801917,-0.891132,0.140630,0.431402,1.304431,-2.284444,-0.769888,-21.364304,9.668213,38.384308,,,,,,
1478385520.12,-2.032790,-0.224893,-1.244191,1.559334,-1.309257,2.833913,-0.872623,0.223002,0.434510,0.900776,-2.071818,-0.153839,-21.861832,15.216537,36.712708,,,,,,
1478385520.14,-2.076405,-0.254973,-1.247038,-0.175765,-2.889726,0.333918,-0.846595,0.252219,0.468681,0.535697,-0.728156,-0.037330,-21.021530,18.591476,36.635956,,,,,,
1478385520.16,-2.167760,-0.200262,-1.256447,-2.857835,-5.142292,-3.551044,-0.810517,0.198926,0.550900,0.349152,0.107135,0.008625,-18.918503,19.416931,37.104553,,,,,,
1478385520.18,-2.265559,-0.058951,-1.257904,-5.205369,-4.382757,-6.587358,-0.766871,0.058917,0.639091,0.544947,0.245023,0.273430,-18.918503,19.416931,37.104553,,,,,,
1478385520.20,-2.327184,0.139165,-1.253099,-6.994832,-2.133788,-7.944386,-0.720288,-0.138716,0.679664,0.334775,0.239607,0.049447,-11.910706,11.922577,42.747101,,,,,,
1478385520.22,-2.332230,0.360429,-1.243355,-7.398425,1.135444,-8.564328,-0.677337,-0.352675,0.645627,0.081024,0.159240,0.203174,-10.226151,3.373901,44.064575,,,,,,
1478385520.24,-2.290154,0.593579,-1.218250,-6.828329,3.394328,-9.917223,-0.623556,-0.559331,0.546193,0.204885,0.243810,0.143886,-9.891693,-5.701309,43.870148,,,,,,
1478385520.26,-2.252264,0.839465,-1.161735,-5.884334,3.742635,-11.157199,-0.518694,-0.744286,0.420708,0.191408,0.596077,-0.086846,-9.325958,-14.254120,41.051483,,,,,,
1478385520.28,-2.292167,1.076081,-1.058922,-5.015997,1.002359,-10.620467,-0.356514,-0.880104,0.313552,0.303520,0.803596,-0.273498,-9.325958,-14.254120,41.051483,,,,,,
1478385520.30,-2.534648,1.271293,-0.829539,-3.842971,-3.038435,-9.351708,-0.168282,-0.955483,0.242349,-0.758384,-0.146751,0.053489,-8.006195,-22.132599,37.563293,,,,,,
1478385520.32,3.035363,1.399027,-0.212361,-4.599684,-6.802894,-7.841947,0.018123,-0.985284,0.169962,-2.222789,-1.143378,1.817648,2.982925,-31.812714,32.452271,,,,,,
1478385520.34,1.902942,1.393577,0.790412,-4.695799,-6.299784,-5.539348,0.166658,-0.984338,0.057484,-3.606858,-1.473166,3.163707,12.580063,-33.766663,28.504028,,,,,,
1478385520.36,1.579426,1.353213,1.096096,-1.234210,2.049362,-0.720622,0.215863,-0.976422,0.001863,-5.283963,0.476361,3.998809,18.428604,-35.796783,23.393616,,,,,,
1478385520.38,1.729775,1.373345,1.006900,1.739984,1.976159,1.867796,0.193697,-0.980570,0.031056,-2.632540,1.146921,2.342418,18.428604,-35.796783,23.393616,,,,,,
1478385520.40,2.139337,1.406733,0.580034,3.627321,-1.084365,3.504826,0.137635,-0.986572,0.087937,-2.440980,1.276077,1.681869,18.503036,-36.097305,22.870300,,,,,,
1478385520.42,2.807992,1.397398,-0.094203,3.690664,1.353101,4.125984,0.056495,-0.985004,0.163019,-2.571983,1.280170,0.889196,13.848587,-35.567780,27.397156,,,,,,
1478385520.44,-3.023448,1.256642,-0.453684,6.329009,6.897329,5.228137,-0.036423,-0.951058,0.306858,6.529816,-6.504249,2.598156,14.463699,-31.365234,29.940735,,,,,,
1478385520.46,-2.827839,1.147424,-0.783443,4.697280,-6.453762,5.604188,-0.126797,-0.911709,0.390781,-6.026401,5.008281,-0.560978,6.055313,-31.284393,35.781372,,,,,,
1478385520.48,-2.679689,1.021884,-0.890859,4.722277,3.829270,3.398447,-0.232524,-0.853093,0.467082,-0.077489,2.739659,1.149037,6.055313,-31.284393,35.781372,,,,,,
1478385520.50,-2.614605,0.932095,-0.909113,2.672708,0.520713,2.654979,-0.299825,-0.802871,0.515271,-0.485210,-2.555970,0.367222,2.831818,-30.006577,38.595337,,,,,,
1478385520.52,-2.588711,0.874170,-0.939096,1.877108,1.685044,1.752913,-0.336949,-0.767011,0.546040,-1.504650,-0.338778,1.972972,-0.372925,-24.603851,41.322052,,,,,,
1478385520.54,-2.512612,0.836525,-0.942258,1.084760,3.828238,0.877050,-0.394202,-0.742319,0.541818,-0.193734,-2.131094,0.780417,-3.959137,-21.077469,42.700592,,,,,,
,,,,,,,,,,,,,,,,37.354428,-122.033287,39.722595,3.330000,88.242188,1478385610.00
1478385520.56,-2.450790,0.820886,-0.959204,-0.098358,2.174728,1.109770,-0.434268,-0.731750,0.525312,-0.741803,-3.115052,-0.388303,-7.253693,-19.877502,42.664062,,,,,,
1478385520.58,-2.368283,0.811689,-0.990494,-0.479238,3.526110,0.817940,-0.480764,-0.725451,0.492531,0.428579,-2.483030,-0.943794,-7.253693,-19.877502,42.664062,,,,,,
1478385520.60,-2.285489,0.828651,-0.996387,-1.003194,3.836172,-1.199300,-0.510482,-0.737020,0.442956,2.218291,-1.499094,-1.213830,-9.805466,-20.327682,42.489899,,,,,,
1478385520.62,-2.246740,0.858183,-1.000077,-0.889883,-0.126655,-0.308255,-0.510051,-0.756656,0.409048,1.800563,-1.196271,-0.711370,-13.176819,-19.953995,41.180084,,,,,,
1478385520.64,-2.242951,0.794155,-1.072754,1.129625,-3.688555,6.566099,-0.548432,-0.713271,0.436424,1.602586,-1.837159,0.898399,-12.796982,-19.656311,38.857971,,,,,,
1478385520.66,-2.295344,0.647288,-1.144612,3.454814,-4.920456,7.230246,-0.597334,-0.603025,0.528728,1.799315,-0.051638,0.088643,-11.808929,-16.204651,40.507477,,,,,,
1478385520.68,-2.327567,0.488314,-1.183255,4.613257,-1.027824,6.765384,-0.642082,-0.469137,0.606334,0.105950,-1.520090,-0.525431,-11.808929,-16.204651,40.507477,,,,,,
1478385520.70,-2.267204,0.327275,-1.193192,5.336318,5.214889,5.926940,-0.726432,-0.321464,0.607418,0.127250,-2.407234,-0.227108,-11.113312,-10.802200,42.973236,,,,,,
1478385520.72,-2.119237,0.173624,-1.174840,4.939985,8.165685,5.892699,-0.840509,-0.172753,0.513519,1.723489,-3.317024,-0.278793,-12.210709,-4.501694,43.468384,,,,,,
1478385520.74,-1.995765,0.014719,-1.169110,3.431376,4.661761,7.382638,-0.910953,-0.014718,0.412248,2.774356,-3.427375,-1.004090,-17.950836,2.546188,41.364838,,,,,,
1478385520.75,-1.941171,-0.141801,-1.160060,3.510994,1.769776,6.633336,-0.922835,0.141326,0.358332,1.964858,-2.017852,-1.161799,-25.904694,16.039246,34.419769,,,,,,
1478385520.77,-1.916957,-0.270258,-1.133384,3.344068,0.520081,4.891285,-0.906537,0.266980,0.326973,1.624189,-2.231885,-0.527993,-25.904694,16.039246,34.419769,,,,,,
1478385520.79,-1.927862,-0.354544,-1.116939,1.295663,-1.723404,2.995785,-0.878654,0.347163,0.327787,1.513328,-2.731883,-0.257032,-24.974319,22.112213,32.385925,,,,,,
1478385520.81,-1.996593,-0.392847,-1.125918,-0.236584,-4.073169,1.242990,-0.841335,0.382820,0.381582,0.668254,-1.167717,0.440425,-22.328308,26.310806,30.974731,,,,,,
1478385520.83,-2.121086,-0.359848,-1.159667,-3.604894,-6.670951,-2.116315,-0.797779,0.352132,0.489441,0.590152,-0.170567,0.176941,-19.323074,27.811798,31.975281,,,,,,
1478385520.85,-2.284125,-0.218109,-1.197997,-6.510336,-7.316568,-5.851939,-0.738273,0.216384,0.638852,0.759315,0.469361,0.930912,-12.011520,21.819473,39.641388,,,,,,
1478385520.87,-2.383419,-0.023319,-1.214235,-8.033016,-3.177473,-6.376345,-0.687409,0.023317,0.725896,0.352174,0.808851,0.747890,-12.011520,21.819473,39.641388,,,,,,
1478385520.89,-2.375141,0.188746,-1.237147,-8.619568,2.421384,-6.749801,-0.681266,-0.187627,0.707582,-0.340035,0.269018,0.447935,-8.754776,13.498367,43.523926,,,,,,
1478385520.91,-2.275958,0.418856,-1.242734,-7.574727,5.948167,-9.128343,-0.695679,-0.406715,0.592127,0.392990,0.295219,0.269003,-9.098358,4.199509,44.673401,,,,,,
1478385520.93,-2.170227,0.664201,-1.214749,-5.868126,5.628072,-11.174419,-0.650130,-0.616431,0.444235,0.771346,0.740240,-0.022314,-11.911942,-5.027451,42.722931,,,,,,
1478385520.95,-2.142397,0.914296,-1.158788,-4.777724,1.704186,-11.436532,-0.513325,-0.792133,0.330186,1.256749,1.061634,-0.278520,-15.249878,-14.630981,39.193359,,,,,,
1478385520.97,-2.277806,1.134720,-1.039450,-3.670833,-3.724586,-10.387529,-0.321143,-0.906416,0.274366,0.259391,-0.163820,-0.206694,-15.249878,-14.630981,39.193359,,,,,,
1478385520.99,-2.704256,1.321385,-0.724547,-4.574854,-7.639807,-9.392349,-0.104541,-0.969058,0.223602,-1.717328,-1.265943,1.166885,-5.928986,-28.661987,33.178650,,,,,,
1478385521.01,2.465322,1.427933,0.236909,-6.198639,-8.301095,-7.520844,0.089113,-0.989812,0.111043,-2.750719,-2.395014,2.530147,4.708893,-32.114273,30.895447,,,,,,
1478385521.03,1.613892,1.383680,1.014716,-3.324419,-0.833987,-2.748303,0.185854,-0.982545,0.008014,-5.363588,-0.348128,3.970089,14.527542,-35.194260,25.902771,,,,,,
1478385521.05,1.603721,1.372038,1.078146,0.800253,2.871373,0.190132,0.197345,-0.980313,0.006500,-2.865512,1.069363,2.984894,17.075455,-37.073517,21.658936,,,,,,
1478385521.07,1.890448,1.382649,0.808615,3.334869,0.917653,1.821717,0.177565,-0.982352,0.058774,-2.973967,1.499045,2.059786,17.075455,-37.073517,21.658936,,,,,,
1478385521.09,2.517858,1.404243,0.202887,3.479779,1.659187,4.801702,0.096830,-0.986162,0.134568,-3.325086,0.782167,0.637695,15.575119,-36.321045,24.116699,,,,,,
1478385521.11,3.126332,1.291320,-0.347028,11.021986,5.259476,4.134525,0.004209,-0.961200,0.275821,6.858522,-5.294919,5.538571,12.573624,-35.567780,27.384399,,,,,,
1478385521.13,-2.843286,1.182033,-0.795672,5.244574,-9.260193,7.133810,-0.111402,-0.925379,0.362304,-7.838428,4.256357,-2.178908,9.515030,-29.711151,34.011292,,,,,,
1478385521.15,-2.674977,1.040695,-0.942277,5.509213,5.730384,4.452099,-0.227462,-0.862756,0.451567,0.084716,4.062372,2.391359,3.200623,-32.334412,35.755981,,,,,,
1478385521.17,-2.587318,0.939202,-0.951005,3.387261,1.982963,2.815166,-0.310760,-0.807087,0.502034,-0.471008,-2.258251,0.502986,3.200623,-32.334412,35.755981,,,,,,
1478385521.19,-2.554283,0.868618,-0.995531,2.002564,0.478073,2.510527,-0.357899,-0.763437,0.537655,-1.616863,-0.365485,1.324802,-0.160019,-27.980942,39.234314,,,,,,
1478385521.21,-2.484212,0.817909,-1.003714,1.667994,3.935452,1.451034,-0.417802,-0.729718,0.541252,-0.420943,-1.852573,1.288551,-4.262863,-22.203369,41.800964,,,,,,
1478385521.23,-2.416088,0.786740,-1.017291,0.540874,2.619198,1.402715,-0.468544,-0.708055,0.528322,-0.572196,-3.171782,-0.296999,-8.304810,-20.252884,42.279663,,,,,,
1478385521.25,-2.333765,0.762895,-1.047188,-0.119797,3.398347,1.532988,-0.522459,-0.691017,0.499532,0.248030,-2.282448,-0.781316,-10.701263,-19.653442,41.728943,,,,,,
1478385521.27,-2.249877,0.763546,-1.067614,-0.836100,3.322512,-0.301879,-0.562127,-0.691487,0.453717,1.759942,-1.503520,-1.143505,-10.701263,-19.653442,41.728943,,,,,,
1478385521.29,-2.198122,0.793723,-1.083698,-1.465210,0.932397,-0.891839,-0.567688,-0.712969,0.411589,2.384400,-1.049925,-0.976989,-13.697067,-19.054443,40.722168,,,,,,
1478385521.31,-2.207437,0.794122,-1.129485,-1.041662,-3.745863,2.807728,-0.563601,-0.713248,0.416690,1.711718,-2.253793,0.366803,-15.267563,-19.057465,37.706451,,,,,,
1478385521.33,-2.260095,0.697501,-1.213536,1.465475,-6.422825,6.521767,-0.591463,-0.642304,0.487459,1.978792,-0.176147,0.179915,-12.943481,-19.132065,38.104950,,,,,,
1478385521.35,-2.328239,0.570050,-1.262465,3.474054,-3.056623,5.673371,-0.611702,-0.539674,0.578423,1.034309,-0.383849,-0.333244,-10.156479,-15.754944,40.222656,,,,,,
1478385521.37,-2.305488,0.429101,-1.268317,5.218841,3.333352,5.230289,-0.674764,-0.416054,0.609584,0.148046,-1.728020,-0.408153,-10.156479,-15.754944,40.222656,,,,,,
1478385521.39,-2.194399,0.277940,-1.251365,5.316790,6.750444,5.485597,-0.780626,-0.274375,0.561553,1.311784,-3.109368,-0.320388,-9.841949,-11.928162,42.014313,,,,,,
1478385521.41,-2.077072,0.131396,-1.237729,3.810491,5.058295,6.068090,-0.867018,-0.131018,0.480743,2.028166,-3.150324,-0.796036,-13.263184,-5.477982,42.185760,,,,,,
1478385521.43,-2.008586,-0.007381,-1.230756,3.516322,2.702580,5.841003,-0.905666,0.007381,0.423927,1.762890,-1.961040,-1.173912,-23.545486,7.791687,36.868134,,,,,,
1478385521.45,-1.974547,-0.126122,-1.208185,3.160225,0.772093,4.338214,-0.912290,0.125787,0.389750,1.597425,-2.056070,-0.680598,-24.793671,13.114807,34.964691,,,,,,
1478385521.47,-1.995598,-0.197987,-1.195857,1.222326,-2.121844,2.270169,-0.893321,0.196696,0.404089,1.192607,-2.116145,-0.173437,-24.793671,13.114807,34.964691,,,,,,
1478385521.49,-2.058064,-0.218020,-1.197914,-0.258598,-3.755345,0.074970,-0.862698,0.216297,0.457130,0.518002,-0.766224,-0.082572,-23.870941,17.838821,33.984680,,,,,,
1478385521.51,-2.160492,-0.166050,-1.213245,-3.102233,-5.437227,-3.064012,-0.819678,0.165288,0.548459,0.458747,0.073527,0.241030,-18.921448,18.741867,37.031525,,,,,,
1478385521.53,-2.268890,-0.031399,-1.223815,-5.230148,-5.064369,-6.111692,-0.765691,0.031394,0.642442,0.761068,0.471795,0.557891,-15.042313,15.144989,40.156097,,,,,,
1478385521.55,-2.344389,0.156366,-1.221200,-6.755269,-2.791265,-7.317546,-0.706677,-0.155730,0.690185,0.219601,0.459624,0.350663,-12.754608,7.797806,42.976044,,,,,,
,,,,,,,,,,,,,,,,37.354429,-122.033246,39.857849,3.360000,86.132812,1478385611.00
1478385521.57,-2.354903,0.362905,-1.214762,-7.115929,1.109608,-7.779685,-0.661906,-0.354991,0.660198,-0.020620,0.333446,0.361271,-12.754608,7.797806,42.976044,,,,,,
1478385521.59,-2.307245,0.582517,-1.187360,-6.365736,3.854111,-9.449322,-0.618676,-0.550127,0.560892,0.315362,0.277285,0.157813,-11.519028,-0.676331,43.838776,,,,,,
1478385521.61,-2.270527,0.815960,-1.124284,-5.566856,3.533818,-10.871952,-0.524166,-0.728384,0.441257,0.381267,0.655767,-0.032108,-11.403854,-9.003098,42.064941,,,,,,
1478385521.63,-2.325727,1.046988,-0.999810,-4.379732,1.354912,-11.053239,-0.364291,-0.865921,0.342743,0.462131,0.664779,-0.185715,-10.986542,-17.331299,38.869080,,,,,,
1478385521.65,-2.603634,1.240553,-0.725482,-3.649157,-3.348944,-10.036017,-0.166152,-0.945964,0.278472,-0.419663,-0.582616,-0.055113,-2.257767,-29.562180,32.993103,,,,,,
1478385521.67,2.927902,1.360319,-0.095763,-4.896846,-9.129184,-8.552955,0.044307,-0.977931,0.204174,-2.308818,-1.962041,1.267414,-2.257767,-29.562180,32.993103,,,,,,
1478385521.69,1.988265,1.359116,0.690160,-4.316067,-6.577181,-4.404788,0.192059,-0.977679,0.085186,-4.067151,-1.599271,3.377354,5.830490,-32.864258,30.908875,,,,,,
1478385521.71,1.704930,1.340000,0.930806,-1.011987,-0.236537,-0.268172,0.226698,-0.973485,0.030592,-4.501448,0.860600,3.752703,15.954636,-34.894775,25.391174,,,,,,
1478385521.73,1.827359,1.352641,0.821225,2.218307,1.003373,1.217418,0.209345,-0.976298,0.054920,-2.904993,1.891871,2.285183,19.181503,-35.648270,21.900696,,,,,,
1478385521.75,2.233123,1.366427,0.444628,3.471112,2.358664,3.420002,0.160039,-0.979189,0.124805,-3.119191,0.504214,1.205365,16.178726,-35.270309,24.869507,,,,,,
1478385521.77,2.946576,1.288147,-0.205340,9.306990,6.880566,4.860390,0.054046,-0.960320,0.273614,3.840775,-5.628196,5.236915,16.178726,-35.270309,24.869507,,,,,,
1478385521.79,-2.904390,1.182361,-0.659764,5.098003,-5.096114,7.912136,-0.088998,-0.925503,0.368136,-4.700446,2.158871,-3.106265,15.217087,-30.765671,29.496460,,,,,,
1478385521.81,-2.755000,1.050653,-0.851702,5.060260,1.621749,4.479546,-0.187388,-0.867748,0.460325,-0.862493,4.644985,2.246614,5.981308,-31.435516,34.656067,,,,,,
1478385521.83,-2.673792,0.947720,-0.876005,3.808736,2.756218,2.828709,-0.263131,-0.812087,0.520842,-1.551689,-0.898591,1.112367,2.083984,-29.782333,37.837158,,,,,,
1478385521.85,-2.598828,0.863835,-0.929940,2.478622,1.620578,2.777329,-0.335484,-0.760339,0.556179,-0.622799,-1.361793,0.946872,0.828598,-24.755341,39.834534,,,,,,
1478385521.87,-2.539219,0.811223,-0.932052,2.029638,3.714445,1.328185,-0.390168,-0.725130,0.567412,-0.468963,-0.951964,1.401186,0.828598,-24.755341,39.834534,,,,,,
1478385521.89,-2.466012,0.774961,-0.941015,0.772667,3.002326,1.243907,-0.446781,-0.699688,0.557516,-0.999798,-3.192219,-0.034856,-5.529831,-20.403305,41.857910,,,,,,
1478385521.91,-2.380124,0.750386,-0.971744,-0.129909,3.391794,1.880188,-0.504673,-0.681921,0.529423,-0.197430,-2.335275,-0.562184,-8.898361,-18.978348,41.819946,,,,,,
1478385521.93,-2.289154,0.740863,-1.006787,-0.805252,3.427248,0.593799,-0.555546,-0.674925,0.485640,1.232273,-1.624041,-1.051252,-11.746429,-18.753967,41.190765,,,,,,
1478385521.95,-2.210625,0.762259,-1.026611,-1.629321,2.971419,-0.770059,-0.580212,-0.690557,0.431839,1.873593,-0.740504,-0.922898,-15.945007,-18.754913,40.248779,,,,,,
1478385521.97,-2.168537,0.790199,-1.062586,-1.905076,-1.088125,0.453391,-0.581688,-0.710493,0.396028,1.629646,-1.623430,-0.398348,-15.945007,-18.754913,40.248779,,,,,,
1478385521.99,-2.195851,0.732132,-1.147393,0.005558,-6.161566,6.069070,-0.603131,-0.668457,0.435200,1.758145,-1.409409,0.619930,-15.866089,-19.133652,36.500732,,,,,,
1478385522.01,-2.276703,0.615935,-1.229177,1.786600,-5.682317,6.326703,-0.621173,-0.577722,0.529510,1.384296,0.068444,0.056900,-14.139984,-18.457382,37.790955,,,,,,
1478385522.03,-2.301303,0.493246,-1.263268,3.730991,0.186085,5.038479,-0.656052,-0.473487,0.587712,-0.041946,-0.823830,-0.043431,-10.979538,-15.304886,40.288086,,,,,,
1478385522.05,-2.226666,0.363369,-1.250848,5.006095,5.871722,4.559522,-0.740770,-0.355426,0.570029,0.773652,-1.939633,0.145395,-12.088531,-11.253403,41.764862,,,,,,
1478385522.07,-2.101265,0.223134,-1.228225,4.394094,6.283104,5.777590,-0.841186,-0.221287,0.493395,2.135299,-3.357784,-0.370531,-12.088531,-11.253403,41.764862,,,,,,
1478385522.09,-2.021184,0.077903,-1.224809,3.300019,2.672656,6.439929,-0.897548,-0.077824,0.433995,2.114909,-2.652522,-0.898319,-21.850677,1.568161,38.328735,,,,,,
1478385522.11,-1.989666,-0.061486,-1.210155,3.714712,1.228575,5.662073,-0.911823,0.061447,0.405959,1.643177,-1.738373,-0.512496,-24.520584,7.566086,36.259064,,,,,,
1478385522.13,-1.975240,-0.177483,-1.185749,3.085165,-0.070353,4.319739,-0.904880,0.176552,0.387326,1.252002,-2.281869,-0.069913,-25.317184,13.489944,35.108276,,,,,,
1478385522.15,-2.001729,-0.255556,-1.172584,1.656711,-2.149743,2.746295,-0.879069,0.252783,0.404152,0.699732,-1.897986,-0.035179,-23.417465,18.513519,33.687256,,,,,,
1478385522.17,-2.060406,-0.294725,-1.177501,-0.124842,-3.408451,1.200137,-0.844464,0.290477,0.450004,0.494031,-0.772121,-0.119636,-23.417465,18.513519,33.687256,,,,,,
1478385522.19,-2.150490,-0.265809,-1.200841,-2.715075,-4.401294,-1.954672,-0.807248,0.262690,0.528530,0.539502,0.321539,0.235798,-21.604980,21.438980,34.146576,,,,,,
1478385522.21,-2.236542,-0.153335,-1.218708,-4.670528,-3.716420,-5.110172,-0.777229,0.152735,0.610399,0.328117,0.931997,0.370619,-15.697617,19.118774,38.937622,,,,,,
1478385522.23,-2.281974,0.011137,-1.224120,-5.868889,-1.187867,-6.651309,-0.757547,-0.011137,0.652686,0.177865,0.794905,0.341684,-14.826874,13.571640,41.812988,,,,,,
1478385522.25,-2.264449,0.205601,-1.220046,-6.173683,2.072147,-8.162169,-0.752721,-0.204156,0.625884,0.366537,0.440072,0.069367,-13.434113,6.672440,42.597626,,,,,,
1478385522.27,-2.208833,0.424265,-1.193120,-5.459658,3.704943,-10.069979,-0.732050,-0.411651,0.542813,0.723444,0.352951,-0.180844,-13.434113,6.672440,42.597626,,,,,,
1478385522.29,-2.161036,0.654197,-1.141209,-4.381052,3.478302,-10.887136,-0.659276,-0.608522,0.441651,0.909505,0.058610,-0.560944,-14.669342,-1.277939,42.234100,,,,,,
1478385522.31,-2.179414,0.876729,-1.060221,-3.540207,0.777031,-10.827931,-0.524809,-0.768651,0.365721,0.913512,-0.271587,-0.741011,-16.128006,-9.530243,39.919281,,,,,,
1478385522.33,-2.325650,1.089491,-0.908718,-3.386951,-1.865077,-10.961006,-0.337190,-0.886392,0.317195,0.669816,-1.034202,-0.534908,-11.010651,-23.859802,35.363403,,,,,,
1478385522.35,-2.714410,1.277153,-0.565312,-4.079698,-4.459404,-10.404155,-0.119918,-0.957196,0.263431,-0.187226,-1.938663,-0.465397,-3.453339,-28.286301,33.877350,,,,,,
1478385522.37,2.639483,1.383424,0.288393,-5.780394,-4.706160,-9.181245,0.089651,-0.982497,0.163285,-1.282125,-2.504151,0.284545,-3.453339,-28.286301,33.877350,,,,,,
1478385522.39,1.690759,1.309226,1.171680,-5.826827,-3.978050,-7.353389,0.256739,-0.965985,0.030948,-2.508662,-1.032413,1.087094,6.059799,-31.738739,31.432739,,,,,,
1478385522.41,1.340414,1.194698,1.457922,-3.862014,-4.009529,-4.352064,0.357590,-0.930105,-0.083871,-1.518738,-0.991389,1.887781,13.929672,-34.443451,26.719604,,,,,,
1478385522.43,1.191659,1.116758,1.508190,-1.238120,-5.226152,-2.681971,0.407451,-0.898683,-0.162334,-2.979381,0.937532,2.893260,25.042557,-34.903397,16.782104,,,,,,
1478385522.45,1.139875,1.118798,1.521969,0.484071,0.369067,1.988328,0.396836,-0.899576,-0.182440,-4.673722,0.363138,3.359747,26.396439,-34.981232,13.945923,,,,,,
1478385522.47,1.222668,1.183884,1.487015,2.489183,3.031114,2.937214,0.354695,-0.926079,-0.128722,-2.341252,0.426140,2.433074,26.396439,-34.981232,13.945923,,,,,,
