timestamp(unix),attitude_roll(radians),attitude_pitch(radians),attitude_yaw(radians),rotation_rate_x(radians/s),rotation_rate_y(radians/s),rotation_rate_z(radians/s),gravity_x(G),gravity_y(G),gravity_z(G),user_acc_x(G),user_acc_y(G),user_acc_z(G),magnetic_field_x(microteslas),magnetic_field_y(microteslas),magnetic_field_z(microteslas),latitude(degree),longitude(degree),altitude(meter),speed(m/s),course(degree),timestamp(unix)
1478385036.98,-2.893906,1.392218,-0.502648,-0.048487,-0.178051,-0.113243,-0.043548,-0.984097,0.172209,0.028793,0.010434,-0.030959,-13.321457,-36.599472,29.671753,,,,,,
1478385037.00,-2.892155,1.392523,-0.507898,-0.028123,-0.115672,0.099580,-0.043776,-0.984151,0.171843,-0.061693,0.034353,0.004534,-12.721603,-36.749832,29.303223,,,,,,
,,,,,,,,,,,,,,,,37.354389,-122.033303,39.600464,0.000000,324.843750,1478385036.98
,,,,,,,,,,,,,,,,37.354389,-122.033303,39.600464,0.000000,324.843750,1478385036.00
1478385037.02,-2.887304,1.392616,-0.513098,-0.002024,0.020305,0.040168,-0.044586,-0.984168,0.171539,-0.017914,-0.007379,-0.010330,-13.621689,-36.599319,29.818787,,,,,,
1478385037.04,-2.881274,1.392682,-0.518288,-0.019114,0.036299,0.044456,-0.045603,-0.984179,0.171205,-0.000906,-0.001187,-0.045289,-13.621689,-36.599319,29.818787,,,,,,
1478385037.06,-2.874567,1.393366,-0.525756,-0.057079,-0.075727,0.057971,-0.046572,-0.984300,0.170246,0.002749,0.014437,0.002606,-13.320908,-36.524628,29.521606,,,,,,
,,,,,,,,,,,,,,,,37.354389,-122.033303,39.567322,0.000000,321.679688,1478385037.00
1478385037.08,-2.869210,1.394695,-0.532752,-0.107198,-0.071940,0.033321,-0.047132,-0.984534,0.168734,0.020413,0.017951,0.060804,-13.095245,-36.449844,29.298584,,,,,,
1478385037.10,-2.863833,1.396938,-0.539907,-0.139168,-0.074347,0.020438,-0.047433,-0.984925,0.166354,-0.017814,0.001007,0.054548,-13.846802,-36.674469,29.666748,,,,,,
1478385037.12,-2.858202,1.400024,-0.546059,-0.173592,0.020282,0.002475,-0.047518,-0.985454,0.163165,-0.026685,0.010265,0.022458,-13.847260,-36.824631,29.517212,,,,,,
1478385037.14,-2.850336,1.403794,-0.552116,-0.202720,0.128919,-0.005824,-0.047733,-0.986087,0.159227,-0.029080,0.003070,0.012496,-13.847260,-36.824631,29.517212,,,,,,
1478385037.16,-2.841760,1.407573,-0.557774,-0.185761,0.151290,-0.014281,-0.047996,-0.986709,0.155250,0.021415,0.026961,-0.002098,-13.171036,-36.750229,28.923706,,,,,,
1478385037.18,-2.832989,1.411190,-0.564018,-0.191992,0.108760,0.000549,-0.048272,-0.987290,0.151422,0.029076,0.010758,-0.055947,-13.097275,-37.125519,28.625671,,,,,,
1478385037.20,-2.824737,1.414204,-0.570775,-0.143991,0.088652,-0.000491,-0.048592,-0.987764,0.148190,-0.006248,0.011995,-0.078122,-14.073486,-37.275146,28.991272,,,,,,
1478385037.22,-2.817328,1.416372,-0.575809,-0.108981,0.138000,0.010390,-0.049006,-0.988100,0.145795,-0.019567,0.009966,-0.096509,-13.848267,-37.350525,28.618835,,,,,,
1478385037.24,-2.809397,1.417808,-0.580957,-0.046124,0.138287,0.014774,-0.049698,-0.988320,0.144061,0.027085,0.022271,-0.073580,-13.848267,-37.350525,28.618835,,,,,,
1478385037.26,-2.802890,1.418078,-0.585000,-0.005499,0.102373,0.032909,-0.050546,-0.988361,0.143483,0.030359,0.016834,-0.079716,-13.247055,-37.200897,28.249390,,,,,,
1478385037.28,-2.799227,1.416991,-0.587376,0.070263,0.063173,0.032933,-0.051432,-0.988195,0.144309,0.000116,0.026647,-0.058524,-14.372803,-37.350830,28.313599,,,,,,
1478385037.30,-2.798262,1.414760,-0.587261,0.125749,0.037847,0.039370,-0.052313,-0.987851,0.146334,-0.008020,0.011304,-0.050936,-14.374054,-37.726120,28.014709,,,,,,
1478385037.32,-2.798822,1.411950,-0.586538,0.146157,-0.007810,0.052101,-0.053164,-0.987410,0.148977,0.025057,0.009322,-0.040441,-14.147827,-37.275604,28.540588,,,,,,
1478385037.34,-2.798660,1.408562,-0.587574,0.166631,-0.073743,0.064777,-0.054312,-0.986869,0.152118,0.039954,0.028571,-0.055103,-14.147827,-37.275604,28.540588,,,,,,
1478385037.36,-2.800369,1.404861,-0.587362,0.182552,-0.057727,0.060575,-0.055274,-0.986264,0.155652,-0.013039,0.005094,-0.017423,-13.547592,-37.200516,28.621399,,,,,,
1478385037.38,-2.800598,1.401483,-0.587044,0.102290,0.046335,0.042558,-0.056352,-0.985701,0.158803,-0.039335,0.013823,-0.002843,-14.297714,-37.050003,29.138367,,,,,,
1478385037.40,-2.797121,1.400168,-0.589727,0.054350,0.050513,0.049965,-0.057342,-0.985478,0.159826,0.004348,0.019582,0.147913,-13.696228,-36.825302,28.843811,,,,,,
1478385037.42,-2.795453,1.400094,-0.589611,-0.029033,0.097123,-0.041936,-0.057633,-0.985466,0.159799,0.006455,0.064552,0.076377,-14.070221,-36.600296,28.839355,,,,,,
1478385037.44,-2.800132,1.401523,-0.581432,-0.050961,0.254096,-0.115263,-0.056413,-0.985707,0.158740,-0.128249,0.011525,0.081784,-14.070221,-36.600296,28.839355,,,,,,
1478385037.46,-2.803031,1.403519,-0.571667,-0.077871,0.348121,-0.096888,-0.055299,-0.986042,0.157047,-0.105834,-0.024136,0.031781,-13.622025,-36.975220,28.919861,,,,,,
1478385037.48,-2.806847,1.405931,-0.561752,-0.086119,0.247370,-0.131369,-0.053918,-0.986440,0.155010,0.025125,-0.006647,-0.003796,-14.971222,-36.825317,28.831055,,,,,,
1478385037.50,-2.817861,1.407898,-0.547568,-0.055870,0.109618,-0.148790,-0.051590,-0.986761,0.153754,0.033432,0.006705,-0.053107,-14.521805,-37.050598,28.536194,,,,,,
1478385037.52,-2.831402,1.409537,-0.532101,-0.021719,0.094921,-0.139156,-0.049010,-0.987026,0.152899,-0.035493,0.013378,-0.061209,-14.295563,-36.825760,28.387756,,,,,,
1478385037.54,-2.846110,1.410087,-0.513817,0.042868,0.209155,-0.154755,-0.046598,-0.987114,0.153083,-0.041674,0.020836,-0.048103,-14.295563,-36.825760,28.387756,,,,,,
1478385037.56,-2.862984,1.409668,-0.492649,0.093061,0.170939,-0.153705,-0.044122,-0.987047,0.154245,0.015939,0.003481,-0.073557,-14.145569,-36.825760,28.389282,,,,,,
1478385037.58,-2.882499,1.407865,-0.470971,0.157396,0.047533,-0.142179,-0.041559,-0.986756,0.156797,0.034311,0.014176,-0.114713,-14.748703,-37.425461,28.685059,,,,,,
1478385037.60,-2.903540,1.404901,-0.449999,0.210989,-0.042692,-0.118829,-0.038941,-0.986271,0.160479,0.007889,0.007709,-0.094454,-13.771469,-36.900375,28.768250,,,,,,
1478385037.62,-2.923569,1.400597,-0.430291,0.267376,-0.016780,-0.111181,-0.036637,-0.985551,0.165369,0.011719,0.017686,-0.046656,-13.847595,-37.200516,28.618347,,,,,,
1478385037.64,-2.942523,1.395344,-0.411856,0.306972,-0.065541,-0.096288,-0.034519,-0.984648,0.171106,0.027546,0.010527,-0.055734,-13.847595,-37.200516,28.618347,,,,,,
1478385037.66,-2.961284,1.389232,-0.394581,0.340101,-0.094127,-0.087762,-0.032382,-0.983562,0.177641,0.023730,-0.002445,-0.042799,-14.448929,-37.274857,29.287537,,,,,,
1478385037.68,-2.977457,1.382830,-0.380418,0.345557,-0.124824,-0.068605,-0.030533,-0.982386,0.184350,0.008072,0.003001,-0.024361,-14.371552,-36.825089,29.061951,,,,,,
1478385037.70,-2.993034,1.376372,-0.366882,0.341221,-0.106826,-0.079247,-0.028596,-0.981159,0.191073,0.003465,0.003635,0.004071,-13.395233,-36.299393,29.745178,,,,,,
1478385037.72,-3.006569,1.370188,-0.354923,0.310278,-0.087631,-0.070701,-0.026824,-0.979946,0.197452,0.005538,0.000057,-0.000949,-13.470337,-36.299316,29.819397,,,,,,
1478385037.74,-3.018759,1.364242,-0.343965,0.308051,-0.058852,-0.072762,-0.025129,-0.978743,0.203543,0.006665,0.012877,-0.000220,-13.470337,-36.299316,29.819397,,,,,,
1478385037.76,-3.030434,1.358091,-0.333557,0.316688,-0.095128,-0.074984,-0.023418,-0.977463,0.209802,0.015041,0.008927,-0.028924,-13.995667,-36.223877,30.263977,,,,,,
1478385037.78,-3.042859,1.351832,-0.323289,0.329556,-0.121771,-0.076103,-0.021412,-0.976123,0.216161,-0.003918,-0.004499,-0.031240,-12.943314,-35.698868,30.272888,,,,,,
1478385037.80,-3.054865,1.345008,-0.312633,0.362303,-0.046124,-0.096138,-0.019392,-0.974618,0.223033,-0.034289,0.012551,-0.056880,-13.169113,-35.698349,30.795593,,,,,,
1478385037.82,-3.066322,1.337493,-0.300588,0.402485,0.039232,-0.109723,-0.017386,-0.972908,0.230538,-0.032663,-0.026711,-0.075097,-13.544098,-35.472672,31.466248,,,,,,
1478385037.84,-3.077020,1.329167,-0.288593,0.437611,0.046808,-0.111778,-0.015440,-0.970949,0.238786,0.002684,-0.025190,-0.096009,-13.544098,-35.472672,31.466248,,,,,,
1478385037.86,-3.087948,1.327672,-0.276937,0.493132,0.002249,-0.107521,-0.012908,-0.970591,0.240389,0.007689,-0.021459,-0.093386,-13.391846,-34.947601,31.541138,,,,,,
1478385037.88,-3.098466,1.317287,-0.266915,0.547703,-0.063492,-0.089444,-0.010813,-0.968038,0.250569,0.006846,0.000021,-0.091084,-12.717529,-35.022369,31.773132,,,,,,
1478385037.90,-3.108565,1.312691,-0.258096,0.592506,-0.084550,-0.079799,-0.008429,-0.966875,0.255110,0.002234,-0.069944,-0.095182,-13.016510,-34.646927,32.219055,,,,,,
1478385037.92,-3.117222,1.301732,-0.252577,0.536570,-0.228377,-0.042898,-0.006478,-0.964020,0.265750,-0.001045,-0.140655,-0.022815,-12.939926,-33.970947,33.192749,,,,,,
1478385037.94,-3.124466,1.291764,-0.250678,0.473909,-0.288879,-0.003668,-0.004717,-0.961322,0.275385,0.037767,-0.026577,0.001821,-12.939926,-33.970947,33.192749,,,,,,
1478385037.96,-3.130307,1.281826,-0.250889,0.510083,-0.266103,0.015689,-0.003216,-0.958538,0.284947,-0.032398,-0.021961,-0.032200,-12.112244,-33.370941,33.199219,,,,,,
1478385037.98,-3.132194,1.270984,-0.251590,0.583949,-0.041535,0.032462,-0.002776,-0.955392,0.295328,-0.055437,-0.144233,-0.161036,-12.112915,-33.295273,33.873962,,,,,,
1478385038.00,-3.123910,1.258267,-0.257987,0.744426,0.130123,0.148603,-0.005437,-0.951559,0.307419,0.001134,-0.093867,-0.367203,-12.112457,-33.069901,34.248291,,,,,,
1478385038.02,-3.112107,1.239580,-0.264250,0.992649,0.427029,0.092157,-0.009587,-0.945648,0.325052,-0.110637,-0.060731,-0.470865,-12.936188,-32.544159,34.988525,,,,,,
1478385038.04,-3.091352,1.219440,-0.272694,0.962995,0.787649,0.274729,-0.017284,-0.938907,0.343738,-0.162937,-0.233686,-0.258502,-12.936188,-32.544159,34.988525,,,,,,
1478385038.06,-3.053822,1.203755,-0.294084,0.547610,0.861085,0.477209,-0.031456,-0.933393,0.357474,0.001259,-0.181658,-0.009024,-12.930099,-31.043701,35.434082,,,,,,
1478385038.08,-3.020567,1.200746,-0.313798,-0.165927,0.707751,0.281093,-0.043664,-0.932309,0.359017,0.123360,-0.027087,0.175621,-14.052383,-30.293259,35.870544,,,,,,
,,,,,,,,,,,,,,,,37.354396,-122.033312,39.950317,0.160000,345.234375,1478385038.00
1478385038.10,-2.998766,1.212684,-0.323034,-0.862921,0.647909,-0.044017,-0.049892,-0.936560,0.346938,0.170604,0.173285,0.198885,-14.651703,-30.218506,35.639343,,,,,,
1478385038.12,-2.987781,1.237070,-0.320657,-1.403724,0.736519,-0.318230,-0.050185,-0.944828,0.323699,0.183684,0.133030,0.129838,-15.479843,-30.968658,35.483398,,,,,,
1478385038.14,-2.980598,1.270235,-0.305218,-1.665445,1.492173,-0.581575,-0.047458,-0.955171,0.292228,-0.127148,0.138337,0.187798,-15.479843,-30.968658,35.483398,,,,,,
1478385038.16,-2.965951,1.304661,-0.273189,-1.593232,2.765986,-0.808725,-0.045957,-0.964794,0.258959,-0.317339,0.136029,0.146040,-15.859818,-32.921204,32.935425,,,,,,
1478385038.18,-2.948976,1.337969,-0.219820,-1.434915,3.784416,-1.002237,-0.044168,-0.973018,0.226463,-0.337347,-0.085042,-0.053123,-17.287399,-34.123093,31.049744,,,,,,
1478385038.20,-2.927230,1.370554,-0.153250,-1.501624,4.626748,-1.038499,-0.042312,-0.980018,0.194354,-0.253342,-0.242134,-0.127307,-18.790421,-35.475128,29.013733,,,,,,
1478385038.22,-2.898160,1.407881,-0.084573,-1.804775,4.823224,-1.022460,-0.039095,-0.986759,0.157414,0.087511,-0.108014,-0.136021,-20.139191,-36.152985,26.152283,,,,,,
1478385038.24,-2.871397,1.450451,-0.027650,-2.003794,3.530015,-0.860758,-0.032045,-0.992767,0.115700,0.550829,0.000961,-0.234352,-20.139191,-36.152985,26.152283,,,,,,
1478385038.26,-2.873956,1.494300,0.014095,-2.034982,0.733565,-0.725336,-0.020210,-0.997076,0.073701,0.998100,0.039480,-0.614076,-21.940979,-38.634232,19.916687,,,,,,
1478385038.28,-2.845441,1.528998,-0.042527,-1.525207,-2.432913,-0.112407,-0.012195,-0.999127,0.039967,0.743869,0.451718,-0.173787,-22.091797,-39.686844,17.293396,,,,,,
1478385038.30,-2.719438,1.538202,-0.234826,0.504787,-3.719406,0.361966,-0.013352,-0.999469,0.029728,-0.011550,0.943744,0.709607,-22.020187,-40.286392,17.745911,,,,,,
1478385038.32,-2.782545,1.497367,-0.228105,2.390797,-1.948906,0.948133,-0.025779,-0.997305,0.068685,-0.885369,1.013403,1.546916,-20.447205,-40.435486,18.662048,,,,,,
1478385038.34,-2.701818,1.466451,-0.291090,0.878619,2.031128,0.682935,-0.044343,-0.994561,0.094245,-1.286422,-0.955909,0.280434,-20.447205,-40.435486,18.662048,,,,,,
1478385038.36,-2.585110,1.445251,-0.376945,0.543868,0.673401,1.113466,-0.066139,-0.992130,0.106323,0.092735,-0.331952,-0.034957,-20.746292,-39.382935,21.205933,,,,,,
1478385038.38,-2.519406,1.429993,-0.455834,0.240061,-1.177566,0.533034,-0.081791,-0.990104,0.114040,0.657093,0.144233,0.218235,-23.816742,-38.257599,21.546875,,,,,,
1478385038.40,-2.532411,1.423601,-0.465982,0.259235,-0.689822,0.176488,-0.083921,-0.989186,0.120282,-0.200808,0.143285,0.545810,-23.064163,-37.582291,21.852356,,,,,,
1478385038.42,-2.517297,1.416808,-0.478668,0.154727,0.425242,0.382374,-0.089655,-0.988167,0.124449,-0.424948,-0.396782,0.058321,-22.914825,-37.506607,22.528564,,,,,,
1478385038.44,-2.474575,1.411020,-0.515283,0.049966,0.185209,0.331315,-0.098425,-0.987263,0.124998,0.051596,-0.181240,-0.104734,-22.914825,-37.506607,22.528564,,,,,,
1478385038.46,-2.460431,1.407441,-0.533358,0.042120,-0.405237,0.216425,-0.102407,-0.986687,0.126337,0.074178,0.045922,-0.119333,-23.215408,-37.731918,22.226257,,,,,,
1478385038.48,-2.450471,1.403862,-0.553385,0.045520,-0.468185,0.216257,-0.105911,-0.986099,0.128031,-0.094605,0.155426,0.020650,-24.489456,-37.356400,22.737427,,,,,,
1478385038.50,-2.453396,1.399918,-0.555634,0.193301,-0.099665,0.111754,-0.108005,-0.985436,0.131344,-0.191525,0.189049,0.025471,-24.038696,-37.281708,22.441650,,,,,,
1478385038.52,-2.456613,1.395055,-0.550123,0.216983,0.165394,0.139235,-0.110612,-0.984597,0.135400,-0.104857,-0.190741,-0.100183,-23.588135,-37.131622,22.520691,,,,,,
1478385038.54,-2.448168,1.389420,-0.559226,0.139638,-0.210594,0.311151,-0.115297,-0.983596,0.138726,0.190874,-0.237320,-0.117166,-23.588135,-37.131622,22.520691,,,,,,
1478385038.56,-2.444562,1.383047,-0.573337,0.183483,-0.625349,0.237434,-0.119818,-0.982427,0.143113,0.201941,0.143987,-0.052491,-24.188461,-37.056168,22.964478,,,,,,
1478385038.58,-2.457757,1.377619,-0.569632,0.253744,-0.331807,0.133658,-0.121286,-0.981399,0.148813,-0.093207,-0.043854,0.023047,-25.013672,-36.905594,23.555786,,,,,,
1478385038.60,-2.461168,1.371523,-0.568148,0.237802,0.022303,0.213668,-0.124539,-0.980211,0.153873,-0.140002,-0.089034,0.019177,-24.037674,-36.530136,24.014465,,,,,,
1478385038.62,-2.451273,1.366505,-0.577304,0.060088,-0.021771,0.242085,-0.129186,-0.979205,0.156424,-0.002924,-0.085019,0.063928,-24.112656,-36.454910,24.238525,,,,,,
1478385038.64,-2.438736,1.363527,-0.593918,-0.046870,-0.256873,0.157915,-0.133022,-0.978597,0.157016,-0.002766,0.164021,0.171856,-24.112656,-36.454910,24.238525,,,,,,
1478385038.66,-2.432443,1.364529,-0.603293,-0.150255,0.014062,0.002491,-0.133369,-0.978802,0.155432,-0.188042,0.056164,0.309656,-24.485733,-35.929611,24.533203,,,,,,
1478385038.68,-2.415060,1.368274,-0.615809,-0.245304,0.396312,-0.038292,-0.133614,-0.979562,0.150349,-0.096595,0.110590,0.342052,-25.087646,-36.304459,24.678284,,,,,,
1478385038.70,-2.391278,1.373513,-0.631353,-0.316687,0.378446,-0.082270,-0.133651,-0.980603,0.143374,0.089675,0.136303,0.183805,-24.711304,-36.230133,24.006775,,,,,,
1478385038.72,-2.369793,1.379900,-0.648832,-0.375456,0.094085,-0.106660,-0.132329,-0.981835,0.135977,0.100514,-0.029289,0.011468,-25.235962,-36.380814,23.327026,,,,,,
1478385038.74,-2.345040,1.387339,-0.675506,-0.470499,-0.137202,-0.054040,-0.130428,-0.983219,0.127550,0.061702,-0.101040,0.008650,-25.235962,-36.380814,23.327026,,,,,,
1478385038.76,-2.315150,1.393890,-0.709376,-0.444706,-0.206457,-0.053118,-0.129441,-0.984393,0.119229,0.103120,0.117541,-0.032986,-25.764679,-37.205826,23.324219,,,,,,
1478385038.78,-2.292348,1.400520,-0.735967,-0.353582,-0.077553,-0.099615,-0.127223,-0.985538,0.111933,-0.017262,0.160327,0.038183,-24.713242,-37.056335,22.809204,,,,,,
1478385038.80,-2.271837,1.406691,-0.755145,-0.312884,0.161064,-0.146967,-0.124842,-0.986565,0.105376,-0.131078,0.101921,-0.055601,-24.863449,-37.206635,22.508179,,,,,,
1478385038.82,-2.250580,1.412882,-0.771662,-0.290948,0.292341,-0.151910,-0.122302,-0.987557,0.098857,-0.206541,0.014855,-0.147822,-24.567398,-38.181931,22.214050,,,,,,
1478385038.84,-2.227746,1.418144,-0.788342,-0.238723,0.306985,-0.103700,-0.120410,-0.988371,0.092864,-0.048520,-0.063600,-0.173644,-24.567398,-38.181931,22.214050,,,,,,
1478385038.86,-2.210669,1.421396,-0.801599,-0.132624,0.134026,-0.054843,-0.119400,-0.988860,0.088875,0.147247,-0.041535,-0.168465,-25.392746,-38.332169,21.981323,,,,,,
1478385038.88,-2.204542,1.422782,-0.806516,-0.039550,0.028057,-0.021852,-0.118838,-0.989066,0.087330,0.143450,-0.084665,-0.136555,-25.168762,-38.707611,21.534729,,,,,,
1478385038.90,-2.207609,1.422875,-0.802715,0.047605,0.082655,-0.034371,-0.118495,-0.989079,0.087639,0.009578,-0.032725,-0.052849,-25.094437,-38.932831,21.311096,,,,,,
1478385038.92,-2.216771,1.422680,-0.787576,0.119905,0.436783,-0.069597,-0.117841,-0.989051,0.088837,-0.080340,0.033805,-0.047684,-26.072327,-39.457458,21.677856,,,,,,
1478385038.94,-2.229271,1.421797,-0.763030,0.202362,0.632379,-0.068916,-0.117412,-0.988920,0.090837,-0.030995,0.032057,-0.073931,-26.072327,-39.457458,21.677856,,,,,,
1478385038.96,-2.245322,1.419585,-0.735736,0.240230,0.460398,-0.013781,-0.117647,-0.988589,0.094076,0.084093,-0.018201,-0.090643,-25.397476,-39.607834,21.310059,,,,,,
1478385038.98,-2.259713,1.415618,-0.716273,0.236267,0.096852,0.104876,-0.119308,-0.987984,0.098252,0.113174,-0.061073,-0.103348,-25.622223,-39.607986,21.157837,,,,,,
1478385039.00,-2.268038,1.410179,-0.708870,0.196602,-0.108080,0.202538,-0.122603,-0.987129,0.102690,0.070571,-0.056817,-0.058623,-25.922806,-39.758057,21.080261,,,,,,
1478385039.02,-2.270021,1.404550,-0.708836,0.200692,-0.048126,0.217668,-0.126650,-0.986213,0.106508,0.071612,0.075797,0.194853,-26.225952,-40.282547,21.603882,,,,,,
1478385039.04,-2.279337,1.400242,-0.697916,0.228517,0.143745,0.013107,-0.128877,-0.985491,0.110447,0.066163,0.385531,0.223828,-26.225952,-40.282547,21.603882,,,,,,
1478385039.06,-2.304401,1.397380,-0.663332,0.358709,0.663312,-0.126269,-0.128163,-0.985001,0.115530,-0.169536,0.315903,0.176737,-26.304657,-41.182755,21.380737,,,,,,
1478385039.08,-2.324517,1.393831,-0.625235,0.341004,0.898822,-0.058341,-0.128361,-0.984383,0.120476,-0.178768,-0.065010,-0.114632,-26.454208,-41.258286,20.854492,,,,,,
,,,,,,,,,,,,,,,,37.354396,-122.033312,39.811584,0.000000,345.234375,1478385039.00
1478385039.10,-2.328484,1.390161,-0.608912,0.173624,0.363467,0.110842,-0.130506,-0.983730,0.123467,-0.018160,-0.212529,-0.090889,-26.754318,-41.483887,20.252136,,,,,,
1478385039.12,-2.332291,1.386037,-0.606790,0.140725,-0.355444,0.058592,-0.132970,-0.982981,0.126760,0.040731,0.190851,-0.049764,-27.506561,-42.084198,19.946411,,,,,,
1478385039.14,-2.357533,1.386865,-0.589157,0.064181,-0.208637,-0.223201,-0.129154,-0.983132,0.129500,-0.297101,0.287606,0.504152,-27.506561,-42.084198,19.946411,,,,,,
1478385039.16,-2.376406,1.390246,-0.561483,0.048090,0.754581,-0.339174,-0.124384,-0.983745,0.129516,-0.312979,0.316234,0.550751,-27.433258,-42.835312,18.824402,,,,,,
1478385039.18,-2.382286,1.396599,-0.530744,-0.109759,1.420793,-0.440185,-0.119315,-0.984866,0.125710,-0.014169,0.022525,0.179344,-27.063568,-44.261063,18.082397,,,,,,
1478385039.20,-2.369052,1.405928,-0.516543,-0.353783,1.149680,-0.369771,-0.114551,-0.986440,0.117535,0.024905,-0.499278,-0.244030,-28.117386,-45.462112,17.025452,,,,,,
1478385039.22,-2.341321,1.414332,-0.534814,-0.389228,0.061286,-0.086489,-0.111813,-0.987784,0.108535,0.405957,-0.165414,-0.360672,-28.127533,-48.389130,15.009155,,,,,,
1478385039.24,-2.330542,1.418728,-0.554637,-0.181583,-0.555453,-0.057909,-0.109827,-0.988460,0.104332,0.214548,0.049266,-0.236733,-28.127533,-48.389130,15.009155,,,,,,
1478385039.26,-2.334099,1.419984,-0.557305,0.003547,-0.138101,-0.016907,-0.108558,-0.988649,0.103864,-0.144249,-0.201124,-0.220029,-27.325195,-54.166367,12.784424,,,,,,
1478385039.28,-2.346014,1.420825,-0.546344,-0.038028,-0.221697,-0.212730,-0.106719,-0.988775,0.104568,-0.319230,0.147940,-0.328735,-40.942490,-76.204285,24.864441,,,,,,
1478385039.30,-2.352953,1.417982,-0.552008,0.305820,0.786544,0.379342,-0.107984,-0.988347,0.107287,0.613966,-0.853221,0.998258,-62.608963,-36.214981,39.152771,,,,,,
1478385039.32,-2.350615,1.416827,-0.547009,0.004359,-0.106179,-0.114044,-0.109046,-0.988170,0.107836,-0.176186,0.150981,0.018598,-65.367233,-32.690552,38.589600,,,,,,
1478385039.34,-2.365205,1.420422,-0.525192,0.002263,0.766289,-0.327469,-0.104972,-0.988715,0.106881,-0.112145,0.023734,0.325126,-65.367233,-32.690552,38.589600,,,,,,
1478385039.36,-2.373618,1.426633,-0.500711,-0.158211,0.651592,-0.320585,-0.099801,-0.989626,0.103340,-0.082145,-0.171781,0.038719,-68.466522,-37.488770,40.373047,,,,,,
1478385039.38,-2.383052,1.436238,-0.481071,-0.301622,0.439659,-0.508391,-0.092279,-0.990961,0.097374,-0.128134,-0.064597,0.112114,-68.103134,-40.038681,40.459351,,,,,,
1478385039.40,-2.394854,1.449052,-0.458003,-0.418579,0.683200,-0.541046,-0.082491,-0.992598,0.089129,-0.163115,0.038634,0.206053,-66.535370,-42.441055,38.082275,,,,,,
1478385039.42,-2.370843,1.460747,-0.463854,-0.452016,0.962230,-0.219810,-0.076514,-0.993951,0.078789,0.341589,0.244134,0.174782,-62.734436,-49.120056,34.090210,,,,,,
1478385039.44,-2.326638,1.469458,-0.499397,-0.433071,0.049946,-0.218012,-0.073617,-0.994870,0.069389,0.456384,0.174618,-0.077232,-62.734436,-49.120056,34.090210,,,,,,
1478385039.46,-2.284451,1.476238,-0.547330,-0.372983,-0.315565,-0.015913,-0.071377,-0.995533,0.061805,0.002804,0.047107,-0.078544,-57.900406,-59.398575,30.569458,,,,,,
1478385039.48,-2.244747,1.480485,-0.591944,-0.246743,-0.178069,-0.068736,-0.070470,-0.995925,0.056284,-0.204936,0.141982,-0.176783,-50.915039,-57.299179,29.958008,,,,,,
1478385039.50,-2.215554,1.483674,-0.622166,-0.185459,0.013032,0.008822,-0.069544,-0.996207,0.052295,-0.100744,0.016700,-0.253741,-45.844498,-47.023712,30.427856,,,,,,
1478385039.52,-2.192739,1.484677,-0.645680,-0.057351,-0.076242,-0.000816,-0.069907,-0.996294,0.050112,-0.013284,-0.029799,-0.168124,-42.225983,-43.199600,29.552551,,,,,,
1478385039.54,-2.200343,1.484491,-0.640079,0.046105,-0.113166,0.002468,-0.069673,-0.996278,0.050751,0.076143,-0.020079,-0.057496,-42.225983,-43.199600,29.552551,,,,,,
1478385039.56,-2.210822,1.483139,-0.631243,0.076967,-0.077170,0.058178,-0.070218,-0.996161,0.052283,0.064130,-0.163401,-0.083777,-40.193802,-40.947617,31.516174,,,,,,
1478385039.58,-2.216311,1.481605,-0.630118,0.011695,-0.313176,0.063826,-0.071151,-0.996025,0.053587,0.081161,-0.151817,-0.032332,-40.442459,-46.348053,31.079834,,,,,,
1478385039.60,-2.204448,1.482312,-0.650407,-0.113639,-0.460701,-0.008382,-0.071214,-0.996088,0.052323,-0.037490,0.097208,0.144928,-38.655212,-49.724686,29.457825,,,,,,
1478385039.62,-2.194946,1.483784,-0.666367,-0.099476,-0.238925,-0.028047,-0.070518,-0.996217,0.050786,-0.110726,0.077409,0.206843,-37.604126,-49.875870,28.268860,,,,,,
1478385039.64,-2.179551,1.486082,-0.687535,-0.133245,-0.339414,-0.032656,-0.069413,-0.996414,0.048386,-0.042952,0.140945,0.238296,-37.604126,-49.875870,28.268860,,,,,,
1478385039.66,-2.185739,1.487407,-0.686396,0.017288,-0.139984,-0.089541,-0.068034,-0.996525,0.048053,0.011500,0.143528,0.002332,-35.950775,-50.028549,25.585815,,,,,,
1478385039.68,-2.200541,1.490302,-0.677403,-0.083974,-0.480494,-0.155827,-0.064984,-0.996762,0.047355,0.021252,-0.319080,-0.402519,-33.687988,-47.930786,23.352173,,,,,,
1478385039.70,-2.215409,1.492721,-0.674914,-0.023834,-0.584778,-0.060920,-0.062345,-0.996954,0.046867,-0.073809,-0.058817,-0.189491,-28.121078,-45.309189,19.949951,,,,,,
1478385039.72,-2.246831,1.492185,-0.649236,0.170731,-0.133574,-0.047587,-0.061259,-0.996912,0.049137,-0.075292,0.121347,-0.084736,-26.538559,-43.809708,19.436218,,,,,,
1478385039.74,-2.306488,1.490405,-0.591605,0.253873,-0.165698,-0.082789,-0.059535,-0.996770,0.053892,0.007091,-0.013819,-0.124113,-26.538559,-43.809708,19.436218,,,,,,
1478385039.76,-2.374748,1.487344,-0.527694,0.315886,-0.232619,-0.076455,-0.057838,-0.996520,0.060025,0.019157,0.024672,-0.099423,-25.932037,-42.309555,19.587830,,,,,,
1478385039.78,-2.443135,1.483659,-0.463593,0.319029,-0.213321,-0.069986,-0.055961,-0.996206,0.066648,0.010994,0.030584,-0.033216,-25.325851,-40.959625,19.514832,,,,,,
1478385039.80,-2.505140,1.478910,-0.403768,0.374940,-0.047794,-0.076912,-0.054535,-0.995781,0.073792,-0.038665,0.052346,0.041794,-24.197830,-40.284622,19.524109,,,,,,
1478385039.82,-2.567423,1.473537,-0.341090,0.391816,-0.001997,-0.089578,-0.052742,-0.995274,0.081534,0.007255,-0.023983,-0.029365,-23.744904,-39.534317,19.826355,,,,,,
1478385039.84,-2.620744,1.467618,-0.289908,0.386102,-0.189286,-0.044161,-0.051252,-0.994682,0.089338,0.051756,0.028282,-0.011610,-23.744904,-39.534317,19.826355,,,,,,
1478385039.86,-2.662312,1.461856,-0.253297,0.306607,-0.300247,-0.017894,-0.050138,-0.994072,0.096475,0.065641,-0.026772,0.040030,-24.193558,-39.234314,19.820984,,,,,,
1478385039.88,-2.685841,1.456478,-0.237387,0.273053,-0.428577,0.058621,-0.050206,-0.993473,0.102427,0.064122,-0.033291,0.088583,-23.593903,-39.234085,20.052002,,,,,,
1478385039.90,-2.716065,1.452338,-0.216542,0.217642,-0.484755,-0.070909,-0.048785,-0.992992,0.107642,0.005130,0.015957,0.061196,-23.742203,-38.859085,20.049377,,,,,,
1478385039.92,-2.749342,1.449586,-0.191816,0.169405,-0.395373,-0.077157,-0.046222,-0.992663,0.111731,-0.140943,-0.039670,0.025964,-22.695007,-39.158112,21.035767,,,,,,
1478385039.94,-2.780645,1.446734,-0.165660,0.199534,-0.180208,-0.119250,-0.043702,-0.992314,0.115771,-0.098953,0.019124,0.043607,-22.695007,-39.158112,21.035767,,,,,,
1478385039.96,-2.814269,1.444071,-0.134463,0.201427,-0.131226,-0.136212,-0.040634,-0.991981,0.119676,-0.045562,0.044548,0.021300,-23.444443,-39.008041,21.102844,,,,,,
1478385039.98,-2.847453,1.441190,-0.104487,0.188898,-0.217916,-0.153567,-0.037470,-0.991613,0.123693,0.025110,0.037511,0.023463,-22.544571,-39.007950,21.186829,,,,,,
1478385040.00,-2.885932,1.439167,-0.070835,0.126131,-0.264562,-0.197610,-0.033191,-0.991349,0.126984,-0.035885,0.040956,0.061371,-22.619568,-38.932724,21.410828,,,,,,
1478385040.02,-2.923996,1.438428,-0.036842,0.060844,-0.179665,-0.216721,-0.028493,-0.991252,0.128870,-0.067104,0.018932,0.146154,-22.395706,-39.082428,21.713501,,,,,,
1478385040.04,-2.964413,1.439439,0.001364,-0.036463,-0.098665,-0.283978,-0.023086,-0.991385,0.128929,-0.080750,0.035224,0.161614,-22.395706,-39.082428,21.713501,,,,,,
1478385040.06,-3.012297,1.442677,0.048677,-0.164672,-0.014579,-0.351281,-0.016474,-0.991804,0.126703,-0.110571,-0.032931,0.172171,-21.720490,-39.007355,21.795044,,,,,,
1478385040.08,-3.070175,1.449308,0.108134,-0.349440,0.095870,-0.427156,-0.008648,-0.992629,0.120881,-0.102573,-0.030076,0.178069,-21.346863,-39.382568,21.574951,,,,,,
,,,,,,,,,,,,,,,,37.354396,-122.033312,39.745239,0.000000,345.234375,1478385040.00
1478385040.10,-3.138451,1.458352,0.181926,-0.494098,0.344745,-0.451297,-0.000352,-0.993685,0.112207,-0.080046,-0.009855,0.206564,-21.046524,-39.307571,21.577698,,,,,,
1478385040.12,3.076769,1.468462,0.257328,-0.540622,0.284945,-0.351111,0.006617,-0.994768,0.101941,0.066548,-0.005994,0.182193,-21.348328,-39.832947,21.201294,,,,,,
1478385040.14,2.990126,1.479908,0.344620,-0.644639,-0.167012,-0.366424,0.013695,-0.995873,0.089724,0.168892,0.063042,0.039564,-21.348328,-39.832947,21.201294,,,,,,
1478385040.16,2.873439,1.491366,0.455038,-0.666296,-0.370496,-0.331764,0.021023,-0.996847,0.076511,0.016590,-0.014353,0.036556,-20.373459,-40.284210,19.937317,,,,,,
1478385040.18,2.728984,1.500742,0.593849,-0.576204,-0.230375,-0.332290,0.028069,-0.997547,0.064122,-0.115029,-0.039822,0.021434,-19.774582,-40.734787,19.344666,,,,,,
1478385040.20,2.566830,1.506190,0.755475,-0.453625,0.063229,-0.357980,0.035098,-0.997914,0.054188,-0.117907,0.019627,-0.036625,-19.551392,-41.184937,19.198242,,,,,,
1478385040.22,2.420549,1.507446,0.905855,-0.264620,0.262682,-0.335734,0.041794,-0.997994,0.047552,-0.098465,0.013466,-0.060018,-19.928864,-41.785095,19.046326,,,,,,
1478385040.24,2.349837,1.504797,0.982551,0.070045,0.271886,-0.205847,0.046931,-0.997823,0.046338,-0.035548,-0.005855,-0.080670,-19.928864,-41.785095,19.046326,,,,,,
1478385040.26,2.422985,1.498129,0.913068,0.632231,0.146755,0.041592,0.047798,-0.997361,0.054650,-0.033439,0.084519,0.009070,-19.479324,-42.010468,18.676453,,,,,,
1478385040.28,2.587426,1.485689,0.750369,0.983139,0.081486,0.185192,0.044732,-0.996381,0.072283,-0.050851,0.110730,0.131819,-19.252411,-41.560394,18.752319,,,,,,
1478385040.30,2.747018,1.467662,0.588765,1.218487,-0.163714,0.309932,0.039576,-0.994686,0.095041,0.010107,0.081616,0.134391,-19.702744,-41.334503,19.647217,,,,,,
1478385040.32,2.877459,1.446189,0.448856,1.286189,-0.603480,0.457351,0.032448,-0.992247,0.119975,0.084557,0.084303,0.025594,-19.550262,-40.508667,20.471252,,,,,,
1478385040.34,2.970218,1.424667,0.341056,1.179035,-0.719715,0.497445,0.024832,-0.989342,0.143477,0.066263,0.072991,0.012971,-19.550262,-40.508667,20.471252,,,,,,
1478385040.36,3.039226,1.403174,0.258488,1.098464,-0.533829,0.450805,0.017049,-0.985984,0.165965,-0.091756,0.091606,0.052296,-19.249023,-39.832474,21.672302,,,,,,
1478385040.38,3.084851,1.385030,0.204636,0.836580,-0.289056,0.387986,0.010475,-0.982795,0.184402,-0.040306,0.067085,0.017929,-19.470627,-38.405457,23.690735,,,,,,
1478385040.40,3.115863,1.373593,0.168177,0.421842,-0.233196,0.280576,0.005041,-0.980618,0.195863,0.047312,0.056760,-0.053346,-20.370148,-37.954407,24.730408,,,,,,
1478385040.42,3.134802,1.370615,0.142357,0.011025,-0.370774,0.236746,0.001350,-0.980031,0.198842,0.109886,-0.028713,-0.145650,-19.768356,-37.504257,24.885071,,,,,,
1478385040.44,-3.135528,1.373272,0.120687,-0.194457,-0.424282,0.198847,-0.001190,-0.980555,0.196239,0.108749,-0.084478,-0.173000,-19.768356,-37.504257,24.885071,,,,,,
1478385040.46,-3.124453,1.379129,0.100896,-0.361738,-0.421899,0.182536,-0.003265,-0.981688,0.190468,0.086501,-0.084398,-0.255272,-19.769836,-37.728958,25.185730,,,,,,
1478385040.48,-3.119382,1.386578,0.088550,-0.341046,-0.292058,0.057924,-0.004068,-0.983080,0.183133,0.116480,-0.047194,-0.203259,-19.918686,-37.504028,25.108582,,,,,,
1478385040.50,-3.119889,1.390341,0.083460,-0.101378,-0.286916,0.056218,-0.003895,-0.983762,0.179435,0.125111,-0.046847,-0.208641,-19.395386,-37.879028,25.114929,,,,,,
1478385040.52,-3.115734,1.391489,0.074266,-0.082515,-0.177665,0.084330,-0.004611,-0.983967,0.178288,0.052997,0.011037,-0.070470,-19.694595,-37.729111,25.036499,,,,,,
1478385040.54,-3.107342,1.393284,0.064374,-0.072285,-0.039774,0.100754,-0.006047,-0.984286,0.176478,-0.048473,-0.053418,-0.036173,-19.694595,-37.729111,25.036499,,,,,,
1478385040.56,-3.094226,1.395038,0.047891,-0.114161,-0.242074,0.151409,-0.008279,-0.984594,0.174658,-0.069174,-0.034159,-0.039771,-19.620270,-37.879105,25.037720,,,,,,
1478385040.58,-3.081147,1.396807,0.027806,-0.087052,-0.376100,0.178866,-0.010458,-0.984902,0.172796,0.094793,-0.071220,-0.043127,-19.468933,-37.579102,25.038330,,,,,,
1478385040.60,-3.070479,1.397950,0.005732,-0.055120,-0.679694,0.213344,-0.012220,-0.985099,0.171552,0.072065,-0.118935,-0.103940,-19.694366,-37.729263,24.886475,,,,,,
1478385040.62,-3.056074,1.398323,-0.022508,-0.023383,-0.601418,0.234983,-0.014659,-0.985163,0.170993,0.006144,-0.028417,-0.009158,-19.469498,-37.729172,24.963745,,,,,,
1478385040.64,-3.038442,1.397804,-0.049986,0.009077,-0.424061,0.243007,-0.017724,-0.985074,0.171216,-0.040916,0.072126,0.043231,-19.469498,-37.729172,24.963745,,,,,,
1478385040.66,-3.020759,1.397572,-0.076136,-0.026239,-0.390454,0.208848,-0.020776,-0.985034,0.171103,-0.056174,0.066226,0.066446,-19.244492,-37.503494,25.640259,,,,,,
1478385040.68,-3.007399,1.398502,-0.097406,-0.098843,-0.365779,0.153232,-0.022938,-0.985194,0.169902,-0.082592,0.044215,0.075749,-19.995163,-37.653503,25.633240,,,,,,
1478385040.70,-2.995176,1.400493,-0.115253,-0.134552,-0.203937,0.134383,-0.024726,-0.985533,0.167668,-0.058205,0.052153,0.101314,-19.167816,-37.128494,25.639893,,,,,,
1478385040.72,-2.981081,1.403437,-0.133736,-0.185637,-0.223452,0.124625,-0.026623,-0.986028,0.164438,-0.022815,0.009893,0.012427,-19.019043,-37.428574,25.567261,,,,,,
1478385040.74,-2.968308,1.406826,-0.149673,-0.169078,-0.090419,0.089762,-0.028145,-0.986587,0.160792,-0.049553,0.010589,0.043386,-19.019043,-37.428574,25.567261,,,,,,
1478385040.76,-2.955716,1.409450,-0.162989,-0.133096,-0.021009,0.082537,-0.029689,-0.987012,0.157880,-0.024190,0.058484,0.020495,-19.094833,-37.503281,25.866760,,,,,,
1478385040.78,-2.944831,1.411295,-0.176160,-0.117706,-0.167137,0.083230,-0.031050,-0.987307,0.155762,0.026289,0.060335,-0.031921,-19.620499,-37.728500,25.637207,,,,,,
1478385040.80,-2.936156,1.413077,-0.189938,-0.096081,-0.259744,0.095834,-0.032041,-0.987588,0.153764,-0.028476,0.015145,-0.032182,-19.470505,-37.728500,25.638672,,,,,,
1478385040.82,-2.926546,1.415448,-0.203341,-0.129467,-0.164235,0.061849,-0.033017,-0.987958,0.151161,-0.045871,0.017773,-0.059394,-19.094727,-37.653809,25.342285,,,,,,
1478385040.84,-2.920938,1.416004,-0.210996,-0.019132,-0.034966,0.039960,-0.033744,-0.988043,0.150437,-0.052865,0.077887,0.003387,-19.094727,-37.653809,25.342285,,,,,,
1478385040.86,-2.916125,1.415310,-0.216455,0.041676,-0.051556,0.061388,-0.034621,-0.987936,0.150941,-0.007737,0.047018,0.025938,-19.921173,-37.878510,25.634644,,,,,,
1478385040.88,-2.913922,1.415785,-0.222543,-0.041753,-0.291292,0.028531,-0.034847,-0.988010,0.150407,0.013760,-0.056683,-0.044465,-18.868362,-37.353806,25.343628,,,,,,
1478385040.90,-2.919250,1.416307,-0.221776,-0.015741,-0.135206,-0.044716,-0.033932,-0.988090,0.150088,-0.016819,-0.015969,0.031705,-18.719162,-37.428497,25.645325,,,,,,
1478385040.92,-2.922714,1.416382,-0.218124,0.014583,0.066182,0.010381,-0.033396,-0.988102,0.150132,-0.083792,-0.035565,-0.019837,-18.944824,-37.503281,25.868225,,,,,,
1478385040.94,-2.871778,1.425300,-0.266689,0.071053,0.056908,0.020089,-0.038646,-0.989434,0.139738,0.036189,-0.075752,-0.085951,-18.944824,-37.503281,25.868225,,,,,,
1478385040.96,-2.874328,1.423583,-0.265683,0.077960,-0.107546,0.007896,-0.038738,-0.989184,0.141474,0.029689,-0.004759,-0.068003,-19.544815,-37.503281,25.862244,,,,,,
1478385040.98,-2.861696,1.421457,-0.279105,0.052057,-0.008076,0.027365,-0.041103,-0.988870,0.142995,-0.090260,-0.015327,0.058207,-18.569153,-37.353271,25.871521,,,,,,
1478385041.00,-2.862121,1.421750,-0.280131,-0.057373,-0.115635,-0.009448,-0.040962,-0.988913,0.142734,-0.075310,-0.028589,0.136685,-18.642929,-37.128418,25.720154,,,,,,
1478385041.02,-2.863166,1.424955,-0.282204,-0.212829,-0.152858,-0.039736,-0.039942,-0.989384,0.139728,0.045862,0.021214,0.155240,-18.792816,-37.053268,25.868408,,,,,,
1478385041.04,-2.857086,1.431644,-0.288175,-0.410930,0.152400,-0.061678,-0.038932,-0.990334,0.133128,-0.005288,0.059487,0.167043,-18.792816,-37.053268,25.868408,,,,,,
1478385041.06,-2.846238,1.440602,-0.292319,-0.383145,0.428255,-0.114292,-0.037790,-0.991537,0.124205,-0.081442,0.007299,0.103868,-19.020187,-37.728729,25.418213,,,,,,
1478385041.08,-2.833163,1.447973,-0.293133,-0.341373,0.695415,-0.095321,-0.037191,-0.992467,0.116733,-0.027705,0.040318,-0.032093,-19.020187,-37.803955,25.193481,,,,,,
,,,,,,,,,,,,,,,,37.354396,-122.033312,39.682495,0.000000,345.234375,1478385041.00
1478385041.10,-2.814860,1.453472,-0.298135,-0.205655,0.595350,-0.028050,-0.037569,-0.993125,0.110863,0.046557,0.005561,-0.146981,-18.795166,-38.029617,24.521362,,,,,,
1478385041.12,-2.799918,1.455326,-0.305019,-0.045850,0.287092,0.022664,-0.038604,-0.993341,0.108554,0.119766,0.033258,-0.188357,-19.621628,-38.479996,24.139465,,,,,,
1478385041.14,-2.792075,1.454491,-0.308668,0.086456,0.227981,0.035553,-0.039738,-0.993244,0.109027,0.092931,0.064991,-0.067981,-19.621628,-38.479996,24.139465,,,,,,
1478385041.16,-2.789343,1.450627,-0.303352,0.249612,0.508287,0.045155,-0.041360,-0.992788,0.112519,-0.053611,0.109594,0.059630,-19.695831,-38.405304,23.838501,,,,,,
1478385041.18,-2.785871,1.444549,-0.295254,0.313399,0.557857,0.065703,-0.043851,-0.992041,0.118030,-0.063037,0.021506,-0.034274,-19.694138,-38.030304,23.837402,,,,,,
1478385041.20,-2.784566,1.438140,-0.289398,0.319820,0.232710,0.090462,-0.046226,-0.991214,0.123927,0.032921,-0.000897,-0.123393,-20.368027,-37.880615,23.530212,,,,,,
1478385041.22,-2.781762,1.431139,-0.289206,0.340433,0.139428,0.136183,-0.049016,-0.990264,0.130289,0.041921,0.048064,-0.046976,-20.893127,-37.730087,24.049500,,,,,,
1478385041.24,-2.777285,1.422944,-0.289913,0.406252,0.218873,0.155748,-0.052488,-0.989090,0.137646,0.034071,0.003296,-0.000531,-20.893127,-37.730087,24.049500,,,,,,
1478385041.26,-2.773250,1.413613,-0.289896,0.451177,0.175621,0.183486,-0.056364,-0.987672,0.146037,0.038038,-0.038680,-0.112178,-20.366898,-37.505234,23.904114,,,,,,
1478385041.28,-2.767679,1.402225,-0.293714,0.544354,0.056253,0.255972,-0.061281,-0.985825,0.156182,0.070193,0.004655,-0.167275,-20.889862,-36.829575,24.571838,,,,,,
1478385041.30,-2.764305,1.389029,-0.298116,0.622721,-0.109429,0.297321,-0.066595,-0.983526,0.168054,0.060049,0.047521,-0.197595,-21.490738,-36.828979,25.165833,,,,,,
1478385041.32,-2.760559,1.376288,-0.304528,0.532086,-0.099519,0.261933,-0.071879,-0.981143,0.179422,0.015070,0.019900,-0.047571,-21.790070,-36.603760,25.387146,,,,,,
1478385041.34,-2.762048,1.364397,-0.302699,0.603664,0.123789,0.173993,-0.075929,-0.978775,0.190353,-0.057921,0.090302,0.127686,-21.790070,-36.603760,25.387146,,,,,,
1478385041.36,-2.765748,1.350951,-0.290281,0.701044,0.610982,0.103918,-0.080048,-0.975931,0.202856,-0.155457,0.140070,0.074671,-21.112701,-35.928299,25.841858,,,,,,
1478385041.38,-2.757489,1.339079,-0.284044,0.513361,0.715995,0.198970,-0.086056,-0.973273,0.212916,-0.142246,-0.026116,0.046865,-21.708633,-34.877853,26.282776,,,,,,
1478385041.40,-2.742686,1.328930,-0.284633,0.455821,0.713466,0.183905,-0.093030,-0.970893,0.220710,-0.051669,0.060645,0.124383,-23.208282,-34.727646,26.492371,,,,,,
1478385041.42,-2.732740,1.318380,-0.278741,0.559652,0.858233,0.121447,-0.099288,-0.968312,0.229160,-0.003236,0.101384,0.207119,-23.057373,-34.577805,26.343384,,,,,,
1478385041.44,-2.724248,1.308036,-0.270302,0.445088,0.707311,0.118696,-0.105284,-0.965677,0.237452,0.088301,-0.090048,0.041036,-23.057373,-34.577805,26.343384,,,,,,
1478385041.46,-2.714410,1.300193,-0.271830,0.321903,0.305699,0.214603,-0.110750,-0.963610,0.243291,0.098848,-0.084959,0.028850,-23.506241,-34.277664,26.488037,,,,,,
1478385041.48,-2.703583,1.292898,-0.276548,0.297181,0.362964,0.192281,-0.116356,-0.961634,0.248438,0.057350,0.011271,0.141531,-24.104889,-34.052887,26.256287,,,,,,
1478385041.50,-2.688593,1.286538,-0.284437,0.215325,0.358535,0.293626,-0.122741,-0.959870,0.252159,0.064574,0.010300,0.109352,-25.152740,-33.452530,26.619019,,,,,,
1478385041.52,-2.666729,1.279410,-0.298440,0.265142,0.459634,0.344207,-0.131349,-0.957847,0.255494,0.157228,0.047797,0.091689,-24.701492,-33.227661,26.472900,,,,,,
1478385041.54,-2.646039,1.270868,-0.311832,0.312699,0.274794,0.399339,-0.140493,-0.955358,0.259910,0.143331,0.054341,-0.044227,-24.701492,-33.227661,26.472900,,,,,,
1478385041.56,-2.634456,1.261315,-0.324943,0.312101,-0.208904,0.374502,-0.147920,-0.952492,0.266231,0.057130,0.016350,-0.206432,-25.299805,-32.927902,26.240967,,,,,,
1478385041.58,-2.631982,1.251817,-0.334187,0.380721,-0.338672,0.388154,-0.152984,-0.949556,0.273750,-0.022232,0.013719,-0.103462,-25.673096,-32.552902,26.236145,,,,,,
1478385041.60,-2.625806,1.239531,-0.348122,0.457678,-0.352742,0.526076,-0.160415,-0.945631,0.282928,-0.031449,-0.065324,-0.169769,-26.047180,-32.102158,26.981079,,,,,,
1478385041.62,-2.624687,1.224787,-0.356991,0.603608,-0.371991,0.477130,-0.167603,-0.940734,0.294838,-0.037795,-0.079728,-0.105690,-26.344269,-31.276642,27.500610,,,,,,
1478385041.64,-2.627832,1.209873,-0.361907,0.647369,-0.418225,0.434342,-0.173552,-0.935571,0.307549,-0.091325,0.003290,-0.137734,-26.344269,-31.276642,27.500610,,,,,,
1478385041.66,-2.633661,1.192893,-0.364488,0.774042,-0.376892,0.460318,-0.179458,-0.929440,0.322391,-0.028901,-0.047214,-0.205295,-26.493683,-30.976120,28.023193,,,,,,
1478385041.68,-2.639403,1.173107,-0.364476,0.921834,-0.272378,0.498257,-0.186420,-0.921958,0.339471,0.089481,-0.024438,-0.119500,-26.943115,-30.525146,28.992371,,,,,,
1478385041.70,-2.647110,1.150880,-0.363640,1.013906,-0.403023,0.520495,-0.193477,-0.913123,0.358850,0.022304,0.054877,-0.121286,-26.636581,-28.724106,30.040039,,,,,,
1478385041.72,-2.658464,1.126799,-0.361350,1.150518,-0.477082,0.531213,-0.199549,-0.903042,0.380388,0.003489,0.037182,-0.105044,-26.559113,-27.973511,30.638550,,,,,,
1478385041.74,-2.673158,1.100519,-0.355536,1.250546,-0.485225,0.443754,-0.204585,-0.891443,0.404320,-0.000890,-0.031012,-0.093880,-26.559113,-27.973511,30.638550,,,,,,
1478385041.76,-2.691509,1.073858,-0.347141,1.304168,-0.598205,0.438195,-0.207400,-0.879046,0.429259,-0.018476,-0.087583,-0.090437,-26.479919,-26.772675,31.460754,,,,,,
1478385041.78,-2.708002,1.044992,-0.344825,1.343371,-0.769689,0.631175,-0.210868,-0.864921,0.455463,-0.009850,-0.100717,-0.141285,-26.927567,-25.796326,32.803345,,,,,,
1478385041.80,-2.720696,1.015392,-0.345194,1.343740,-0.566145,0.608231,-0.215438,-0.849688,0.481267,0.002883,-0.039686,-0.113774,-26.322266,-24.370590,33.555115,,,,,,
1478385041.82,-2.730880,0.985684,-0.345620,1.363961,-0.548701,0.632888,-0.220510,-0.833650,0.506363,0.016073,-0.026137,-0.108337,-25.866180,-22.418777,35.353882,,,,,,
1478385041.84,-2.739697,0.955586,-0.348836,1.326785,-0.555633,0.689430,-0.225752,-0.816652,0.531145,0.043730,-0.049788,-0.009935,-25.866180,-22.418777,35.353882,,,,,,
1478385041.86,-2.746967,0.925392,-0.352899,1.358783,-0.560669,0.704430,-0.231262,-0.798857,0.555289,0.063873,-0.100069,0.051874,-26.236206,-20.917587,36.545654,,,,,,
1478385041.88,-2.756166,0.896285,-0.358180,1.255890,-0.702071,0.691041,-0.234789,-0.781012,0.578700,0.049868,-0.139520,0.028844,-26.380920,-19.567078,37.065125,,,,,,
1478385041.90,-2.766073,0.866473,-0.361180,1.403262,-0.524277,0.610586,-0.237481,-0.762050,0.602397,0.077233,-0.301335,0.040227,-25.250397,-18.141464,37.672180,,,,,,
1478385041.92,-2.774868,0.835213,-0.361817,1.506417,-0.480406,0.588450,-0.240601,-0.741440,0.626401,0.108811,-0.459091,-0.194974,-25.315384,-15.440048,39.088379,,,,,,
1478385041.94,-2.785772,0.799044,-0.361372,1.855087,-0.544354,0.664738,-0.242943,-0.716690,0.653708,0.195641,-0.583969,-0.502203,-25.315384,-15.440048,39.088379,,,,,,
1478385041.96,-2.797189,0.751480,-0.361281,2.448022,-0.626722,0.909144,-0.246703,-0.682721,0.687771,0.401809,-0.783084,-1.054776,-25.385986,-14.164154,39.983826,,,,,,
1478385041.98,-2.812248,0.689633,-0.364894,3.191346,-1.012314,1.352782,-0.249514,-0.636254,0.730016,0.639788,-0.947517,-1.475027,-24.550842,-11.763702,40.434998,,,,,,
1478385042.00,-2.830101,0.606779,-0.375492,4.205153,-1.321429,1.868674,-0.251769,-0.570224,0.781957,0.797133,-0.823804,-1.587301,-24.390030,-8.987579,41.553284,,,,,,
1478385042.02,-2.855055,0.503675,-0.383431,5.081582,-1.600928,1.780751,-0.247534,-0.482648,0.840106,0.626166,-1.088962,-1.317721,-23.473602,-5.086838,42.300781,,,,,,
1478385042.04,-2.885217,0.401046,-0.389150,4.498789,-1.405449,1.443722,-0.233456,-0.390381,0.890562,0.196758,-2.101654,-0.711806,-23.473602,-5.086838,42.300781,,,,,,
1478385042.06,-2.904517,0.317799,-0.389362,3.961441,-0.894959,0.842670,-0.223101,-0.312477,0.923355,-0.201033,-2.189202,0.011948,-21.030945,4.814423,43.570496,,,,,,
1478385042.08,-2.918060,0.242802,-0.384877,3.387811,-0.562711,0.517785,-0.215173,-0.240424,0.946518,0.003229,-1.494852,0.244262,-19.587067,8.863983,43.122742,,,,,,
,,,,,,,,,,,,,,,,37.354396,-122.033312,39.642456,0.000000,345.234375,1478385042.00
1478385042.10,-2.930100,0.190474,-0.374926,1.984934,-0.278940,-0.211470,-0.206123,-0.189324,0.960036,0.171044,-1.534171,0.544725,-18.671539,12.088303,42.447266,,,,,,
1478385042.12,-2.937668,0.187402,-0.359896,-0.817259,-0.447102,-0.907008,-0.198969,-0.186307,0.962134,0.153238,-1.996677,0.318994,-18.132370,15.012634,41.768860,,,,,,
1478385042.14,-2.962132,0.241642,-0.356679,-3.641175,-1.554868,-0.392510,-0.173313,-0.239297,0.955353,-0.057049,-1.611945,0.605804,-18.132370,15.012634,41.768860,,,,,,
1478385042.16,-2.989703,0.342085,-0.371742,-5.909597,-1.568494,-0.021477,-0.142540,-0.335452,0.931211,-0.096779,-0.622571,0.862170,-17.470871,12.388779,42.908356,,,,,,
1478385042.18,-3.010942,0.481916,-0.390290,-7.591817,-1.305479,-0.257665,-0.115442,-0.463478,0.878556,-0.060767,-0.002037,0.981398,-15.843765,7.890533,44.663147,,,,,,
1478385042.19,-3.019782,0.643882,-0.406741,-8.501810,-0.590073,-0.293606,-0.097180,-0.600304,0.793846,0.110699,0.407983,0.992867,-14.299957,1.366760,45.898132,,,,,,
1478385042.21,-3.002547,0.825832,-0.432850,-9.393254,0.393013,-0.170653,-0.093962,-0.735112,0.671403,0.158766,0.820531,1.024306,-14.335083,-6.282776,46.370728,,,,,,
1478385042.23,-2.948294,1.007397,-0.472732,-8.805175,1.545080,-0.477371,-0.102592,-0.845444,0.524117,0.052925,1.502793,1.169456,-14.335083,-6.282776,46.370728,,,,,,
1478385042.25,-2.897348,1.164000,-0.490085,-7.024826,1.813191,-1.813338,-0.095682,-0.918393,0.383926,-0.396338,2.180448,1.044862,-14.220581,-14.834763,44.372528,,,,,,
1478385042.27,-2.879695,1.283252,-0.476020,-5.007731,1.223608,-1.327456,-0.073427,-0.958943,0.273928,-0.436384,1.743596,1.042570,-15.170959,-28.492157,36.979004,,,,,,
1478385042.29,-2.826946,1.358772,-0.531245,-3.054083,-0.771609,-0.039960,-0.065127,-0.977607,0.200108,-0.293928,1.688468,1.130840,-15.408798,-32.545746,33.388733,,,,,,
1478385042.31,-2.778594,1.388603,-0.595455,-0.755226,-0.354247,0.145751,-0.064336,-0.983449,0.169381,-0.068858,1.950368,1.652259,-15.265472,-34.722839,31.296753,,,,,,
1478385042.33,-2.713210,1.389907,-0.653320,-0.246229,0.614375,0.674965,-0.074733,-0.983684,0.163648,0.070521,1.960338,1.476565,-15.265472,-34.722839,31.296753,,,,,,
1478385042.35,-2.631822,1.391426,-0.732649,-0.209583,0.004581,0.356030,-0.087060,-0.983956,0.155727,-0.033377,2.343957,1.637242,-14.442841,-35.473511,30.632263,,,,,,
1478385042.37,-2.794683,1.285830,-0.507464,9.875255,6.403601,-0.057560,-0.095581,-0.959671,0.264378,-0.575089,2.293121,4.562603,-15.718384,-35.623596,30.544922,,,,,,
1478385042.39,-2.781623,1.157787,-0.436815,4.200248,0.896504,1.286067,-0.141380,-0.915917,0.375643,-1.180046,-5.127174,-3.395693,-19.147598,-29.769897,34.243042,,,,,,
1478385042.41,-2.837527,1.081213,-0.432937,2.494515,-3.129701,1.638493,-0.140796,-0.882529,0.448686,0.103672,-0.865335,-0.251253,-20.936066,-26.693359,35.790955,,,,,,
1478385042.43,-2.776727,1.046185,-0.554184,0.311294,-1.157535,4.116722,-0.178725,-0.865518,0.467905,0.060195,0.865198,1.197180,-20.936066,-26.693359,35.790955,,,,,,
1478385042.45,-2.744711,0.991919,-0.626818,2.365646,-1.525931,1.581780,-0.211472,-0.837078,0.504560,-0.091659,1.609142,1.596072,-18.450943,-23.615860,38.281555,,,,,,
1478385042.47,-2.781827,0.932844,-0.594157,3.340961,-0.034270,-0.430669,-0.209667,-0.803317,0.557424,0.193844,-0.204236,1.717890,-18.970200,-21.964752,39.396393,,,,,,
1478385042.49,-2.816376,0.885118,-0.531487,2.415694,1.103478,-1.195208,-0.202316,-0.773989,0.600007,-0.116654,-0.991742,1.464293,-19.175262,-16.712296,41.853607,,,,,,
1478385042.51,-2.832965,0.877253,-0.499650,0.262028,-0.962164,-0.500547,-0.194178,-0.768986,0.609062,-1.097570,-3.383847,-0.471778,-19.170639,-15.737427,41.700714,,,,,,
1478385042.53,-2.838735,0.866203,-0.501303,0.517877,0.810477,0.594565,-0.193183,-0.761875,0.618245,0.457633,-1.809658,-0.222218,-19.170639,-15.737427,41.700714,,,,,,
1478385042.55,-2.800270,0.849993,-0.514334,0.661331,1.164227,0.416293,-0.220921,-0.751276,0.621916,1.143208,-1.547034,-1.219221,-19.397202,-15.886841,42.298920,,,,,,
1478385042.57,-2.829647,0.828367,-0.497942,1.779081,-2.100599,-0.067260,-0.207496,-0.736828,0.643451,0.645759,-1.326984,-2.916492,-19.694839,-15.437073,42.069580,,,,,,
1478385042.59,-2.882221,0.766915,-0.487734,3.819638,-1.913171,0.692180,-0.184675,-0.693917,0.695970,0.227064,-0.679191,-2.755052,-20.365295,-13.935593,43.558380,,,,,,
1478385042.61,-2.889849,0.674142,-0.478038,4.887171,1.047939,0.796204,-0.194602,-0.624227,0.756618,0.065192,-0.232523,-2.275203,-18.549454,-10.034439,44.689850,,,,,,
1478385042.63,-2.857905,0.571256,-0.469911,5.131819,2.055866,1.303698,-0.235456,-0.540689,0.807599,0.344206,-0.927741,-2.125867,-18.549454,-10.034439,44.689850,,,,,,
1478385042.65,-2.822095,0.454928,-0.475319,5.457525,1.286539,2.277617,-0.282145,-0.439397,0.852833,0.756235,-1.381953,-1.182301,-19.351120,-4.859467,44.666321,,,,,,
1478385042.67,-2.819949,0.353364,-0.489090,3.867458,-1.239507,2.042465,-0.296594,-0.346056,0.890099,1.427591,-1.586836,-1.868600,-21.774521,6.088959,43.109192,,,,,,
1478385042.69,-2.873797,0.293999,-0.504038,1.962514,-3.836326,1.252060,-0.253253,-0.289782,0.922979,1.266467,-1.489668,-1.071874,-19.506882,9.988907,43.045227,,,,,,
1478385042.71,-2.976156,0.274101,-0.508275,0.269244,-5.657893,-0.184377,-0.158535,-0.270681,0.949525,-0.120655,-1.819620,0.140364,-14.999283,12.014923,44.059174,,,,,,
1478385042.73,-3.058949,0.292931,-0.490021,-1.593389,-2.384354,-1.238488,-0.079033,-0.288760,0.954134,-0.883980,-1.940503,1.121168,-14.999283,12.014923,44.059174,,,,,,
1478385042.75,-3.074175,0.356306,-0.467725,-3.932166,0.364683,-1.298031,-0.063136,-0.348814,0.935063,-0.908239,-1.089525,1.308147,-10.954422,11.266083,45.226868,,,,,,
1478385042.77,-3.075346,0.458528,-0.445232,-5.702926,0.093820,-1.355278,-0.059360,-0.442629,0.894738,-0.823803,-0.630598,1.143272,-10.214890,9.242004,46.140381,,,,,,
1478385042.79,-3.083831,0.597705,-0.435091,-7.623546,-0.203577,-0.550641,-0.047721,-0.562747,0.825251,-0.442925,-0.254545,0.978842,-10.112839,-1.031845,47.297211,,,,,,
1478385042.81,-3.080968,0.771164,-0.441386,-9.227094,0.070281,-0.172319,-0.043447,-0.696971,0.715782,-0.258387,0.252345,1.001976,-9.770630,-8.532501,46.648102,,,,,,
1478385042.83,-3.052477,0.973973,-0.458476,-10.713199,1.361459,-0.246143,-0.050019,-0.827125,0.559787,-0.164001,0.625282,1.678387,-9.770630,-8.532501,46.648102,,,,,,
1478385042.85,-2.980704,1.184397,-0.491069,-10.043764,2.317733,-0.710316,-0.060370,-0.926272,0.371989,-0.202111,1.454485,1.990377,-10.407791,-17.609940,44.193970,,,,,,
1478385042.87,-2.876558,1.361684,-0.573097,-8.251876,0.374030,-0.597156,-0.054377,-0.978216,0.200343,-0.157629,2.498724,1.528096,-12.242142,-26.764511,39.628082,,,,,,
1478385042.89,-2.462015,1.496222,-1.003061,-6.709318,-0.808592,-0.297499,-0.046824,-0.997221,0.057953,0.072764,1.986143,1.547577,-12.112686,-33.370636,33.499207,,,,,,
1478385042.91,-0.586867,1.512661,-2.879302,-4.190562,0.682975,-1.014473,-0.032175,-0.998311,-0.048381,-0.004431,0.946095,2.301387,-11.005783,-40.805878,23.257629,,,,,,
1478385042.93,-0.045802,1.475277,2.886827,-1.369740,1.517605,-1.345959,-0.004367,-0.995441,-0.095275,-0.322476,1.030323,1.523223,-11.005783,-40.805878,23.257629,,,,,,
1478385042.95,0.208879,1.475437,2.666712,0.810237,2.013494,-0.713639,0.019744,-0.995457,-0.093145,-0.659072,1.142689,1.542974,-11.385056,-42.457977,21.158752,,,,,,
1478385042.97,0.470609,1.526964,2.446930,5.113859,2.060537,0.718184,0.019868,-0.999040,-0.039054,-1.150209,1.499894,1.949684,-10.560867,-42.758347,20.792908,,,,,,
1478385042.99,-2.846175,1.443856,-0.432011,7.429557,5.245394,3.876427,-0.036858,-0.991954,0.121115,-0.908485,-0.956349,1.301461,-10.710175,-42.006546,22.589111,,,,,,
1478385043.01,-2.783416,1.314346,-0.509400,5.683644,-3.493093,1.390911,-0.088921,-0.967296,0.237551,0.187004,-2.383579,0.842435,-16.982895,-33.072937,31.199646,,,,,,
1478385043.03,-2.946242,1.240178,-0.490149,1.784048,-8.230612,2.018559,-0.063014,-0.945842,0.318453,0.939570,-0.354497,0.903440,-16.982895,-33.072937,31.199646,,,,,,
1478385043.05,-2.780214,1.174583,-0.705871,3.162112,0.225512,4.386200,-0.136450,-0.922529,0.361001,1.173727,1.372541,2.352592,-13.604309,-30.743332,35.801392,,,,,,
1478385043.07,-2.769456,1.105726,-0.701192,2.985208,0.698323,-0.905771,-0.163072,-0.893790,0.417788,0.085726,1.420707,1.237455,-14.044952,-28.041473,37.663940,,,,,,
,,,,,,,,,,,,,,,,37.354396,-122.033312,40.200317,0.000000,2.109375,1478385043.00
1478385043.09,-2.893594,1.066846,-0.533833,3.870703,1.505721,-3.892524,-0.118532,-0.875682,0.468114,-0.604872,-0.994252,2.151179,-15.608200,-25.115524,38.614502,,,,,,
1478385043.11,-2.973614,1.035967,-0.439156,0.351646,-1.689121,0.155776,-0.085216,-0.860356,0.502520,-2.918462,-5.378429,-2.043169,-14.778824,-23.689163,39.968506,,,,,,
1478385043.13,-2.932397,1.005812,-0.496064,1.202392,1.163230,1.762393,-0.111189,-0.844597,0.523730,0.429548,-1.442466,-0.191546,-14.778824,-23.689163,39.968506,,,,,,
1478385043.15,-2.896574,0.981023,-0.498755,0.921223,1.149152,-0.308737,-0.134913,-0.831067,0.539561,1.310191,-2.147769,-2.043422,-14.771606,-21.662903,41.237518,,,,,,
1478385043.17,-2.936475,0.952140,-0.502358,1.969836,-4.195229,1.122893,-0.118124,-0.814658,0.567784,1.313681,-1.204827,-3.710469,-16.418884,-20.987701,41.444031,,,,,,
1478385043.19,-3.021871,0.886968,-0.520687,3.670263,-4.470288,0.703067,-0.075455,-0.775160,0.627243,0.227570,0.736204,-2.476486,-15.291748,-20.011185,42.952362,,,,,,
1478385043.21,-3.071651,0.805138,-0.516722,4.269170,-1.162669,0.214255,-0.048431,-0.720926,0.691318,-0.465333,0.424402,-1.946170,-11.080551,-16.859207,44.934967,,,,,,
1478385043.23,-3.061470,0.708432,-0.522600,5.300944,0.898028,0.794393,-0.060779,-0.650644,0.756947,-0.314862,-0.579749,-1.727650,-11.080551,-16.859207,44.934967,,,,,,
1478385043.25,-3.030774,0.588364,-0.535813,5.905163,1.302957,1.093579,-0.091996,-0.555001,0.826747,-0.004531,-0.642753,-1.674342,-9.993042,-7.706741,47.393402,,,,,,
1478385043.27,-2.994780,0.492737,-0.540306,4.097574,1.755612,0.781837,-0.128884,-0.473039,0.871564,0.661843,-1.303695,-1.623074,-10.566452,-1.781693,47.444916,,,,,,
1478385043.29,-2.983362,0.412044,-0.559903,3.763891,-1.221676,1.951537,-0.144383,-0.400483,0.904857,0.784871,-1.167174,-1.447582,-11.895950,2.492447,46.593781,,,,,,
1478385043.31,-3.042436,0.346979,-0.592834,2.454420,-4.872708,1.696683,-0.093094,-0.340059,0.935785,0.295151,-1.153487,-1.078424,-11.802704,6.467209,46.357819,,,,,,
1478385043.33,3.131691,0.320305,-0.604697,0.768614,-5.200753,-0.045475,0.009398,-0.314856,0.949093,-0.823668,-1.937066,1.355701,-11.802704,6.467209,46.357819,,,,,,
1478385043.35,3.080674,0.318777,-0.588221,-0.768300,-0.836830,-1.039393,0.057814,-0.313405,0.947858,-1.142897,-1.589915,1.078784,-7.064255,9.542480,46.620941,,,,,,
1478385043.37,3.080192,0.370313,-0.557785,-3.647489,1.208615,-1.407380,0.057202,-0.361907,0.930457,-1.038403,-0.631898,1.350548,-0.686996,10.067535,46.683136,,,,,,
1478385043.39,3.103201,0.467593,-0.525576,-5.692595,2.020874,-0.932188,0.034262,-0.450739,0.891998,-0.833120,-0.206534,1.308548,-2.427383,6.993591,47.725006,,,,,,
1478385043.41,-3.138954,0.601942,-0.515490,-7.241581,2.470885,-0.028691,-0.002175,-0.566244,0.824235,-0.463813,0.405233,1.120406,-4.253708,1.294037,48.173828,,,,,,
1478385043.43,-3.078084,0.755379,-0.524045,-7.908727,2.927222,0.057946,-0.046204,-0.685565,0.726544,-0.171554,0.888598,1.051990,-4.253708,1.294037,48.173828,,,,,,
1478385043.45,-3.003031,0.924755,-0.546290,-8.968822,2.831122,-0.241184,-0.083152,-0.798473,0.596260,0.044974,1.234432,0.993492,-6.007172,-5.306793,47.351105,,,,,,
1478385043.47,-2.912773,1.113889,-0.597846,-9.717307,1.916818,-0.525996,-0.100071,-0.897421,0.429676,0.157536,1.422247,1.163159,-11.244049,-20.686676,42.469879,,,,,,
1478385043.49,-2.787047,1.298713,-0.699783,-9.054241,1.451201,-1.208845,-0.093297,-0.963213,0.252025,0.179265,1.612001,1.515843,-13.070984,-28.341690,37.449585,,,,,,
1478385043.51,-2.513665,1.456123,-0.945384,-7.275039,1.778638,-1.777524,-0.067219,-0.993432,0.092596,0.279408,1.213632,1.583109,-13.165833,-34.647369,31.767517,,,,,,
1478385043.53,-0.716053,1.523557,-2.689854,-5.758077,3.386368,-1.837772,-0.030997,-0.998884,-0.035624,0.091559,0.981322,1.439158,-13.165833,-34.647369,31.767517,,,,,,
1478385043.55,0.016776,1.450238,2.939926,-2.916637,4.381501,-0.889880,0.002017,-0.992742,-0.120250,-0.101779,0.754445,1.317332,-12.577347,-39.153214,25.936890,,,,,,
1478385043.57,0.102904,1.440599,2.920515,0.718389,2.211789,0.272918,0.013337,-0.991536,-0.129143,-0.177048,0.828237,0.506142,-12.806442,-41.933823,20.317932,,,,,,
1478385043.59,-0.025461,1.475445,3.056846,2.265627,-0.430265,1.226717,-0.002424,-0.995458,-0.095176,-0.224749,0.932729,0.497382,-14.905869,-42.761688,17.449463,,,,,,
1478385043.61,-0.899513,1.524441,-2.356720,5.785703,0.100191,1.922364,-0.036284,-0.998926,-0.028822,-0.547090,1.231409,1.705351,-15.277939,-41.409607,19.541626,,,,,,
1478385043.63,-2.665320,1.382553,-0.550333,10.423969,2.677611,2.558277,-0.085795,-0.982334,0.166308,-0.732091,-0.218731,2.636625,-15.277939,-41.409607,19.541626,,,,,,
1478385043.65,-2.769546,1.219861,-0.429409,6.568293,-2.072391,1.236096,-0.124970,-0.939052,0.320257,-0.197677,-1.915639,0.934260,-17.445862,-37.953934,25.209656,,,,,,
1478385043.67,-2.826593,1.137117,-0.448532,1.578142,-2.356014,2.454251,-0.130188,-0.907426,0.399536,0.028779,0.361253,1.682647,-20.050293,-31.573502,30.639465,,,,,,
1478385043.69,-2.755097,1.105950,-0.524874,2.661323,-0.984607,1.060275,-0.168979,-0.893890,0.415218,-0.696790,2.104706,1.179860,-19.961746,-26.768112,36.025879,,,,,,
1478385043.71,-2.829290,1.019502,-0.453639,5.101925,0.580435,-0.448333,-0.160935,-0.851847,0.498454,-0.449325,0.082514,2.465947,-18.973709,-23.166016,38.125000,,,,,,
1478385043.73,-2.840592,0.937566,-0.401028,3.641017,2.273832,0.087995,-0.175440,-0.806120,0.565147,-0.357214,-1.325120,1.733544,-18.973709,-23.166016,38.125000,,,,,,
1478385043.75,-2.821411,0.907616,-0.388865,1.317592,0.239774,-0.092590,-0.193762,-0.788038,0.584339,-0.739298,-4.540148,0.181164,-19.859940,-19.564392,39.755310,,,,,,
1478385043.77,-2.811374,0.886481,-0.383570,1.126105,1.110916,0.534500,-0.204972,-0.774852,0.597989,0.942292,-2.110448,-0.018994,-22.180069,-18.514481,39.653931,,,,,,
1478385043.79,-2.780262,0.862878,-0.387036,0.897637,0.813490,0.273658,-0.229877,-0.759717,0.608265,1.477131,-2.351550,-2.341038,-23.076447,-17.538971,40.167084,,,,,,
1478385043.81,-2.828375,0.820273,-0.392393,2.734374,-4.280543,1.424215,-0.210145,-0.731332,0.648839,1.114900,-0.984366,-3.677083,-23.520920,-16.188614,40.533600,,,,,,
1478385043.83,-2.900521,0.736920,-0.394545,4.739781,-2.860093,0.631363,-0.176799,-0.672010,0.719127,-0.050450,0.827894,-2.604229,-23.520920,-16.188614,40.533600,,,,,,
1478385043.85,-2.945003,0.625585,-0.371541,6.005385,-0.362139,0.403247,-0.158335,-0.585572,0.795007,-0.523336,-0.890838,-1.774301,-20.959442,-12.735886,43.248840,,,,,,
1478385043.87,-2.921663,0.496044,-0.361526,6.579316,2.090801,1.266799,-0.191867,-0.475950,0.858288,-0.141812,-1.244219,-1.184277,-19.515640,-8.009247,44.899078,,,,,,
1478385043.89,-2.866536,0.375676,-0.357247,5.378051,3.273590,1.231636,-0.252659,-0.366902,0.895291,0.735509,-1.502086,-1.314114,-19.334915,-1.259491,44.655670,,,,,,
1478385043.91,-2.808674,0.275454,-0.363307,4.323506,1.731595,2.182867,-0.314483,-0.271984,0.909464,1.334472,-1.699742,-1.514689,-23.629684,9.686539,40.679871,,,,,,
1478385043.93,-2.848713,0.189499,-0.395727,3.059866,-4.659631,3.085135,-0.283543,-0.188367,0.940277,1.573353,-1.485598,-1.877838,-23.629684,9.686539,40.679871,,,,,,
1478385043.95,-2.966816,0.140597,-0.426207,1.247170,-6.715783,1.076239,-0.172172,-0.140134,0.975048,0.589149,-1.584704,0.081821,-21.060486,13.961548,40.692749,,,,,,
1478385043.97,-3.090359,0.134646,-0.411435,-0.099240,-4.727365,-1.593826,-0.050748,-0.134239,0.989649,-0.652576,-2.202751,2.117346,-16.474945,16.662643,41.780487,,,,,,
1478385043.99,-3.133659,0.168119,-0.373262,-2.676142,-0.589861,-1.841188,-0.007821,-0.167329,0.985870,-1.157889,-1.059081,1.455307,-10.700378,17.039047,43.187103,,,,,,
1478385044.01,-3.126007,0.255012,-0.346986,-5.274460,1.153067,-1.002202,-0.015081,-0.252257,0.967543,-0.895487,-0.509858,1.613115,-9.807816,15.689957,44.100067,,,,,,
1478385044.03,-3.098654,0.388582,-0.338635,-7.454758,1.663182,-0.408412,-0.039725,-0.378877,0.924594,-0.531732,0.091645,1.456631,-9.807816,15.689957,44.100067,,,,,,
1478385044.05,-3.055651,0.556079,-0.345608,-8.812273,2.223605,-0.147469,-0.072903,-0.527860,0.846197,-0.091724,0.546201,1.198405,-12.405823,5.867508,46.653564,,,,,,
,,,,,,,,,,,,,,,,37.354444,-122.033310,39.244019,2.440000,358.242188,1478385044.00
1478385044.07,-2.989873,0.744683,-0.367983,-9.944480,2.731384,-0.343563,-0.111132,-0.677739,0.726856,0.132647,0.825383,1.122769,-13.490387,-1.932846,46.291138,,,,,,
1478385044.09,-2.910127,0.954665,-0.412301,-10.937066,1.836816,-0.686440,-0.132569,-0.816120,0.562471,0.269303,1.135883,1.138121,-15.776291,-10.409348,44.793732,,,,,,
1478385044.11,-2.809667,1.170476,-0.518875,-10.929136,-0.773549,-0.350644,-0.126994,-0.920936,0.368442,0.351359,1.651847,1.147275,-17.385529,-19.413544,40.604614,,,,,,
1478385044.13,-2.594839,1.348498,-0.788966,-8.884989,-2.564695,-0.051788,-0.114627,-0.975393,0.188331,0.351398,2.044882,1.470436,-17.385529,-19.413544,40.604614,,,,,,
1478385044.15,-1.986721,1.465539,-1.442775,-6.958552,-1.208077,-1.071459,-0.096105,-0.994466,0.042449,0.182592,1.332951,1.851640,-16.615097,-34.873535,30.608704,,,,,,
1478385044.17,-0.780879,1.468892,-2.630694,-4.757408,2.615522,-1.120148,-0.071607,-0.994812,-0.072257,-0.323016,0.927643,2.430197,-14.525421,-38.853592,25.541504,,,,,,
1478385044.19,-0.339702,1.435794,-3.018160,-1.112596,2.180031,-1.016710,-0.044847,-0.990901,-0.126901,-0.996474,1.287761,1.581705,-14.080750,-41.633392,20.754333,,,,,,
1478385044.21,-0.301258,1.453300,-3.047046,1.600666,-0.259724,0.071089,-0.034783,-0.993105,-0.111946,-0.717841,1.251742,0.831719,-14.306671,-42.685944,18.205261,,,,,,
1478385044.23,-0.749697,1.485074,-2.608195,2.340364,-0.573027,1.750006,-0.058341,-0.996328,-0.062663,-0.400948,1.173406,1.381739,-14.306671,-42.685944,18.205261,,,,,,
1478385044.25,-1.316069,1.455098,-2.050903,2.543186,-1.122499,2.943343,-0.111716,-0.993314,-0.029089,-0.072336,1.301695,1.209951,-14.683441,-42.759964,19.176636,,,,,,
1478385044.27,-2.319222,1.362054,-1.002529,9.560780,5.819374,0.694634,-0.151850,-0.978292,0.141017,-0.049703,-0.237116,2.649052,-16.402649,-39.905273,23.875916,,,,,,
1478385044.29,-2.572993,1.258946,-0.617283,6.619234,3.586213,-0.772886,-0.165208,-0.951767,0.258544,-0.474455,-3.152206,1.333115,-19.910797,-34.575516,28.624878,,,,,,
1478385044.31,-2.771069,1.165483,-0.508090,3.692053,-8.985712,1.895889,-0.142780,-0.918979,0.367548,0.407962,0.121677,-0.392573,-22.373245,-30.973083,31.064392,,,,,,
1478385044.33,-2.730486,1.072170,-0.673807,2.661287,-2.412885,6.365361,-0.191108,-0.878240,0.438374,0.268150,2.016409,2.025981,-22.373245,-30.973083,31.064392,,,,,,
1478385044.35,-2.725553,0.980528,-0.722828,4.630292,-1.225545,0.100414,-0.224938,-0.830792,0.509105,-0.095298,1.091564,3.631489,-18.691956,-27.817795,36.341736,,,,,,
1478385044.37,-2.814857,0.916230,-0.603330,3.538403,1.146643,-2.502979,-0.195401,-0.793312,0.576606,-0.155154,-0.491295,2.169472,-17.459625,-19.038010,41.127747,,,,,,
1478385044.39,-2.871472,0.859058,-0.502379,3.200032,0.720970,-1.764322,-0.174292,-0.757227,0.629467,-0.843698,-3.308431,0.322666,-17.002304,-17.087036,42.101471,,,,,,
1478385044.41,-2.894706,0.844767,-0.485126,1.123325,-0.473862,0.249165,-0.162250,-0.747816,0.643775,0.065341,-3.534532,0.522684,-18.725250,-16.411392,42.757233,,,,,,
1478385044.43,-2.875664,0.828538,-0.496212,0.462957,0.583844,0.472089,-0.177644,-0.736944,0.652193,1.109361,-2.292521,-1.427096,-18.725250,-16.411392,42.757233,,,,,,
1478385044.45,-2.906722,0.810175,-0.502682,1.399356,-3.347892,0.493887,-0.160428,-0.724407,0.670445,1.103376,-1.434391,-3.102116,-17.595535,-15.135696,43.439667,,,,,,
1478385044.47,-2.980642,0.753127,-0.485854,3.847387,-2.478977,-0.423649,-0.116916,-0.683923,0.720124,-0.838620,-0.456595,-2.956025,-18.269073,-14.835785,43.357025,,,,,,
1478385044.49,-3.013357,0.653585,-0.460884,5.868077,0.483431,0.205563,-0.101529,-0.608037,0.787390,-0.477741,-0.490550,-2.332449,-14.580811,-10.857681,46.457001,,,,,,
1478385044.51,-2.977421,0.521245,-0.461732,6.501510,2.380913,1.182012,-0.141731,-0.497961,0.855539,-0.173195,-1.001353,-1.843561,-14.552994,-4.632553,46.588593,,,,,,
1478385044.53,-2.910662,0.409729,-0.457802,4.926733,3.966654,0.871655,-0.209939,-0.398361,0.892880,0.769067,-2.297913,-1.550488,-14.552994,-4.632553,46.588593,,,,,,
1478385044.55,-2.846508,0.317368,-0.468183,3.781713,1.631514,2.273557,-0.276297,-0.312067,0.908996,1.404608,-1.871206,-2.676956,-15.947021,1.966583,45.729889,,,,,,
1478385044.57,-2.894369,0.246670,-0.506102,2.399261,-5.130601,2.716246,-0.237306,-0.244176,0.940247,1.377107,-1.448665,-2.170731,-19.299210,6.389664,43.808075,,,,,,
1478385044.59,-2.998875,0.209235,-0.530772,1.115134,-5.261423,0.743481,-0.139131,-0.207712,0.968245,0.599931,-1.923392,-0.217345,-14.767868,13.364700,43.832458,,,,,,
1478385044.61,-3.104681,0.215641,-0.525347,-1.322218,-4.989779,-0.766487,-0.036049,-0.213973,0.976174,-0.549263,-2.329667,2.233558,-9.062881,14.640198,44.335693,,,,,,
1478385044.63,3.129783,0.274436,-0.506557,-4.034877,-0.645579,-0.901356,0.011367,-0.271005,0.962511,-1.223724,-1.464027,1.920439,-9.062881,14.640198,44.335693,,,,,,
1478385044.65,3.136980,0.396709,-0.479552,-7.200090,1.432860,-1.544335,0.004255,-0.386385,0.922328,-1.220243,-0.204404,1.937169,-5.398178,12.841660,45.802734,,,,,,
1478385044.67,-3.111703,0.561730,-0.449042,-8.795231,3.089554,-1.090610,-0.025293,-0.532651,0.845957,-0.890586,0.240247,2.156012,-5.192993,8.717499,46.642120,,,,,,
1478385044.69,-3.033882,0.753167,-0.454605,-9.869118,3.848058,-0.237791,-0.078426,-0.683953,0.725299,-0.500996,0.891869,1.579389,-10.739777,-7.107117,47.009155,,,,,,
1478385044.71,-2.934194,0.954902,-0.490709,-10.255717,3.339097,-0.559322,-0.118955,-0.816257,0.565309,-0.120654,1.337650,1.528548,-13.551117,-16.260361,43.783478,,,,,,
1478385044.73,-2.802322,1.158248,-0.596608,-10.624561,0.501991,0.207907,-0.133434,-0.916102,0.378090,0.344830,1.680110,1.490471,-13.551117,-16.260361,43.783478,,,,,,
1478385044.75,-2.494686,1.299208,-0.988149,-7.626515,-4.875227,3.639719,-0.161687,-0.963346,0.214060,1.535772,2.726285,1.981527,-15.832520,-24.890305,38.836609,,,,,,
1478385044.77,-2.151549,1.335072,-1.438854,-4.554778,-4.257655,1.141311,-0.195257,-0.972345,0.128136,1.408529,2.518229,1.797370,-15.632111,-32.095535,33.610229,,,,,,
1478385044.79,-1.690782,1.396915,-1.956590,-7.302293,-1.425346,-2.000044,-0.171763,-0.984921,0.020708,0.511408,1.826351,1.171262,-15.642044,-35.173141,30.994324,,,,,,
1478385044.81,-0.694505,1.436567,-2.915033,-3.127385,5.874104,-5.228184,-0.085650,-0.991005,-0.102829,-0.521329,0.820091,3.469345,-10.485413,-42.006393,22.741394,,,,,,
1478385044.83,0.299643,1.493051,2.513686,2.358390,6.643039,-3.853219,0.022926,-0.996979,-0.074206,-2.004844,0.149277,-0.747708,-10.485413,-42.006393,22.741394,,,,,,
1478385044.85,0.473481,1.481626,2.419798,1.596374,2.834849,1.050791,0.040607,-0.996027,-0.079255,-1.575091,0.127939,2.144212,-9.287003,-42.832809,21.330872,,,,,,
1478385044.87,-0.404373,1.530647,-2.932620,1.413146,2.769679,3.689296,-0.015792,-0.999194,-0.036901,-0.362412,1.248141,1.329199,-9.812790,-43.208420,20.726685,,,,,,
1478385044.89,-1.817367,1.476919,-1.493453,7.394376,0.239595,3.700220,-0.090905,-0.995597,0.022880,0.190605,1.522757,0.485894,-12.658691,-41.932327,21.819458,,,,,,
1478385044.91,-2.550700,1.312865,-0.672310,9.311559,5.015882,0.418475,-0.142106,-0.966920,0.211830,0.134507,-2.304839,2.134636,-19.158661,-34.125580,28.556030,,,,,,
1478385044.93,-2.878472,1.231373,-0.348573,5.570379,-3.906574,-2.462060,-0.086597,-0.942947,0.321485,2.009754,-1.941224,0.658709,-19.158661,-34.125580,28.556030,,,,,,
1478385044.95,-2.787243,1.133278,-0.526756,3.106603,-1.825408,8.326170,-0.147013,-0.905806,0.397370,0.833338,0.277067,2.318557,-18.780045,-32.096909,32.228638,,,,,,
1478385044.97,-2.619678,1.017425,-0.748755,2.668354,-2.621294,4.283514,-0.262012,-0.850757,0.455589,-0.321941,2.716678,2.125221,-18.090622,-27.517792,36.346863,,,,,,
1478385044.99,-2.793971,0.981192,-0.588553,4.371315,-1.169439,-6.103142,-0.189419,-0.831161,0.522773,-1.512287,0.059844,3.381188,-20.469955,-22.341034,38.107605,,,,,,
1478385045.01,-2.914547,0.929049,-0.396631,1.446513,2.848379,-2.151465,-0.134744,-0.801051,0.583234,-2.176947,-4.619787,-1.107083,-17.840820,-20.688828,40.303894,,,,,,
1478385045.03,-2.801787,0.896945,-0.478887,1.505102,2.102328,4.600082,-0.207982,-0.781424,0.588319,0.715962,-3.278909,0.090499,-17.840820,-20.688828,40.303894,,,,,,
1478385045.05,-2.720413,0.857603,-0.552662,0.810845,0.718470,1.172911,-0.267483,-0.756276,0.597075,2.425549,-2.410395,-1.781279,-21.280640,-18.213211,40.937073,,,,,,
1478385045.07,-2.746713,0.838786,-0.535250,1.575819,-1.729417,0.225160,-0.257118,-0.743832,0.616931,2.048683,-1.405277,-3.324481,-23.296600,-16.263382,40.761047,,,,,,
,,,,,,,,,,,,,,,,37.354472,-122.033307,39.151794,3.020000,359.296875,1478385045.00
1478385045.09,-2.809565,0.774357,-0.527969,4.045240,-3.493012,0.732105,-0.233019,-0.699256,0.675827,-0.306394,-0.005028,-3.242859,-22.621246,-16.037918,41.217163,,,,,,
1478385045.11,-2.876673,0.670684,-0.502540,6.007575,-1.169669,0.855163,-0.205118,-0.621522,0.756067,0.087991,0.027497,-2.006738,-20.435699,-12.960739,43.404755,,,,,,
1478385045.13,-2.864897,0.525335,-0.493399,7.223288,1.787157,1.714807,-0.236342,-0.501503,0.832248,0.444304,-1.076317,-1.969333,-20.435699,-12.960739,43.404755,,,,,,
1478385045.15,-2.831790,0.398440,-0.483881,5.597286,1.445819,1.430045,-0.280989,-0.387981,0.877790,1.128050,-2.292744,-1.826383,-19.407303,-0.584198,44.952911,,,,,,
1478385045.17,-2.833884,0.295939,-0.493388,4.277080,-1.273975,2.398941,-0.289709,-0.291638,0.911601,1.532477,-1.596485,-1.877177,-20.127029,5.639282,43.427063,,,,,,
1478385045.19,-2.885347,0.212664,-0.526414,3.058542,-4.172237,2.600396,-0.247741,-0.211064,0.945556,1.224608,-1.249995,-1.758758,-19.280075,10.213379,42.521790,,,,,,
1478385045.21,-3.000600,0.164226,-0.556963,1.312341,-6.887641,1.570614,-0.138636,-0.163489,0.976756,0.115290,-1.709863,-0.330073,-15.737228,14.263626,42.770081,,,,,,
1478385045.23,-3.126252,0.169309,-0.563981,-1.050793,-4.807334,-0.504788,-0.015120,-0.168501,0.985586,-0.883882,-2.444277,2.931483,-15.737228,14.263626,42.770081,,,,,,
1478385045.25,3.135843,0.213470,-0.528145,-3.331515,0.893032,-2.301913,0.005619,-0.211852,0.977286,-1.428654,-0.752686,1.489176,-10.027847,16.664581,43.719940,,,,,,
1478385045.27,-3.125639,0.320473,-0.479778,-6.397423,1.977565,-2.119427,-0.015141,-0.315016,0.948966,-1.021724,-0.428881,1.708948,-5.093353,13.741135,45.278046,,,,,,
1478385045.29,-3.092643,0.477543,-0.458500,-8.606816,1.978369,-0.738593,-0.043456,-0.459598,0.887063,-0.593507,-0.056179,1.635657,-7.145325,8.267715,46.848969,,,,,,
1478385045.31,-3.057891,0.662472,-0.465903,-9.453050,1.362451,-0.223575,-0.065920,-0.615068,0.785714,-0.084669,0.597871,1.457206,-9.131790,0.318161,47.302979,,,,,,
1478385045.33,-3.013982,0.858597,-0.477988,-10.273495,2.071287,-0.926074,-0.083167,-0.756927,0.648186,0.199409,1.118346,1.373298,-9.131790,0.318161,47.302979,,,,,,
1478385045.35,-2.967876,1.092236,-0.492928,-12.343957,1.017509,-1.486017,-0.079595,-0.887659,0.453571,0.384405,1.442346,1.351727,-11.120178,-8.382355,46.784149,,,,,,
1478385045.37,-2.898389,1.335708,-0.585031,-11.650021,-1.652027,-0.601089,-0.056092,-0.972494,0.226074,0.548280,2.610067,2.405900,-12.470078,-27.966156,37.979431,,,,,,
1478385045.39,-2.219727,1.515741,-1.287351,-8.656040,-0.213820,-0.663509,-0.043842,-0.998485,0.033255,0.407550,2.680324,2.378992,-10.846390,-36.148178,30.970215,,,,,,
1478385045.41,-0.064927,1.468919,2.875156,-5.395457,3.280457,-2.435695,-0.006598,-0.994815,-0.101487,-0.332223,1.509997,2.263306,-10.934143,-41.104538,24.609192,,,,,,
1478385045.43,0.422951,1.407749,2.466529,-0.637482,3.966755,-3.460831,0.066627,-0.986737,-0.148022,-0.956398,0.744824,1.169064,-10.934143,-41.104538,24.609192,,,,,,
1478385045.45,0.737922,1.380378,2.192241,-0.420643,1.058503,-1.597646,0.127331,-0.981925,-0.140035,-1.710629,-0.424050,-0.112712,-9.888031,-43.659622,19.527344,,,,,,
1478385045.47,0.777817,1.423601,2.140955,3.359522,-1.333112,2.736940,0.102918,-0.989186,-0.104490,-1.085584,0.916204,1.877760,-7.639313,-44.561462,17.677551,,,,,,
1478385045.49,2.112293,1.534517,0.786056,9.714421,-0.379756,3.021998,0.031082,-0.999342,0.018695,-1.030167,2.488020,-1.467532,-8.012604,-43.058105,21.044312,,,,,,
1478385045.51,-2.935713,1.374169,-0.343384,8.144705,6.236017,2.773566,-0.039938,-0.980731,0.191237,-0.763514,-3.105649,3.302095,-12.654816,-39.076324,27.810913,,,,,,
1478385045.53,-2.959437,1.216809,-0.293339,6.475824,-1.333655,0.202721,-0.062794,-0.937998,0.340906,0.267933,-0.748922,0.241522,-12.654816,-39.076324,27.810913,,,,,,
1478385045.55,-2.905053,1.171179,-0.455168,0.153450,-3.279104,5.823366,-0.091174,-0.921210,0.378232,0.727664,1.817862,1.403475,-16.308456,-33.072556,31.581360,,,,,,
1478385045.57,-2.809661,1.068417,-0.607306,4.959304,-1.945701,1.964501,-0.156910,-0.876439,0.455229,0.767674,1.654668,2.783708,-14.945618,-28.793289,35.857117,,,,,,
1478385045.59,-2.901716,0.993552,-0.493562,3.752451,1.546236,-3.072015,-0.129653,-0.837970,0.530091,0.081206,-0.363522,2.206176,-16.273941,-22.413589,40.549713,,,,,,
1478385045.61,-2.944293,0.941519,-0.347805,3.186883,4.645574,-3.392478,-0.115371,-0.808453,0.577142,-1.441651,-4.666690,0.101050,-16.717072,-20.688004,41.140137,,,,,,
1478385045.63,-2.924163,0.918424,-0.338789,1.205570,-0.028283,2.049787,-0.130958,-0.794646,0.592780,0.780525,-2.874162,-0.105124,-16.717072,-20.688004,41.140137,,,,,,
1478385045.65,-2.870005,0.883622,-0.405770,1.031478,0.264376,1.680615,-0.170173,-0.773042,0.611104,1.733482,-1.525725,-1.477818,-18.964569,-20.238312,40.816315,,,,,,
1478385045.67,-2.890968,0.856384,-0.401825,1.832238,-1.968726,0.211058,-0.162489,-0.755478,0.634704,0.767638,-1.510498,-3.259781,-19.632339,-18.437744,41.404236,,,,,,
1478385045.69,-2.940947,0.789460,-0.401108,4.066219,-2.154492,0.577697,-0.140354,-0.709973,0.690100,-0.135692,-0.100696,-2.849524,-18.948456,-15.735565,43.577942,,,,,,
1478385045.71,-2.969983,0.692914,-0.395333,5.165632,-0.650104,1.018596,-0.131387,-0.638782,0.758087,0.379648,-0.385709,-1.973449,-16.757141,-11.609055,45.087463,,,,,,
1478385045.73,-2.967842,0.564883,-0.419129,6.630645,-0.940935,2.655031,-0.146021,-0.535317,0.831934,0.628184,-1.243263,-1.649408,-16.757141,-11.609055,45.087463,,,,,,
1478385045.75,-2.999229,0.430522,-0.455013,6.314671,-3.422495,2.530128,-0.128936,-0.417345,0.899555,0.973708,-2.141905,-2.022327,-16.279663,-5.308472,45.673370,,,,,,
1478385045.77,-3.074465,0.313616,-0.504600,5.278357,-5.145197,3.177461,-0.063806,-0.308500,0.949082,0.377572,-1.375216,-1.565812,-14.673935,1.591751,45.893738,,,,,,
1478385045.79,3.132047,0.211324,-0.571888,4.878692,-4.285021,3.487906,0.009333,-0.209755,0.977709,0.151754,-1.048699,-1.075961,-11.048889,7.367371,46.512665,,,,,,
1478385045.81,3.062151,0.130004,-0.639492,3.608392,-4.163291,2.730657,0.078688,-0.129638,0.988434,-0.667845,-1.683549,-0.423584,-0.727325,17.040344,44.486847,,,,,,
1478385045.83,2.986696,0.102068,-0.673153,0.366700,-3.077730,0.823006,0.153475,-0.101890,0.982885,-1.356005,-2.476036,2.601480,-0.727325,17.040344,44.486847,,,,,,
1478385045.85,2.978830,0.107278,-0.651396,-1.097709,0.943706,-2.241261,0.161113,-0.107072,0.981111,-1.807719,-0.358122,1.346999,4.760864,19.513977,43.109314,,,,,,
1478385045.87,3.032957,0.178615,-0.594072,-5.556612,4.276435,-1.908640,0.106697,-0.177667,0.978289,-0.652428,-0.105826,1.675275,5.433655,19.064117,43.267395,,,,,,
1478385045.89,3.119030,0.320648,-0.569940,-7.680840,4.535500,-0.017310,0.021410,-0.315181,0.948790,-0.245486,0.571880,1.664583,2.045746,16.815964,45.115234,,,,,,
1478385045.91,-3.067156,0.482550,-0.586150,-8.431432,4.396747,0.660519,-0.065877,-0.464039,0.883362,0.286778,1.051823,1.338745,-6.421906,2.794006,48.147644,,,,,,
1478385045.93,-2.971727,0.661372,-0.628139,-9.392164,3.092624,0.771719,-0.133406,-0.614200,0.777792,0.776778,1.620853,0.921259,-6.421906,2.794006,48.147644,,,,,,
1478385045.95,-2.855278,0.840282,-0.724713,-9.463738,2.267568,1.671073,-0.188445,-0.744831,0.640090,1.167601,2.089787,1.145402,-10.732681,-5.532135,47.004486,,,,,,
1478385045.97,-2.707485,1.009925,-0.867659,-9.562126,1.138179,0.419878,-0.223728,-0.846792,0.482586,1.069965,2.779104,0.864750,-13.544113,-14.309174,44.977722,,,,,,
1478385045.99,-2.531118,1.185172,-1.063383,-9.682599,-0.438137,-0.897759,-0.215623,-0.926564,0.308198,1.137925,2.617162,1.238112,-15.597610,-21.963150,41.005157,,,,,,
1478385046.01,-2.241720,1.344058,-1.371555,-8.429955,0.297435,-2.874377,-0.176075,-0.974405,0.139761,0.499073,2.076547,1.627543,-15.022537,-29.092911,36.232300,,,,,,
1478385046.03,-1.392011,1.481522,-2.178820,-6.340177,4.425685,-5.432146,-0.087734,-0.996018,-0.015855,-0.255589,0.763764,3.072648,-15.022537,-29.092911,36.232300,,,,,,
1478385046.05,0.514815,1.505079,2.326243,0.172061,7.286793,-5.483462,0.032334,-0.997841,-0.057158,-0.877289,0.288552,2.596434,-10.705078,-40.204529,24.608826,,,,,,
1478385046.07,0.822836,1.445434,2.140576,-1.052147,4.920775,-0.214094,0.091660,-0.992152,-0.085041,-1.160508,-0.763402,2.017430,-9.585632,-42.382370,21.776550,,,,,,
1478385046.09,0.397461,1.503149,2.596347,1.690181,-0.870449,5.084805,0.026165,-0.997713,-0.062326,-0.457577,1.149797,0.928995,-8.761017,-43.284836,19.312439,,,,,,
,,,,,,,,,,,,,,,,37.354499,-122.033305,38.956085,3.000000,0.703125,1478385046.00
1478385046.11,-1.645159,1.489076,-1.708952,5.814353,-3.638732,4.405916,-0.081404,-0.996663,0.006065,-0.195894,2.562245,0.937218,-11.981125,-42.084488,19.651672,,,,,,
1478385046.13,-2.549606,1.351415,-0.725436,7.978954,7.126781,-0.596178,-0.121438,-0.976032,0.180593,0.201195,-3.887051,1.618891,-11.981125,-42.084488,19.651672,,,,,,
1478385046.15,-2.918114,1.273671,-0.299400,5.742181,-2.210845,-3.505154,-0.064885,-0.956182,0.285492,0.831151,-3.802119,0.192749,-19.163391,-35.100357,28.783936,,,,,,
1478385046.17,-2.931648,1.178636,-0.355481,3.755247,-2.396374,5.693200,-0.079650,-0.924085,0.373794,0.977462,-0.155077,0.465928,-16.981415,-32.547348,31.798096,,,,,,
1478385046.19,-2.701606,1.079866,-0.656004,1.685968,-2.005754,6.878760,-0.200802,-0.881895,0.426545,0.471279,0.907194,1.655822,-16.370041,-28.793671,35.467957,,,,,,
1478385046.21,-2.807071,1.016985,-0.571286,5.133070,-1.254378,-4.803853,-0.172673,-0.850526,0.496779,-1.451045,2.076005,3.609132,-19.053436,-24.441696,37.453003,,,,,,
1478385046.23,-2.933769,0.971023,-0.368812,0.579377,4.265703,-3.299730,-0.116465,-0.825463,0.552310,-0.855459,-1.847037,1.656553,-19.053436,-24.441696,37.453003,,,,,,
1478385046.25,-2.864586,0.948900,-0.394514,0.819183,0.985105,3.024202,-0.159322,-0.812775,0.560369,0.627660,-6.323852,-0.058385,-16.644775,-21.739349,39.793976,,,,,,
1478385046.27,-2.823972,0.913372,-0.470147,1.233758,-2.050575,1.576339,-0.190845,-0.791569,0.580514,1.597080,-1.763561,-2.025445,-20.090454,-20.689087,40.056366,,,,,,
1478385046.29,-2.890603,0.864485,-0.461767,3.347380,-3.294511,0.407740,-0.161195,-0.760761,0.628696,1.677171,-0.920346,-4.007801,-20.311508,-19.563339,40.800812,,,,,,
1478385046.31,-2.953829,0.770650,-0.442346,5.132491,-1.385748,0.094501,-0.133922,-0.696602,0.704848,-0.506565,0.261849,-3.570723,-18.655655,-17.611374,42.761536,,,,,,
1478385046.33,-2.942681,0.657780,-0.426858,6.278789,2.022928,1.103779,-0.156373,-0.611362,0.775748,0.132752,-0.619946,-2.177359,-18.655655,-17.611374,42.761536,,,,,,
1478385046.35,-2.893615,0.515335,-0.436744,6.790410,2.140823,2.236452,-0.213568,-0.492826,0.843511,0.522894,-1.504885,-1.562795,-17.587524,-12.809052,45.082764,,,,,,
1478385046.37,-2.859861,0.404654,-0.446304,4.280209,0.700387,1.693912,-0.255566,-0.393701,0.882998,1.515500,-2.184440,-2.146746,-19.023895,0.989914,44.052002,,,,,,
1478385046.39,-2.893873,0.328446,-0.478018,2.828788,-4.312599,3.240699,-0.232087,-0.322572,0.917651,1.620515,-1.677366,-2.230334,-20.128036,5.414291,43.427704,,,,,,
1478385046.41,-3.000556,0.278797,-0.536594,1.368900,-7.022548,2.756325,-0.135142,-0.275200,0.951841,1.040202,-0.840767,-1.460707,-15.910767,9.389694,43.832977,,,,,,
1478385046.43,-3.136142,0.276627,-0.568189,-0.969592,-6.257967,0.763889,-0.005243,-0.273112,0.961968,-0.444418,-1.582600,0.725212,-15.910767,9.389694,43.832977,,,,,,
1478385046.45,3.112123,0.323915,-0.559433,-3.376439,0.580075,-0.982247,0.027933,-0.318280,0.947585,-1.559442,-2.530856,2.701905,-9.529312,11.341248,45.390930,,,,,,
1478385046.47,3.119769,0.429639,-0.524325,-6.141631,1.252198,-1.471341,0.019838,-0.416543,0.908900,-1.738558,-0.303260,1.556432,-3.382217,10.816620,45.753967,,,,,,
1478385046.49,-3.129475,0.569001,-0.511070,-7.535444,2.421667,0.027379,-0.010208,-0.538791,0.842378,-0.815597,0.037189,1.834456,-4.248978,2.118362,47.496399,,,,,,
1478385046.51,-3.065135,0.737282,-0.529957,-8.887554,2.694550,0.424299,-0.056547,-0.672278,0.738136,-0.325945,0.493522,1.519310,-7.356033,-5.081879,47.261902,,,,,,
1478385046.53,-2.976695,0.920393,-0.567873,-9.506680,3.185914,-0.055148,-0.099395,-0.795840,0.597294,-0.020127,0.726809,1.450268,-7.356033,-5.081879,47.261902,,,,,,
1478385046.55,-2.860129,1.122867,-0.635847,-10.639327,2.609949,-0.749972,-0.120299,-0.901346,0.416057,0.114073,1.135431,1.572529,-9.714783,-13.258896,45.237854,,,,,,
1478385046.57,-2.652682,1.319831,-0.825560,-9.906250,0.660576,-0.602343,-0.116636,-0.968673,0.219245,0.235273,1.695083,1.737023,-11.996994,-21.737869,41.265503,,,,,,
1478385046.59,-2.025607,1.451387,-1.460579,-7.499845,0.056901,-0.523959,-0.107016,-0.992879,0.052331,0.312902,2.301824,1.946632,-13.543991,-36.225006,29.143433,,,,,,
1478385046.61,-0.892172,1.463205,-2.584146,-5.126008,1.362568,-1.660518,-0.083592,-0.994218,-0.067407,0.277104,1.802094,1.887384,-13.701660,-39.680237,23.902283,,,,,,
1478385046.63,-0.237207,1.421449,3.085653,-2.859499,2.798030,-2.350306,-0.034965,-0.988868,-0.144627,-0.059655,0.840339,1.797718,-13.701660,-39.680237,23.902283,,,,,,
1478385046.65,0.118488,1.401360,2.787751,-0.073426,3.102095,-2.153375,0.019934,-0.985680,-0.167445,-0.452444,0.490319,1.350428,-12.280563,-42.009644,19.498474,,,,,,
1478385046.67,0.360806,1.414682,2.601845,1.244463,2.841531,-0.527798,0.054889,-0.987839,-0.145470,-0.627460,0.539185,0.994927,-11.157623,-43.437546,16.588928,,,,,,
1478385046.69,0.291842,1.449539,2.701571,1.388846,0.360942,2.229638,0.034802,-0.992657,-0.115845,-0.581006,0.933148,1.107102,-11.683502,-43.361725,17.408447,,,,,,
1478385046.71,-0.905780,1.528848,-2.403663,9.071005,-1.390016,3.684830,-0.033000,-0.999120,-0.025877,-0.535543,1.482671,1.616927,-13.181107,-42.159729,19.414917,,,,,,
1478385046.73,-2.576259,1.381237,-0.676831,8.278488,3.129517,2.175519,-0.100939,-0.982087,0.159109,-0.319852,-2.603469,1.456675,-13.181107,-42.159729,19.414917,,,,,,
1478385046.75,-2.808503,1.245002,-0.444604,6.277501,-4.426218,-0.197139,-0.104649,-0.947397,0.302469,0.127583,-1.866049,0.357122,-17.144638,-37.277725,26.410583,,,,,,
1478385046.77,-2.868294,1.184513,-0.504260,-0.229938,-2.655201,3.763464,-0.101688,-0.926316,0.362765,0.240161,0.613373,1.909268,-18.552902,-32.098328,30.805969,,,,,,
1478385046.79,-2.803537,1.101274,-0.580737,4.990024,-0.708290,1.018166,-0.150060,-0.891784,0.426852,-0.705287,3.867950,2.489210,-14.571075,-28.792984,36.160889,,,,,,
1478385046.81,-2.866370,0.994668,-0.493529,5.835032,1.642238,-0.788079,-0.148051,-0.838578,0.524278,-0.530981,-0.332992,2.978041,-16.647476,-22.339340,39.795746,,,,,,
1478385046.83,-2.865331,0.926003,-0.439399,1.472575,1.889238,-0.367620,-0.163938,-0.799224,0.578244,-0.546786,-3.032808,0.488208,-16.647476,-22.339340,39.795746,,,,,,
1478385046.85,-2.863882,0.889876,-0.437399,1.453796,-0.507496,1.064919,-0.172583,-0.776994,0.605389,0.814947,-4.068252,0.027500,-18.510162,-19.263321,40.817932,,,,,,
1478385046.87,-2.873765,0.858151,-0.453222,1.143097,-0.920736,0.425394,-0.173030,-0.756635,0.630527,1.233882,-1.488955,-0.237888,-19.179535,-17.913025,41.107178,,,,,,
1478385046.89,-2.914710,0.837192,-0.433797,1.333542,-1.921976,-0.461683,-0.150610,-0.742766,0.652392,0.906484,-1.358751,-1.715213,-19.324463,-16.411911,42.226227,,,,,,
1478385046.91,-2.955648,0.794977,-0.412743,2.991200,-0.594683,-0.369674,-0.129468,-0.713848,0.688229,-0.558597,-1.159855,-2.246381,-16.618408,-14.535309,43.822662,,,,,,
1478385046.93,-2.963474,0.716665,-0.382127,4.644198,1.556483,-0.181386,-0.133592,-0.656874,0.742072,-0.532637,-0.245791,-2.391425,-16.618408,-14.535309,43.822662,,,,,,
1478385046.95,-2.924453,0.601764,-0.376807,6.120973,1.981453,1.610891,-0.177593,-0.566097,0.804981,0.585949,-0.660999,-2.072712,-17.429535,-11.234665,44.479645,,,,,,
1478385046.97,-2.911681,0.482715,-0.384338,5.427006,-0.554856,1.487317,-0.201853,-0.464185,0.862431,1.048624,-1.393252,-2.714253,-18.756210,-5.984467,44.675629,,,,,,
1478385046.99,-2.943018,0.373708,-0.396780,5.161401,-2.457698,2.089553,-0.183657,-0.365070,0.912685,1.175600,-1.627621,-1.952648,-20.005188,-0.284714,44.421021,,,,,,
1478385047.01,-2.991174,0.274694,-0.428277,4.264496,-3.041421,2.278703,-0.144234,-0.271253,0.951640,0.878166,-1.140338,-1.693110,-17.354889,5.265076,44.205902,,,,,,
1478385047.03,-3.054931,0.194045,-0.461409,3.559130,-4.105618,2.020303,-0.084929,-0.192830,0.977550,0.581404,-1.513805,-0.976467,-17.354889,5.265076,44.205902,,,,,,
1478385047.05,3.127998,0.140963,-0.494558,1.682449,-6.099544,1.486958,0.013460,-0.140497,0.989990,0.033186,-1.637015,-0.064620,-10.937988,14.489792,43.942383,,,,,,
1478385047.07,3.026286,0.140382,-0.504715,-0.783268,-3.425237,-0.231203,0.113919,-0.139922,0.983587,-0.728696,-1.803178,2.322336,-6.277115,16.889771,43.906799,,,,,,
1478385047.09,3.020047,0.174034,-0.471669,-2.753811,1.738657,-1.655318,0.119415,-0.173157,0.977628,-0.998901,-0.329697,1.693621,-0.875061,17.414978,44.109253,,,,,,
1478385047.11,3.076877,0.256563,-0.441201,-5.070710,3.469930,-0.718648,0.062554,-0.253757,0.965243,-0.716133,-0.162197,1.570676,-1.408600,15.690491,44.634094,,,,,,
,,,,,,,,,,,,,,,,37.354533,-122.033307,39.294861,3.020000,359.296875,1478385047.00
1478385047.13,3.137910,0.379986,-0.432203,-6.867449,3.020008,-0.036016,0.003420,-0.370908,0.928663,-0.502062,0.223676,1.341921,-1.408600,15.690491,44.634094,,,,,,
1478385047.15,-3.088934,0.535891,-0.433933,-8.311396,2.739827,-0.260462,-0.045256,-0.510608,0.858622,-0.088609,0.531680,0.987783,-7.155563,6.093002,47.155396,,,,,,
1478385047.17,-3.027169,0.717245,-0.437835,-9.535205,3.077651,-0.808694,-0.086044,-0.657311,0.748691,0.080917,0.942803,0.868404,-10.564529,-1.482071,47.069031,,,,,,
1478385047.19,-2.958358,0.927044,-0.450492,-10.742237,2.863308,-1.312473,-0.109363,-0.799849,0.590154,0.059360,1.263472,1.113292,-12.474091,-9.809021,45.124908,,,,,,
1478385047.21,-2.877831,1.136914,-0.497373,-10.345230,1.171345,-0.951037,-0.109603,-0.907341,0.405857,0.069641,1.820930,1.166225,-14.687485,-19.487457,41.681824,,,,,,
1478385047.23,-2.726022,1.317454,-0.667532,-8.772458,-1.169545,-0.074360,-0.101187,-0.968080,0.229308,0.120932,2.467851,0.974748,-14.687485,-19.487457,41.681824,,,,,,
1478385047.25,-2.339162,1.452737,-1.081957,-7.014733,-0.709760,-1.169444,-0.084693,-0.993039,0.081856,0.194205,1.752179,1.533073,-15.692902,-28.118073,36.072632,,,,,,
1478385047.27,-0.949482,1.509348,-2.461050,-5.009249,1.684230,-1.933975,-0.049933,-0.998113,-0.035747,0.075431,0.808827,2.393352,-13.547623,-38.103226,25.924011,,,,,,
1478385047.29,-0.054660,1.475413,2.977855,-1.413875,2.878655,-2.134914,-0.005203,-0.995454,-0.095096,-0.561676,1.180971,1.636295,-12.730087,-41.257706,21.441711,,,,,,
1478385047.31,0.416169,1.480844,2.551039,1.512703,1.806071,-1.453257,0.036315,-0.995957,-0.082164,-0.949996,1.035493,1.104381,-12.432236,-42.610321,18.823669,,,,,,
1478385047.33,0.525882,1.512685,2.451945,1.314911,-0.392953,1.755233,0.029154,-0.998312,-0.050231,-0.482584,0.636053,0.791732,-12.432236,-42.610321,18.823669,,,,,,
1478385047.35,-0.995823,1.508560,-2.362429,0.943536,-4.252046,4.957785,-0.052195,-0.998064,-0.033823,-0.151723,1.028673,1.406290,-11.532593,-42.384415,19.732056,,,,,,
1478385047.37,-2.392604,1.381652,-0.980100,11.940925,4.464220,2.253981,-0.128022,-0.982165,0.137701,0.319092,2.570529,2.244761,-14.680496,-40.806076,23.070801,,,,,,
1478385047.39,-2.651556,1.282066,-0.617742,5.714710,0.802518,-1.821586,-0.134013,-0.958606,0.251226,-1.215612,-6.048184,-0.088888,-19.010925,-34.424988,29.158386,,,,,,
1478385047.41,-2.878303,1.196419,-0.452025,3.513573,-5.250301,0.455042,-0.095175,-0.930735,0.353091,0.239706,-0.155736,-0.497699,-18.401886,-31.346756,32.380249,,,,,,
1478385047.43,-2.813538,1.138127,-0.561357,2.850862,-1.009104,3.114175,-0.135098,-0.907850,0.396935,-0.305805,2.449445,1.804786,-18.401886,-31.346756,32.380249,,,,,,
1478385047.45,-2.850748,1.057037,-0.548401,4.859025,-0.991589,-0.241403,-0.140930,-0.870903,0.470814,-1.050186,1.326134,3.167461,-16.369812,-28.568146,35.992188,,,,,,
1478385047.47,-2.903096,0.966033,-0.466149,3.626411,2.908047,-1.070463,-0.134319,-0.822637,0.552474,-0.416050,-1.208186,2.173021,-16.361130,-26.016281,37.859680,,,,,,
1478385047.49,-2.887210,0.948069,-0.419173,1.286890,1.817217,-0.718544,-0.146774,-0.812291,0.564483,0.078491,-6.251827,0.322495,-18.218307,-21.213760,40.376709,,,,,,
1478385047.51,-2.870383,0.927009,-0.433936,0.906844,-0.635898,1.198275,-0.160799,-0.799828,0.578289,1.310488,-1.667838,-0.618557,-18.963898,-20.088318,40.815857,,,,,,
1478385047.53,-2.898271,0.905870,-0.445377,1.278192,-2.977933,0.122988,-0.148653,-0.786962,0.598826,1.508226,-1.334589,-1.965769,-18.963898,-20.088318,40.815857,,,,,,
1478385047.55,-2.974006,0.854781,-0.446525,3.315778,-3.516159,0.881495,-0.109487,-0.754427,0.647188,-0.383174,-1.045072,-2.585207,-19.262085,-19.562958,41.186310,,,,,,
1478385047.57,-3.019399,0.762930,-0.441718,5.184609,-1.269832,0.304362,-0.088104,-0.691042,0.717425,-1.004669,-0.104521,-2.374255,-16.859070,-18.436584,42.556976,,,,,,
1478385047.59,-3.026161,0.642250,-0.442787,6.759868,-0.427186,1.210100,-0.092227,-0.598998,0.795421,-0.047696,-0.361100,-1.851314,-13.528687,-10.558197,45.941620,,,,,,
1478385047.61,-3.026929,0.496953,-0.461216,6.928285,-0.344699,1.452083,-0.100573,-0.476749,0.873267,0.225741,-0.794186,-1.864570,-13.722717,-3.432480,46.668304,,,,,,
1478385047.63,-3.019198,0.371822,-0.468078,5.594231,0.542756,1.033382,-0.113747,-0.363313,0.924697,0.157753,-1.930037,-1.879669,-13.722717,-3.432480,46.668304,,,,,,
1478385047.65,-2.992847,0.268909,-0.484458,4.773679,1.319240,1.793739,-0.142872,-0.265680,0.953416,0.549320,-1.588156,-1.391892,-12.491211,3.467224,46.359924,,,,,,
1478385047.67,-2.968719,0.173550,-0.514323,4.197316,0.252600,2.280208,-0.169430,-0.172680,0.970296,0.964138,-1.433811,-1.626836,-12.840210,8.866074,45.215210,,,,,,
1478385047.69,-2.997496,0.103886,-0.535227,2.632188,-2.819457,1.173902,-0.142824,-0.103699,0.984301,0.764483,-1.933090,-1.612825,-13.023315,17.188126,42.263428,,,,,,
1478385047.71,-3.080740,0.075753,-0.543709,0.300576,-4.390315,0.109923,-0.060640,-0.075680,0.995286,-0.396727,-2.349536,0.075102,-9.562897,19.437927,42.066284,,,,,,
1478385047.73,-3.108110,0.099841,-0.511925,-1.950559,1.186959,-2.798649,-0.033310,-0.099675,0.994462,-1.680450,-2.172435,2.774672,-9.562897,19.437927,42.066284,,,,,,
1478385047.75,-3.069495,0.180454,-0.451948,-4.790348,2.400749,-2.853672,-0.070865,-0.179476,0.981207,-1.390515,-0.177198,1.633372,-6.638611,19.438400,42.545532,,,,,,
1478385047.77,-3.035729,0.300426,-0.422277,-6.531631,1.851661,-1.646621,-0.100933,-0.295927,0.949863,-0.451466,0.216322,1.726422,-9.578430,16.439285,43.425110,,,,,,
1478385047.79,-3.008614,0.457413,-0.397116,-8.235629,1.931265,-2.578893,-0.118956,-0.441628,0.889277,-0.060899,0.663552,1.445226,-12.076462,11.715469,44.614349,,,,,,
1478385047.81,-2.983914,0.644873,-0.351121,-9.503238,2.720582,-3.639871,-0.125492,-0.601097,0.789262,-0.206524,0.781624,1.383391,-15.973038,-3.958847,45.297363,,,,,,
1478385047.83,-2.977121,0.852567,-0.288880,-9.925834,2.118020,-4.014074,-0.107743,-0.752972,0.649172,-0.394423,1.050473,1.090788,-15.973038,-3.958847,45.297363,,,,,,
1478385047.85,-3.010125,1.062083,-0.217601,-10.151102,0.654543,-3.269528,-0.063847,-0.873372,0.482851,-0.549175,1.613683,1.216948,-17.513107,-13.711380,42.761261,,,,,,
1478385047.87,-3.096623,1.258816,-0.146794,-9.101768,-2.150921,-1.547781,-0.013799,-0.951728,0.306634,-0.592265,2.371222,1.115730,-17.623932,-23.090622,38.513306,,,,,,
1478385047.89,3.122383,1.414066,-0.132533,-7.047839,-2.310649,0.249234,0.002998,-0.987743,0.156061,-0.257057,1.840999,1.247549,-16.754272,-31.495621,33.522156,,,,,,
1478385047.91,-3.132813,1.538839,-0.187327,-5.778347,-0.630930,0.128921,-0.000281,-0.999489,0.031951,-0.110987,1.059502,1.531235,-13.175568,-39.229645,24.506165,,,,,,
1478385047.93,0.130120,1.506281,2.844014,-4.132415,1.255337,-0.683575,0.008365,-0.997920,-0.063926,-0.135685,0.856822,1.866385,-13.175568,-39.229645,24.506165,,,,,,
1478385047.95,0.288609,1.461423,2.725687,-0.689018,2.237453,-1.101184,0.031068,-0.994025,-0.104641,-0.530305,1.243048,1.461834,-13.179077,-41.484055,20.087891,,,,,,
1478385047.97,0.603514,1.470206,2.453241,1.783103,2.090345,-0.966940,0.056993,-0.994945,-0.082681,-0.705964,1.006343,1.068094,-13.105453,-42.611526,17.617065,,,,,,
1478385047.99,0.934039,1.494275,2.153830,1.372900,1.220986,0.616562,0.061465,-0.997074,-0.045454,-0.846026,0.530048,0.489027,-13.181351,-42.686157,17.991516,,,,,,
1478385048.01,0.762378,1.542302,2.324977,1.371570,-1.158451,3.043880,0.019677,-0.999594,-0.020604,-0.533837,0.667471,1.267080,-12.505325,-42.160248,18.896606,,,,,,
1478385048.03,-2.620782,1.442239,-0.624103,11.186448,-1.948577,4.487305,-0.063792,-0.991748,0.111206,0.062282,1.700824,-0.402100,-12.505325,-42.160248,18.896606,,,,,,
1478385048.05,-2.745243,1.283971,-0.451586,6.717179,2.450794,0.322648,-0.109218,-0.959147,0.260977,-0.518284,-3.626074,2.304499,-17.822769,-38.103119,26.031311,,,,,,
1478385048.07,-2.848598,1.185442,-0.342726,4.528006,-2.341469,0.568489,-0.108564,-0.926665,0.359869,0.068815,-1.366868,0.478297,-20.130280,-32.849030,30.117493,,,,,,
1478385048.09,-2.807136,1.130502,-0.463202,2.362139,-2.003872,3.953617,-0.139905,-0.904626,0.402589,-0.002124,1.881341,1.909331,-19.968414,-29.170883,33.258057,,,,,,
1478385048.11,-2.794212,1.050911,-0.517160,4.086701,-1.843973,1.438785,-0.169122,-0.867876,0.467106,-0.812445,2.156618,2.523433,-19.061768,-26.843338,35.810120,,,,,,
,,,,,,,,,,,,,,,,37.354571,-122.033304,40.193176,3.710000,3.867188,1478385048.00
1478385048.13,-2.835054,0.953333,-0.467317,5.214084,1.241161,-0.151263,-0.174710,-0.815350,0.551979,-0.559238,-0.908848,2.866920,-19.061768,-26.843338,35.810120,,,,,,
1478385048.15,-2.820765,0.910968,-0.442425,0.414071,0.651735,0.064202,-0.193305,-0.790097,0.581704,-1.308053,-3.984729,-0.424798,-19.109039,-19.339310,39.837128,,,,,,
1478385048.17,-2.812296,0.889820,-0.451805,0.533555,0.067125,1.022245,-0.203583,-0.776959,0.595726,0.725891,-2.467167,0.012169,-22.033554,-19.189194,39.957458,,,,,,
1478385048.19,-2.801238,0.871926,-0.471847,0.427228,-0.232756,0.518008,-0.214765,-0.765569,0.606449,1.273267,-1.545954,-0.438724,-21.276474,-17.538956,40.185059,,,,,,
1478385048.21,-2.834920,0.861873,-0.462465,0.874339,-2.465077,-0.240593,-0.196534,-0.759063,0.620643,0.917878,-1.370759,-2.129127,-21.349869,-17.088654,40.482971,,,,,,
1478385048.23,-2.901499,0.821327,-0.448486,2.886692,-2.337647,0.061349,-0.161997,-0.732051,0.661709,-0.193258,-0.955251,-2.553249,-21.349869,-17.088654,40.482971,,,,,,
1478385048.25,-2.939668,0.743202,-0.431933,4.466560,-0.760138,0.666753,-0.147670,-0.676649,0.721346,-0.170674,-0.078646,-2.379472,-20.300583,-16.862518,41.617828,,,,,,
1478385048.27,-2.940405,0.624302,-0.444859,6.501115,-0.643210,2.225169,-0.162139,-0.584531,0.795006,0.381408,-0.414111,-1.909783,-18.105316,-11.384598,44.548340,,,,,,
1478385048.29,-2.963220,0.485959,-0.468286,6.393992,-2.513218,2.043549,-0.156887,-0.467057,0.870198,0.661495,-1.071471,-2.365117,-16.876053,-4.633850,45.290375,,,,,,
1478385048.31,-3.016799,0.364364,-0.484040,5.683383,-3.026934,1.603914,-0.116298,-0.356355,0.927084,0.545803,-1.786101,-1.907797,-14.822372,1.741150,45.291779,,,,,,
1478385048.33,-3.057309,0.249962,-0.509218,5.439526,-1.946918,1.867156,-0.081567,-0.247367,0.965482,0.294488,-1.294244,-1.582762,-14.822372,1.741150,45.291779,,,,,,
1478385048.35,-3.084745,0.147199,-0.537573,4.708685,-1.708017,1.637900,-0.056202,-0.146668,0.987588,0.106266,-1.410781,-1.235055,-11.796173,7.666473,45.604248,,,,,,
1478385048.37,-3.132387,0.069646,-0.559719,3.180453,-3.166113,0.918592,-0.009184,-0.069590,0.997533,-0.267550,-2.226431,-0.357412,-7.172836,17.563919,43.070831,,,,,,
1478385048.39,3.078637,0.037509,-0.561582,0.705537,-3.130282,-0.578201,0.062870,-0.037500,0.997317,-0.997257,-2.396170,1.771512,-4.006897,20.712753,41.893005,,,,,,
1478385048.41,3.067236,0.052170,-0.533107,-1.990691,1.076602,-1.403620,0.074187,-0.052146,0.995880,-0.979171,-0.764183,1.508865,-1.828323,21.387405,41.537750,,,,,,
1478385048.43,3.110908,0.123914,-0.510810,-4.536654,2.381720,-0.695026,0.030445,-0.123597,0.991865,-0.531818,-0.394210,1.909502,-1.828323,21.387405,41.537750,,,,,,
1478385048.45,-3.137294,0.241797,-0.501120,-6.744076,1.629976,-0.316302,-0.004173,-0.239448,0.970900,-0.153480,0.263801,1.667360,-3.561966,19.813431,42.575195,,,,,,
1478385048.47,-3.107159,0.401268,-0.492895,-8.581730,1.773827,-0.742199,-0.031692,-0.390586,0.920021,0.122528,0.713004,1.280220,-5.756744,15.990158,44.289703,,,,,,
1478385048.49,-3.063787,0.588640,-0.481172,-9.760963,2.876256,-1.168586,-0.064645,-0.555230,0.829181,0.082742,1.116204,0.900403,-8.899933,1.742859,47.001007,,,,,,
1478385048.51,-2.997388,0.805541,-0.476699,-11.329272,3.774603,-1.495781,-0.099548,-0.721206,0.685531,-0.071961,1.556731,0.866349,-11.488861,-7.182953,46.176910,,,,,,
1478385048.53,-2.906911,1.032903,-0.501385,-11.094028,2.950028,-1.276477,-0.119133,-0.858790,0.498284,-0.082542,2.100810,1.109275,-11.488861,-7.182953,46.176910,,,,,,
1478385048.55,-2.794321,1.240952,-0.602764,-10.207268,-0.260872,-0.837166,-0.110233,-0.946093,0.304561,0.029376,2.653704,0.829015,-14.982513,-18.061493,42.649597,,,,,,
1478385048.57,-2.542659,1.411128,-0.885675,-8.259156,-1.201182,-0.925043,-0.089633,-0.987280,0.131316,0.336062,1.881399,1.428544,-15.915405,-27.217026,37.117676,,,,,,
1478385048.59,-1.489215,1.509323,-1.930977,-5.789220,2.161975,-1.725632,-0.061231,-0.998111,-0.005006,0.323148,1.044925,2.518632,-13.547623,-38.178436,25.699280,,,,,,
1478385048.61,-0.180586,1.500946,3.120316,-1.554490,4.622820,-2.591875,-0.012535,-0.997561,-0.068659,-0.354606,1.197513,1.825372,-13.105103,-41.332932,21.213196,,,,,,
1478385048.63,0.635994,1.491246,2.392854,0.901209,4.293412,-2.437862,0.047202,-0.996837,-0.063930,-0.711874,0.898830,0.862605,-13.105103,-41.332932,21.213196,,,,,,
1478385048.65,0.956851,1.491959,2.120047,1.073244,0.965545,0.579055,0.064373,-0.996894,-0.045371,-0.774182,0.312537,0.344931,-13.556091,-42.310181,18.961548,,,,,,
1478385048.67,1.180071,1.556202,1.877751,1.864110,-1.453468,3.376248,0.013494,-0.999893,-0.005558,-0.635274,1.111725,1.594135,-12.581558,-42.535553,18.597046,,,,,,
1478385048.69,-2.533307,1.494107,-0.724067,7.611210,-1.706488,2.109854,-0.043782,-0.997061,0.062872,-0.396236,2.444754,0.522837,-15.424744,-39.982422,21.710999,,,,,,
1478385048.71,-2.742454,1.294764,-0.426298,6.131042,4.973417,2.734655,-0.105916,-0.962144,0.251118,-1.220973,-3.345641,3.748394,-19.012161,-34.800278,28.859436,,,,,,
1478385048.73,-2.774811,1.186797,-0.396517,5.800081,-2.690683,1.309090,-0.134348,-0.927174,0.349714,0.038400,-3.178814,1.345675,-19.012161,-34.800278,28.859436,,,,,,
1478385048.75,-2.780756,1.118713,-0.464074,-0.042209,-1.586865,3.434533,-0.154230,-0.899539,0.408709,0.062646,1.039783,2.421568,-21.021683,-30.597992,31.151794,,,,,,
1478385048.77,-2.751038,1.064775,-0.519450,3.121025,-1.241639,0.977204,-0.184527,-0.874680,0.448202,-0.636900,2.575424,2.393946,-19.886215,-26.918945,35.202148,,,,,,
1478385048.79,-2.816246,0.977799,-0.440586,5.349659,0.789647,-0.918328,-0.178629,-0.829269,0.529532,-0.511709,-0.620422,2.810282,-20.405548,-25.267746,36.391968,,,,,,
1478385048.81,-2.806659,0.932230,-0.386989,0.353733,2.808942,-0.671453,-0.195924,-0.802951,0.562924,-0.100402,-4.101285,0.030307,-22.335266,-19.940308,38.831757,,,,,,
1478385048.83,-2.797136,0.913735,-0.389505,0.536809,-1.109171,1.349158,-0.206256,-0.791790,0.574914,1.901095,-3.300891,-0.654916,-22.335266,-19.940308,38.831757,,,,,,
1478385048.85,-2.813532,0.888650,-0.434146,0.779366,-3.045755,1.202152,-0.203139,-0.776222,0.596837,2.024169,-1.691506,-1.841878,-23.007416,-19.490845,38.298645,,,,,,
1478385048.87,-2.901499,0.852628,-0.434200,2.390084,-4.963124,0.629143,-0.156470,-0.753012,0.639132,-0.234933,-1.697885,-3.159899,-22.929825,-18.439423,39.721222,,,,,,
1478385048.89,-2.973280,0.787517,-0.421452,3.651396,-1.713662,-0.110825,-0.118203,-0.708603,0.695636,-0.591743,0.140183,-2.303882,-19.629959,-17.687057,42.076996,,,,,,
1478385048.91,-2.975631,0.699232,-0.405031,5.091488,1.534525,0.414526,-0.126434,-0.643630,0.754821,-0.380524,0.356643,-1.561675,-16.003555,-10.934418,44.718018,,,,,,
1478385048.93,-2.934072,0.575825,-0.400772,6.400806,2.272980,1.346226,-0.172810,-0.544527,0.820748,0.414143,-0.979002,-1.594933,-16.003555,-10.934418,44.718018,,,,,,
1478385048.95,-2.906920,0.455530,-0.404802,5.387376,0.515297,1.559723,-0.208814,-0.439938,0.873414,1.022443,-1.742450,-2.031907,-17.776047,-4.859528,44.607086,,,,,,
1478385048.97,-2.919357,0.347041,-0.427139,5.019925,-2.210804,2.774928,-0.207271,-0.340116,0.917257,1.310787,-1.469454,-1.661260,-19.398422,1.140060,44.197845,,,,,,
1478385048.99,-2.985510,0.236896,-0.478500,4.751103,-4.920328,3.739271,-0.151108,-0.234687,0.960254,1.512604,-1.130303,-1.873554,-19.075134,6.239822,43.960785,,,,,,
1478385049.01,-3.090528,0.150064,-0.533092,3.640676,-6.246761,2.745400,-0.050469,-0.149501,0.987473,0.419502,-1.359364,-1.010391,-14.325195,11.714630,43.766846,,,,,,
1478385049.03,3.069362,0.095403,-0.574948,1.982006,-6.111688,1.618906,0.071840,-0.095258,0.992857,-0.454988,-1.855014,0.651217,-14.325195,11.714630,43.766846,,,,,,
1478385049.05,3.008242,0.089826,-0.587897,-0.084954,-0.699149,-0.317488,0.132420,-0.089705,0.987126,-1.372379,-2.343996,3.345409,-1.090607,19.138840,42.976929,,,,,,
1478385049.07,3.033979,0.114144,-0.549686,-3.175319,2.591692,-1.683529,0.106707,-0.113896,0.987746,-1.632891,0.122075,1.406679,1.609711,19.213867,43.003693,,,,,,
1478385049.09,3.094522,0.214255,-0.527402,-5.884344,3.236876,-0.338119,0.045977,-0.212620,0.976053,-0.722491,-0.029934,1.819022,-1.171799,18.014587,43.729462,,,,,,
1478385049.11,-3.128568,0.343834,-0.521534,-6.795789,3.143761,-0.255555,-0.012262,-0.337099,0.941389,0.021509,0.828799,1.603487,-3.517242,14.041306,45.442932,,,,,,
,,,,,,,,,,,,,,,,37.354609,-122.033298,40.252808,3.740000,6.679688,1478385049.00
1478385049.13,-3.069135,0.495254,-0.503124,-8.069400,3.586914,-1.796148,-0.063696,-0.475255,0.877539,0.324851,1.169790,0.787759,-3.517242,14.041306,45.442932,,,,,,
1478385049.15,-3.012899,0.680574,-0.468519,-9.631413,3.650877,-2.563680,-0.099746,-0.629239,0.770785,0.094772,1.188443,0.385572,-10.105515,0.542999,47.142548,,,,,,
1478385049.17,-2.975468,0.896519,-0.444285,-10.984755,1.959065,-2.268325,-0.103241,-0.781158,0.615738,-0.085800,1.262024,0.596924,-13.292892,-8.233429,45.712006,,,,,,
1478385049.19,-2.957333,1.116041,-0.469280,-10.787178,-1.690545,-0.643334,-0.080477,-0.898369,0.431807,0.037325,1.630501,0.672365,-14.533096,-18.286789,42.354767,,,,,,
1478385049.21,-2.884925,1.318631,-0.612607,-10.087624,-3.338812,0.511518,-0.063338,-0.968374,0.241328,0.255248,2.352621,1.161473,-13.816910,-27.366470,37.664185,,,,,,
1478385049.23,-2.417741,1.478173,-1.120432,-7.973398,-0.298410,-0.218993,-0.061254,-0.995714,0.069300,0.471792,1.999315,2.510458,-13.816910,-27.366470,37.664185,,,,,,
1478385049.25,-0.624605,1.507145,-2.849083,-4.398376,5.560656,-1.725569,-0.037197,-0.997975,-0.051599,-0.023106,1.468693,3.097512,-11.440063,-34.346985,32.158936,,,,,,
1478385049.27,0.336572,1.478386,2.608418,-0.315359,7.050161,-3.548849,0.030475,-0.995733,-0.087101,-0.929279,1.474783,1.489414,-11.982346,-41.782761,21.375793,,,,,,
1478385049.29,0.895273,1.438780,2.160853,-1.531039,4.514632,-2.105953,0.102724,-0.991298,-0.082311,-1.355959,-0.013661,-1.081034,-11.233963,-42.985306,18.836792,,,,,,
1478385049.31,0.928429,1.452146,2.169869,1.355623,0.644904,2.046723,0.094778,-0.992969,-0.070916,-0.437140,-0.232632,1.259728,-10.259201,-43.511719,17.423157,,,,,,
1478385049.33,0.512551,1.531459,2.562794,2.036970,-2.608723,4.598898,0.019286,-0.999226,-0.034273,0.073136,0.850835,0.558275,-10.259201,-43.511719,17.423157,,,,,,
1478385049.35,-2.007845,1.490393,-1.280731,7.734003,-3.758460,4.211399,-0.072767,-0.996769,0.033995,0.528700,1.581227,0.287401,-12.355789,-42.611282,17.849548,,,,,,
1478385049.37,-2.681940,1.345173,-0.531133,8.087852,6.467564,-1.793236,-0.099248,-0.974655,0.200494,-0.926418,-3.306046,3.125098,-17.747543,-38.028046,26.106812,,,,,,
1478385049.39,-2.913015,1.245253,-0.231973,4.618013,-0.832652,-1.436859,-0.072470,-0.947477,0.311505,-0.571405,-2.302111,0.697727,-19.455261,-33.225143,29.000305,,,,,,
1478385049.41,-2.940776,1.178057,-0.296291,2.813177,-3.636440,4.259800,-0.076341,-0.923864,0.375030,0.020616,1.072515,1.356355,-18.100876,-31.121765,32.382568,,,,,,
1478385049.43,-2.842608,1.077737,-0.441420,4.123658,-2.365010,2.911886,-0.139417,-0.880889,0.452325,-1.203356,3.279647,1.700981,-18.100876,-31.121765,32.382568,,,,,,
1478385049.45,-2.875908,0.982825,-0.435966,5.298285,-0.493548,0.383712,-0.145641,-0.832068,0.535212,-1.082707,-1.016550,3.435766,-17.866516,-27.893311,35.825256,,,,,,
1478385049.47,-2.863589,0.918756,-0.415187,0.352373,2.086549,0.395026,-0.166531,-0.794847,0.583511,-0.919376,-4.096617,0.102432,-18.900940,-23.465424,38.726654,,,,,,
1478385049.49,-2.828604,0.890168,-0.429847,0.875063,0.576661,1.130062,-0.193758,-0.777178,0.598709,1.101000,-2.720259,-0.115876,-20.531876,-18.814178,39.971375,,,,,,
1478385049.51,-2.827506,0.869483,-0.449906,0.621301,-0.898530,0.636225,-0.199340,-0.763996,0.613657,1.806868,-1.835492,-0.575922,-20.827148,-17.613724,40.414764,,,,,,
1478385049.53,-2.870312,0.848071,-0.453799,1.415555,-3.839698,0.369889,-0.177241,-0.750006,0.637242,1.142100,-1.268686,-2.566395,-20.827148,-17.613724,40.414764,,,,,,
1478385049.55,-2.964593,0.795773,-0.447902,3.236593,-3.440812,0.141239,-0.123207,-0.714405,0.688800,-0.621529,-0.409298,-2.068515,-21.127029,-17.237671,41.460663,,,,,,
1478385049.57,-2.981235,0.710738,-0.432285,4.801467,1.256478,0.357746,-0.121012,-0.652393,0.748157,-0.655645,-0.035702,-2.113407,-18.275833,-16.411011,43.136749,,,,,,
1478385049.59,-2.942984,0.596301,-0.427357,6.220673,1.937541,1.274521,-0.163254,-0.561586,0.811153,0.216416,-0.689330,-1.812069,-17.117844,-8.383911,45.224182,,,,,,
1478385049.61,-2.924160,0.463303,-0.434913,6.299665,-0.167890,1.782778,-0.192982,-0.446905,0.873518,0.851292,-1.223108,-1.959394,-18.286942,-1.634247,44.892242,,,,,,
1478385049.63,-2.953259,0.346134,-0.446795,5.236178,-2.346329,1.806988,-0.176118,-0.339264,0.924058,1.362275,-1.747848,-1.939667,-18.286942,-1.634247,44.892242,,,,,,
1478385049.65,-3.006244,0.245881,-0.477039,4.463146,-3.447689,2.485335,-0.130878,-0.243411,0.961053,1.072314,-1.324200,-1.653954,-17.883255,4.665512,44.652405,,,,,,
1478385049.67,-3.076525,0.159016,-0.518188,3.845331,-4.203420,2.302686,-0.064201,-0.158347,0.985294,0.387062,-1.212518,-1.208820,-14.559982,9.690079,44.220581,,,,,,
1478385049.69,3.116517,0.099673,-0.553415,2.256439,-5.093666,1.436325,0.024948,-0.099508,0.994724,-0.278427,-1.998026,-0.406147,-10.339005,14.264801,43.949036,,,,,,
1478385049.71,3.028636,0.090863,-0.564108,-0.321743,-3.143610,-0.131240,0.112251,-0.090738,0.989528,-1.230751,-2.510977,2.557316,-1.539597,19.363831,42.971771,,,,,,
1478385049.73,3.032185,0.108849,-0.526099,-2.265776,2.345058,-2.335431,0.108543,-0.108635,0.988138,-1.707878,-0.165429,1.715261,-1.539597,19.363831,42.971771,,,,,,
1478385049.75,3.108287,0.189176,-0.484499,-5.163575,4.497630,-1.413571,0.032706,-0.188050,0.981615,-0.933569,-0.182403,1.815687,-0.643417,18.689377,43.507721,,,,,,
1478385049.77,-3.106523,0.317790,-0.462711,-7.070738,3.170582,-0.961118,-0.033307,-0.312468,0.949344,-0.416461,0.266554,1.611371,-3.805328,16.290100,44.233307,,,,,,
1478385049.79,-3.057951,0.478327,-0.449569,-8.434706,2.496997,-1.269844,-0.074168,-0.460295,0.884663,0.041148,0.724852,1.212322,-7.580826,11.116577,45.711090,,,,,,
1478385049.81,-3.015026,0.663043,-0.434202,-9.576579,2.548412,-1.789874,-0.099484,-0.615518,0.781819,0.097440,1.043313,0.776043,-13.427216,-4.633057,46.074860,,,,,,
1478385049.83,-2.986002,0.879098,-0.423864,-11.284112,1.138175,-1.931345,-0.098843,-0.770164,0.630141,-0.023105,1.217124,0.784150,-13.427216,-4.633057,46.074860,,,,,,
1478385049.85,-2.983039,1.112566,-0.436352,-11.584840,-1.343101,-1.144856,-0.069844,-0.896837,0.436813,0.058660,1.342332,1.179810,-14.365509,-14.010666,43.468597,,,,,,
1478385049.87,-2.911391,1.332407,-0.558279,-10.678975,-2.279343,0.592468,-0.053880,-0.971720,0.229908,0.390947,1.911768,1.697414,-14.107437,-24.664688,39.453125,,,,,,
1478385049.89,-2.269789,1.490930,-1.226885,-8.174595,0.054745,-0.071998,-0.061072,-0.996812,0.051335,0.361090,2.196794,1.945399,-12.334183,-32.620728,33.419739,,,,,,
1478385049.91,-0.327473,1.477601,-3.123943,-6.050375,4.019295,-2.052140,-0.029933,-0.995660,-0.088115,0.087428,1.112375,2.111385,-11.457245,-41.858063,21.081238,,,,,,
1478385049.93,0.182794,1.401104,2.755478,-2.511966,5.626835,-2.401621,0.030699,-0.985637,-0.166066,-0.327680,0.708766,1.448582,-11.457245,-41.858063,21.081238,,,,,,
1478385049.95,0.495600,1.381678,2.516037,0.465773,2.762323,-2.025031,0.089402,-0.982170,-0.165374,-0.743149,0.602562,0.104400,-11.533630,-43.963455,15.686768,,,,,,
1478385049.97,0.589025,1.389250,2.445842,1.601282,0.453356,0.675838,0.100305,-0.983566,-0.150125,-0.884805,0.028945,1.266564,-10.933975,-44.414581,14.569153,,,,,,
1478385049.99,0.565134,1.461460,2.471324,3.911350,-0.273593,2.968555,0.058436,-0.994029,-0.092153,-0.622264,1.102549,0.957143,-10.709427,-44.339050,15.096130,,,,,,
1478385050.01,-0.864884,1.546000,-2.412916,3.298532,-2.041476,3.899632,-0.018868,-0.999693,-0.016084,-0.459998,1.459638,1.329012,-12.508148,-43.211517,17.624817,,,,,,
1478385050.03,-2.578086,1.418442,-0.713954,7.542391,1.591439,2.438312,-0.081066,-0.988417,0.128300,-0.344746,0.319166,1.709926,-12.508148,-43.211517,17.624817,,,,,,
1478385050.05,-2.743487,1.275863,-0.475983,7.718198,2.107268,0.090625,-0.112687,-0.956821,0.267945,-0.349532,-2.656429,2.033188,-16.618057,-36.827438,26.714539,,,,,,
1478385050.07,-2.841422,1.183118,-0.402393,2.730556,-2.102239,1.575776,-0.111780,-0.925789,0.361137,0.140070,-0.117546,0.604470,-19.001343,-31.873718,30.425842,,,,,,
1478385050.09,-2.729262,1.111119,-0.547555,2.981186,-1.400943,4.638103,-0.177794,-0.896196,0.406475,-0.108262,1.916002,1.063678,-19.219223,-29.170349,33.790527,,,,,,
1478385050.11,-2.744127,1.021441,-0.576934,4.521536,-1.870635,0.842317,-0.202111,-0.852861,0.481435,-0.330757,0.210786,3.111888,-20.032593,-26.093872,35.273193,,,,,,
1478385050.13,-2.817855,0.943498,-0.500292,3.612961,0.787606,-1.098616,-0.186719,-0.809616,0.556469,-0.255084,-0.705368,2.235233,-20.032593,-26.093872,35.273193,,,,,,
,,,,,,,,,,,,,,,,37.354647,-122.033299,40.368530,4.010000,3.867188,1478385050.00
1478385050.15,-2.823482,0.924590,-0.446624,1.297455,1.646497,-1.101350,-0.188340,-0.798374,0.571950,-0.988891,-4.495480,0.613810,-19.332245,-18.889160,39.983582,,,,,,
1478385050.17,-2.776778,0.904970,-0.467288,0.540578,1.282081,1.945608,-0.220384,-0.786406,0.577058,1.049638,-2.493623,-0.351945,-22.185013,-19.564331,39.807068,,,,,,
1478385050.19,-2.738862,0.885047,-0.513641,0.112606,-0.822864,1.135619,-0.248192,-0.773945,0.582589,1.781319,-1.759091,-1.349633,-23.078827,-18.440094,39.044739,,,,,,
1478385050.21,-2.794575,0.872946,-0.515780,1.055174,-3.892669,0.060392,-0.218535,-0.766225,0.604269,0.883086,-0.863765,-2.507407,-22.851105,-17.689651,39.494781,,,,,,
1478385050.23,-2.882556,0.824352,-0.498271,3.443312,-2.912269,-0.082335,-0.173934,-0.734108,0.656379,-0.430329,-0.083061,-2.679511,-22.851105,-17.689651,39.494781,,,,,,
1478385050.25,-2.922683,0.737405,-0.467890,5.073467,0.151881,0.342409,-0.160749,-0.672369,0.722551,-0.582186,0.121069,-2.197297,-21.054169,-17.762833,41.312988,,,,,,
1478385050.27,-2.905850,0.603196,-0.463990,7.222967,1.240243,1.806470,-0.192347,-0.567277,0.800749,0.440608,-0.533690,-1.711622,-18.175598,-10.334595,44.544495,,,,,,
1478385050.29,-2.900284,0.459030,-0.465750,6.644840,-0.925340,1.594370,-0.214236,-0.443078,0.870508,1.188067,-1.453025,-2.397104,-18.668365,-3.209702,44.443176,,,,,,
1478385050.31,-2.953387,0.332124,-0.470688,5.869370,-3.454499,1.826459,-0.176872,-0.326052,0.928659,1.245964,-1.504133,-1.775598,-17.963882,3.239990,44.130890,,,,,,
1478385050.33,-3.018520,0.219064,-0.496605,5.091022,-3.417314,2.144665,-0.119828,-0.217316,0.968718,1.028123,-1.175964,-1.338912,-17.963882,3.239990,44.130890,,,,,,
1478385050.35,-3.079375,0.127309,-0.527473,4.001195,-3.563126,1.802610,-0.061674,-0.126966,0.989988,0.268889,-1.465320,-1.115217,-14.937012,9.315292,44.442902,,,,,,
1478385050.37,3.111100,0.074765,-0.549221,1.622694,-5.507882,0.629611,0.030403,-0.074695,0.996743,-0.497612,-2.251889,0.620536,-7.694336,18.238632,42.763611,,,,,,
1478385050.39,3.036158,0.060812,-0.545716,0.221426,-1.809773,-0.847761,0.105045,-0.060774,0.992609,-1.562259,-2.672029,1.897406,-2.283615,20.413010,42.136139,,,,,,
1478385050.41,3.053245,0.104271,-0.510425,-3.773557,2.484819,-1.607888,0.087754,-0.104082,0.990690,-0.922074,-0.507231,1.607653,-1.160660,19.963013,42.148743,,,,,,
1478385050.43,3.101218,0.201996,-0.484631,-5.619465,1.963078,-0.490691,0.039543,-0.200625,0.978870,-0.350227,-0.369565,1.751294,-1.160660,19.963013,42.148743,,,,,,
1478385050.45,3.112000,0.335388,-0.482436,-7.260588,-0.103812,0.296743,0.027939,-0.329136,0.943869,0.118438,0.140537,1.602853,-3.126266,17.114868,44.012634,,,,,,
1478385050.47,3.102788,0.503717,-0.480446,-9.218145,-0.309410,0.133577,0.033976,-0.482684,0.875135,0.400762,0.574755,1.117617,-5.625427,12.316589,45.727020,,,,,,
1478385050.49,3.107337,0.708960,-0.476318,-10.727393,0.683787,0.313179,0.025996,-0.651045,0.758594,0.476811,0.872236,1.147092,-5.021057,-2.831787,47.353516,,,,,,
1478385050.51,3.130770,0.929199,-0.486199,-11.145516,0.757588,0.814813,0.006477,-0.801141,0.598441,0.484520,1.211785,1.222253,-5.889633,-13.033340,45.800446,,,,,,
1478385050.53,-3.088439,1.157498,-0.539819,-11.641949,0.917612,1.144532,-0.021338,-0.915801,0.401065,0.405112,1.895965,1.325391,-5.889633,-13.033340,45.800446,,,,,,
1478385050.55,-2.943016,1.381795,-0.678010,-10.976270,0.521799,0.230032,-0.037064,-0.982192,0.184186,0.160873,2.065948,1.449588,-7.278458,-23.012375,41.766479,,,,,,
1478385050.57,-1.552762,1.537081,-2.040073,-8.001321,2.573811,-0.522002,-0.033703,-0.999432,-0.000608,0.053525,1.247555,2.529996,-8.583221,-31.718658,35.479553,,,,,,
1478385050.58,-0.073600,1.440777,2.825852,-5.562799,2.803453,-1.353702,-0.009534,-0.991559,-0.129302,-0.250720,0.926114,1.640700,-9.356598,-41.557587,21.551331,,,,,,
1478385050.60,0.182938,1.371137,2.585737,-1.684367,0.341779,-2.551428,0.036081,-0.980134,-0.195026,-0.704706,0.965257,1.218464,-8.459564,-43.812378,16.767090,,,,,,
1478385050.62,0.420546,1.370872,2.373829,1.579310,2.339748,-1.309432,0.081078,-0.980082,-0.181290,-0.835961,0.795359,1.394456,-8.459564,-43.812378,16.767090,,,,,,
1478385050.64,0.542680,1.413695,2.292393,2.629694,1.295618,1.355237,0.080799,-0.987685,-0.133978,-1.064900,1.031920,1.667044,-6.812531,-44.713104,16.036255,,,,,,
1478385050.66,0.297530,1.492881,2.513701,3.072300,-2.457175,3.466502,0.022818,-0.996966,-0.074416,-0.752555,1.909854,1.735335,-5.986069,-43.961823,17.317261,,,,,,
1478385050.68,-2.638297,1.485480,-0.827104,8.244593,4.545266,2.574851,-0.041099,-0.996363,0.074646,-0.650673,-0.479330,-0.266144,-7.634216,-42.684219,19.921936,,,,,,
1478385050.70,-2.888823,1.333349,-0.423859,7.094373,5.302866,-1.888934,-0.058826,-0.971942,0.227747,-0.008435,-3.593320,1.349294,-15.340820,-35.474869,29.273193,,,,,,
1478385050.72,-3.135915,1.240139,-0.264137,4.435917,-8.078669,0.633844,-0.001843,-0.945829,0.324659,0.800076,0.347029,-0.430540,-15.340820,-35.474869,29.273193,,,,,,
1478385050.74,-2.865518,1.140535,-0.608221,3.641362,-0.429256,8.588676,-0.113696,-0.908857,0.401313,0.582293,2.202878,1.368340,-13.908493,-32.545959,33.178772,,,,,,
1478385050.76,-2.786176,1.054135,-0.728806,3.386579,-0.897633,-0.159160,-0.171896,-0.869473,0.463107,-0.174387,1.638302,3.197339,-12.472000,-28.717133,37.006653,,,,,,
1478385050.78,-2.942655,0.996650,-0.520786,4.539879,2.280539,-5.488386,-0.107335,-0.839657,0.532406,-0.606150,-0.522892,2.602375,-14.704391,-24.215378,38.770844,,,,,,
1478385050.80,-2.996501,0.942574,-0.374195,0.602556,2.674286,-1.227942,-0.084973,-0.809074,0.581532,-2.004505,-5.938973,-1.658894,-15.968216,-20.837692,41.448090,,,,,,
1478385050.82,-2.935465,0.908688,-0.430285,1.051532,0.472100,2.763749,-0.125828,-0.788698,0.601767,1.043079,-2.134810,-0.450827,-15.968216,-20.837692,41.448090,,,,,,
1478385050.84,-2.904401,0.884221,-0.473669,0.581044,-0.417737,0.422775,-0.148948,-0.773422,0.616144,2.018775,-1.481385,-1.060556,-16.409973,-19.037781,41.363251,,,,,,
1478385050.86,-2.961360,0.873200,-0.458159,0.864564,-3.355835,-0.141462,-0.115152,-0.766389,0.631972,0.925988,-1.189742,-2.425765,-17.079453,-17.687408,41.727478,,,,,,
1478385050.88,-3.029488,0.831062,-0.452527,2.976750,-2.284888,-0.122021,-0.075411,-0.738648,0.669860,-1.012267,-0.362762,-2.138595,-15.807281,-17.986420,42.716125,,,,,,
1478385050.90,-3.043819,0.747445,-0.431962,4.881590,1.247043,-0.196602,-0.071595,-0.679767,0.729925,-0.635543,0.130085,-2.285559,-14.139725,-13.258942,45.193604,,,,,,
1478385050.92,-3.013243,0.626467,-0.425086,6.747000,1.703973,0.845338,-0.103692,-0.586287,0.803440,0.125313,-0.196901,-1.800037,-14.139725,-13.258942,45.193604,,,,,,
1478385050.94,-2.990077,0.483729,-0.425010,6.870865,0.657220,0.902506,-0.133619,-0.465083,0.875125,0.824675,-1.110784,-2.280261,-14.488358,-7.258514,45.622101,,,,,,
1478385050.96,-2.996759,0.360551,-0.424467,5.600824,-0.829815,1.073564,-0.135048,-0.352790,0.925906,1.140846,-1.788552,-1.906374,-15.506714,-0.283707,45.441010,,,,,,
1478385050.98,-3.021887,0.256794,-0.450002,4.746365,-2.133862,2.407223,-0.115504,-0.253981,0.960288,1.146983,-1.456469,-1.657172,-15.103561,5.865997,45.126587,,,,,,
1478385051.00,-3.078534,0.165059,-0.492108,4.098360,-4.039849,2.330337,-0.062160,-0.164310,0.984448,0.590633,-1.135205,-1.611890,-13.881729,10.515396,44.524872,,,,,,
1478385051.02,3.109835,0.099242,-0.529863,2.558265,-5.429080,1.662483,0.031596,-0.099079,0.994578,-0.263560,-1.794461,-0.327204,-13.881729,10.515396,44.524872,,,,,,
1478385051.04,3.008729,0.078537,-0.544532,0.580137,-3.982534,-0.078507,0.132065,-0.078456,0.988131,-1.237519,-2.685765,2.873136,-4.692932,18.613815,42.942474,,,,,,
1478385051.06,2.995711,0.085599,-0.515276,-1.990321,1.079390,-1.819078,0.144832,-0.085495,0.985756,-1.761272,-0.486481,1.263115,0.337311,19.663483,42.614624,,,,,,
1478385051.08,3.048574,0.155484,-0.482778,-4.431291,3.364792,-0.729384,0.091764,-0.154858,0.983666,-0.752515,-0.385501,2.177055,-0.641403,18.988922,43.056854,,,,,,
