timestamp(unix),attitude_roll(radians),attitude_pitch(radians),attitude_yaw(radians),rotation_rate_x(radians/s),rotation_rate_y(radians/s),rotation_rate_z(radians/s),gravity_x(G),gravity_y(G),gravity_z(G),user_acc_x(G),user_acc_y(G),user_acc_z(G),magnetic_field_x(microteslas),magnetic_field_y(microteslas),magnetic_field_z(microteslas),latitude(degree),longitude(degree),altitude(meter),speed(m/s),course(degree),timestamp(unix)
1478385954.90,2.814775,1.398462,-2.490608,0.000189,0.030133,-0.020011,0.055051,-0.985187,0.162405,0.009219,0.004490,0.007623,3.447266,-1.774261,-16.801575,,,,,,
,,,,,,,,,,,,,,,,37.354341,-122.033455,37.936279,0.000000,170.156250,1478386172.67
,,,,,,,,,,,,,,,,37.354341,-122.033455,37.936279,0.000000,170.156250,1478386172.00
1478385954.92,2.812515,1.398413,-2.487911,-0.005049,0.006884,-0.020089,0.055434,-0.985179,0.162327,0.013002,0.008311,-0.009907,3.073303,-1.474030,-16.581238,,,,,,
1478385954.94,2.809080,1.398502,-2.484759,-0.002807,-0.023966,-0.012691,0.055962,-0.985194,0.162053,0.009605,0.008479,-0.011097,3.598740,-1.474335,-16.875977,,,,,,
1478385954.96,2.807194,1.398489,-2.483351,-0.003868,-0.025024,-0.011628,0.056272,-0.985192,0.161959,-0.003492,0.009362,-0.008013,3.822159,-1.698944,-16.498047,,,,,,
1478385954.98,2.805383,1.398435,-2.481831,-0.001796,-0.007968,-0.013714,0.056583,-0.985183,0.161906,-0.002689,0.016692,-0.004344,3.822159,-1.698944,-16.498047,,,,,,
1478385955.00,2.804591,1.398419,-2.480826,-0.004004,0.015489,-0.014721,0.056716,-0.985180,0.161877,-0.008041,0.011120,0.001072,3.447388,-1.774338,-16.876587,,,,,,
1478385955.02,2.803014,1.398378,-2.478733,-0.002988,0.027142,-0.022166,0.056985,-0.985173,0.161825,0.002265,0.011265,-0.003500,3.146942,-1.774033,-16.579590,,,,,,
1478385955.04,2.800495,1.398236,-2.475764,-0.000812,0.015475,-0.016853,0.057439,-0.985148,0.161813,0.006236,0.016063,-0.009042,3.522827,-1.699402,-16.951050,,,,,,
1478385955.06,2.795296,1.398218,-2.470458,0.005618,0.005053,-0.012584,0.058286,-0.985145,0.161528,0.014774,0.012291,-0.007384,3.972046,-1.774109,-16.646301,,,,,,
1478385955.08,2.791396,1.397976,-2.466392,0.008785,0.015787,-0.008278,0.058997,-0.985104,0.161525,0.009027,0.014538,-0.005137,3.972046,-1.774109,-16.646301,,,,,,
1478385955.10,2.789848,1.397844,-2.464333,0.005544,0.029648,-0.008246,0.059292,-0.985081,0.161555,0.001881,0.013249,-0.006144,3.296051,-1.923874,-16.427673,,,,,,
1478385955.12,2.790417,1.397596,-2.464159,0.001238,0.044597,-0.006075,0.059284,-0.985038,0.161818,0.000317,0.008415,0.002641,2.698410,-1.549332,-16.884705,,,,,,
1478385955.14,2.791995,1.397364,-2.464571,0.000108,0.064869,-0.006021,0.059107,-0.984998,0.162126,-0.007013,0.006620,0.005675,3.448273,-1.624481,-17.026978,,,,,,
1478385955.16,2.793908,1.397417,-2.465095,0.001179,0.063832,-0.003884,0.058779,-0.985007,0.162190,-0.002764,0.003410,-0.003330,3.598389,-1.549332,-16.875732,,,,,,
1478385955.18,2.791334,1.397691,-2.461805,0.006641,0.017875,-0.011481,0.059103,-0.985055,0.161784,0.007562,0.009057,-0.017390,3.598389,-1.549332,-16.875732,,,,,,
1478385955.20,2.787891,1.397814,-2.458274,0.016255,0.005003,-0.020048,0.059618,-0.985076,0.161467,-0.001543,0.014769,-0.017408,3.071503,-1.848953,-16.505066,,,,,,
1478385955.22,2.788503,1.397613,-2.458303,0.022493,0.043383,-0.032714,0.059587,-0.985041,0.161688,-0.014482,0.019587,-0.006994,3.822723,-1.699326,-16.873047,,,,,,
1478385955.24,2.787438,1.397134,-2.455956,0.023459,0.071069,-0.037977,0.059923,-0.984959,0.162067,-0.002825,0.010136,-0.004826,3.523621,-1.474258,-16.801697,,,,,,
1478385955.26,2.784382,1.396402,-2.451015,0.019084,0.104082,-0.042169,0.060671,-0.984832,0.162559,0.006666,0.007750,-0.002342,2.920471,-2.073959,-16.505920,,,,,,
1478385955.28,2.783038,1.395644,-2.447096,0.015812,0.131918,-0.033551,0.061151,-0.984700,0.163176,0.002082,0.010793,0.001939,2.920471,-2.073959,-16.505920,,,,,,
,,,,,,,,,,,,,,,,37.354341,-122.033455,37.942596,0.000000,170.156250,1478386173.00
1478385955.30,2.782136,1.394995,-2.443464,0.010525,0.128927,-0.014339,0.061523,-0.984587,0.163719,0.012497,0.008589,0.004127,3.373962,-1.399261,-16.803406,,,,,,
1478385955.32,2.778445,1.393872,-2.437696,0.046852,0.098166,-0.010092,0.062519,-0.984390,0.164525,0.035930,0.003234,0.016567,3.597824,-1.624176,-16.725464,,,,,,
1478385955.34,2.784642,1.394049,-2.441246,0.007108,0.182993,-0.043045,0.061438,-0.984421,0.164746,-0.038733,0.005127,-0.030209,3.822723,-1.774551,-17.097778,,,,,,
1478385955.36,2.780367,1.392406,-2.431313,0.078958,0.324170,-0.128005,0.062713,-0.984131,0.165994,-0.078231,0.097427,-0.070169,3.221390,-1.848877,-16.428650,,,,,,
1478385955.38,2.775819,1.388737,-2.419274,0.165119,0.323646,-0.202592,0.064758,-0.983473,0.169078,0.039657,0.043577,-0.058330,3.221390,-1.848877,-16.428650,,,,,,
1478385955.40,2.754588,1.383258,-2.395106,0.265006,0.025137,-0.299401,0.070366,-0.982466,0.172652,0.041069,0.034850,-0.065230,3.971924,-1.774033,-16.571350,,,,,,
1478385955.42,2.729078,1.374110,-2.371119,0.368584,-0.127963,-0.463110,0.078347,-0.980720,0.179028,-0.156686,0.017508,-0.103802,4.197266,-1.774246,-16.794067,,,,,,
1478385955.44,2.690824,1.361548,-2.332786,0.431578,0.043355,-0.701856,0.090497,-0.978187,0.186976,-0.260938,-0.000191,-0.074778,4.272385,-1.623871,-16.418823,,,,,,
1478385955.46,2.645944,1.345642,-2.282572,0.475168,0.285032,-0.940442,0.106182,-0.974760,0.196390,-0.290248,0.014097,-0.017451,3.595245,-1.998581,-16.124451,,,,,,
1478385955.48,2.590785,1.325713,-2.219933,0.524896,0.243096,-1.250313,0.126991,-0.970117,0.206752,-0.304527,-0.040885,0.039067,3.595245,-1.998581,-16.124451,,,,,,
1478385955.50,2.525467,1.300299,-2.153638,0.661649,-0.310710,-1.469557,0.154415,-0.963638,0.218077,-0.219723,-0.157044,-0.102492,4.644333,-2.223648,-16.188293,,,,,,
1478385955.52,2.459571,1.267772,-2.097819,0.916116,-0.722694,-1.734148,0.188106,-0.954438,0.231654,-0.183574,-0.128676,-0.286784,4.717972,-2.448410,-15.961853,,,,,,
1478385955.54,2.402771,1.227820,-2.052671,1.111770,-0.677442,-1.860756,0.226465,-0.941758,0.248608,-0.130823,-0.189346,-0.242199,3.962921,-3.347748,-15.291687,,,,,,
1478385955.56,2.361883,1.186592,-2.024545,1.172098,-0.805401,-1.693261,0.263527,-0.927097,0.266542,-0.046516,-0.511502,-0.111742,3.360229,-3.947754,-15.295959,,,,,,
1478385955.58,2.327422,1.149348,-2.016763,1.259440,-1.633560,-1.370587,0.297467,-0.912497,0.280824,-0.071561,-0.898004,-0.118180,3.360229,-3.947754,-15.295959,,,,,,
1478385955.60,2.294519,1.106443,-2.021089,1.682609,-1.820403,-1.600075,0.335591,-0.894111,0.296553,-0.117558,-0.610344,0.193376,4.108185,-4.322510,-15.062378,,,,,,
1478385955.62,2.264889,1.057376,-2.027804,1.666120,-1.811403,-1.913127,0.377522,-0.871070,0.314189,0.087718,-0.741952,0.228627,4.030487,-4.847290,-14.836487,,,,,,
1478385955.64,2.232287,1.004690,-2.023636,1.529268,-1.168377,-2.264176,0.423221,-0.843996,0.329477,0.058971,-0.940153,0.060340,3.200897,-5.596481,-14.017517,,,,,,
1478385955.66,2.212026,0.948107,-2.012471,1.404306,-0.190864,-2.489278,0.467371,-0.812313,0.348872,0.008184,-0.615620,0.016408,4.175446,-5.671387,-13.932617,,,,,,
1478385955.68,2.204241,0.893297,-1.998551,1.243026,0.293665,-2.433736,0.505235,-0.779142,0.371046,0.022582,-0.706728,-0.080076,4.175446,-5.671387,-13.932617,,,,,,
1478385955.70,2.198723,0.842205,-1.985701,1.108714,0.101714,-2.202650,0.538812,-0.746113,0.391148,0.147147,-0.518886,-0.172626,4.547287,-6.120636,-13.177551,,,,,,
1478385955.72,2.189476,0.798313,-1.973746,0.851846,-0.054969,-1.928944,0.568554,-0.716179,0.404764,0.080952,-0.390754,-0.239084,5.215866,-7.019043,-11.593201,,,,,,
1478385955.74,2.180372,0.762113,-1.960809,0.550479,0.053112,-1.631081,0.593092,-0.690451,0.414149,-0.050657,-0.196054,-0.249399,5.961105,-7.768143,-10.683411,,,,,,
1478385955.76,2.175909,0.734286,-1.946855,0.273912,0.404774,-1.317547,0.610504,-0.670057,0.422266,-0.216125,-0.041354,-0.256205,7.383286,-8.292831,-10.367615,,,,,,
1478385955.78,2.179588,0.715161,-1.932913,0.018708,0.772312,-0.932348,0.619346,-0.655739,0.431760,-0.287086,0.045250,-0.291654,7.383286,-8.292831,-10.367615,,,,,,
1478385955.80,2.188036,0.705536,-1.920588,-0.172482,0.809992,-0.488113,0.620795,-0.648442,0.440609,-0.304237,0.121876,-0.347043,7.755234,-8.817368,-9.912354,,,,,,
1478385955.82,2.196136,0.706520,-1.912452,-0.345456,0.543994,0.077118,0.616688,-0.649191,0.445249,-0.340199,0.240881,-0.406217,8.123154,-9.941010,-8.555359,,,,,,
1478385955.84,2.200478,0.719185,-1.909444,-0.541453,0.161873,0.665495,0.608055,-0.658772,0.443045,-0.371528,0.341191,-0.408011,8.870804,-10.390778,-8.321472,,,,,,
1478385955.86,2.199894,0.743427,-1.911377,-0.722488,-0.246085,1.230322,0.595223,-0.676815,0.433164,-0.407708,0.438152,-0.384061,8.868179,-10.915634,-8.169983,,,,,,
1478385955.88,2.195653,0.777451,-1.918063,-0.850856,-0.523941,1.682345,0.578037,-0.701465,0.416918,-0.402728,0.513141,-0.359393,8.868179,-10.915634,-8.169983,,,,,,
1478385955.90,2.191339,0.818747,-1.928703,-0.918121,-0.653753,2.002398,0.555775,-0.730291,0.397228,-0.343433,0.559957,-0.230510,8.790756,-11.515778,-8.318909,,,,,,
1478385955.92,2.190540,0.863034,-1.943616,-0.849194,-0.502740,2.116186,0.529228,-0.759819,0.377615,-0.305030,0.627693,-0.126761,7.662369,-12.341003,-8.552734,,,,,,
1478385955.94,2.200105,0.905012,-1.963050,-0.632193,-0.121001,2.024661,0.499351,-0.786433,0.363556,-0.178824,0.733363,-0.029770,7.133163,-13.391388,-8.929871,,,,,,
1478385955.96,2.221242,0.940150,-1.988938,-0.284911,0.087512,1.773691,0.469265,-0.807646,0.357068,0.007206,0.817580,0.102206,6.082413,-13.616547,-9.089722,,,,,,
1478385955.98,2.249039,0.964988,-2.021625,0.140949,0.000653,1.426955,0.443399,-0.822042,0.357273,0.227011,0.936758,0.253826,6.082413,-13.616547,-9.089722,,,,,,
1478385956.00,2.276465,0.975880,-2.057247,0.591051,-0.138552,0.800192,0.426594,-0.828195,0.363469,0.449184,1.016962,0.393474,6.004929,-14.141464,-9.013916,,,,,,
1478385956.02,2.298604,0.968972,-2.087844,1.051142,-0.145074,0.022094,0.422705,-0.824304,0.376621,0.486596,1.173364,0.421857,5.179611,-14.141251,-8.797180,,,,,,
1478385956.04,2.335583,0.935115,-2.123574,2.312584,0.574702,-1.128696,0.428391,-0.804667,0.411086,0.934051,1.799967,1.799073,5.553146,-14.290710,-8.268005,,,,,,
1478385956.06,2.324745,0.902748,-2.122069,0.843761,-1.274521,-0.753843,0.451578,-0.785032,0.424031,0.111990,-2.947359,-1.892278,5.777023,-14.440414,-7.965271,,,,,,
1478385956.08,2.330801,0.874197,-2.118672,0.753058,1.742550,-1.409191,0.465062,-0.767029,0.442023,0.208766,-0.251892,1.099847,5.777023,-14.440414,-7.965271,,,,,,
1478385956.10,2.330653,0.845734,-2.116464,0.900393,-0.408384,-0.890256,0.480764,-0.748458,0.456812,-0.163762,-0.006257,-0.180612,5.325577,-14.589890,-7.444336,,,,,,
1478385956.12,2.324118,0.819562,-2.115050,0.888682,-0.452161,-0.978008,0.497860,-0.730847,0.466903,0.367680,0.689633,-0.051147,6.374191,-14.814667,-7.208130,,,,,,
1478385956.14,2.321217,0.797613,-2.117219,0.771290,0.090062,-0.662604,0.510824,-0.715691,0.476283,0.031260,0.173439,0.160497,6.600204,-14.589661,-7.206543,,,,,,
1478385956.16,2.326987,0.778980,-2.121074,0.734265,0.082146,-0.509906,0.517679,-0.702554,0.488289,0.071035,-0.327018,0.177299,7.200638,-14.289047,-6.601501,,,,,,
1478385956.18,2.327125,0.761690,-2.127744,0.777563,-0.434668,-0.462105,0.526369,-0.690146,0.496623,0.267332,-0.211801,-0.034022,7.200638,-14.289047,-6.601501,,,,,,
1478385956.20,2.319696,0.744198,-2.134886,0.795291,-0.640432,-0.451956,0.538804,-0.677382,0.500842,0.062300,-0.043962,-0.021213,6.523544,-14.663757,-6.307129,,,,,,
1478385956.22,2.313375,0.727389,-2.141058,0.692246,-0.409478,-0.470732,0.550271,-0.664922,0.505055,-0.068963,0.014959,0.122508,7.349960,-14.363831,-6.374756,,,,,,
1478385956.24,2.307942,0.713039,-2.144185,0.490917,-0.390475,-0.425087,0.560014,-0.654136,0.508420,0.016234,0.045844,0.180286,7.574509,-14.363525,-6.072510,,,,,,
1478385956.26,2.299808,0.703235,-2.144311,0.227000,-0.417780,-0.305958,0.568887,-0.646689,0.508096,0.041983,0.087943,0.227744,7.048752,-14.363007,-5.552856,,,,,,
1478385956.28,2.291452,0.699716,-2.142126,-0.047894,-0.314811,-0.104106,0.574820,-0.644000,0.504823,0.127634,0.143436,0.235427,7.048752,-14.363007,-5.552856,,,,,,
,,,,,,,,,,,,,,,,37.354341,-122.033455,36.964020,0.000000,75.585938,1478386174.00
1478385956.30,2.283502,0.703874,-2.139522,-0.305132,-0.331036,0.225544,0.576783,-0.647176,0.498482,0.229186,0.033605,0.245811,7.350296,-14.138382,-5.925476,,,,,,
1478385956.32,2.275797,0.717071,-2.137175,-0.625523,-0.250285,0.563898,0.574052,-0.657180,0.488445,0.383498,-0.205583,0.234257,8.175797,-13.988220,-5.767639,,,,,,
1478385956.34,2.272498,0.740177,-2.133121,-1.011667,0.086805,0.942375,0.563910,-0.674419,0.476618,0.548288,-0.371434,0.341680,7.725754,-14.138672,-6.221680,,,,,,
1478385956.36,2.273160,0.774898,-2.127572,-1.448620,0.325566,1.323699,0.545385,-0.699643,0.461579,0.742411,-0.807040,0.416030,7.502548,-13.989426,-6.974365,,,,,,
1478385956.38,2.274064,0.817317,-2.116158,-1.759153,0.496339,1.334313,0.521847,-0.729313,0.442469,0.594013,-1.578808,0.268728,7.502548,-13.989426,-6.974365,,,,,,
1478385956.40,2.267903,0.857645,-2.102593,-1.531483,-0.120944,1.221895,0.501593,-0.756304,0.420011,-0.093161,-2.014936,-0.404401,7.804245,-13.689651,-7.197205,,,,,,
1478385956.42,2.251687,0.895518,-2.100665,-1.124944,-1.118718,1.627995,0.485722,-0.780533,0.393501,-0.770482,-1.837662,-0.492042,7.053482,-13.990036,-7.578857,,,,,,
1478385956.44,2.225437,0.933697,-2.110517,-0.885988,-1.940013,1.495803,0.471888,-0.803825,0.362199,-1.148691,-1.489266,-0.232896,6.903458,-14.290924,-8.479492,,,,,,
1478385956.46,2.179331,0.942666,-2.102817,-0.011069,-1.457675,-0.739692,0.482145,-0.809128,0.335930,-1.735242,-1.022949,-0.231315,6.076584,-14.816238,-8.786133,,,,,,
1478385956.48,2.154217,0.886907,-2.078982,1.574912,-0.224091,-3.821280,0.527300,-0.775121,0.348054,-1.694643,0.793355,-0.511247,6.076584,-14.816238,-8.786133,,,,,,
1478385956.50,2.176890,0.779397,-2.067206,3.188607,2.513425,-5.095186,0.584634,-0.702850,0.405222,-1.785150,-0.214249,0.390845,7.348160,-15.716675,-9.220764,,,,,,
1478385956.52,2.228505,0.656022,-2.062046,3.798664,2.676122,-4.976150,0.627121,-0.609969,0.484413,-0.857193,-2.012055,-0.481148,9.895462,-15.940521,-8.069580,,,,,,
1478385956.54,2.250526,0.535645,-2.066771,3.774183,-0.276765,-4.271678,0.668812,-0.510396,0.540543,0.399914,-2.086223,0.042358,12.518051,-15.863708,-6.243591,,,,,,
1478385956.56,2.205847,0.433063,-2.072408,3.092948,-3.482005,-3.762428,0.730724,-0.419653,0.538455,0.425740,-2.259699,-0.175265,13.943558,-15.262268,-4.806152,,,,,,
1478385956.58,2.121826,0.346357,-2.074828,2.132589,-4.431471,-3.352162,0.801391,-0.339474,0.492473,0.336457,-1.757328,-0.306102,13.943558,-15.262268,-4.806152,,,,,,
1478385956.60,2.044168,0.276143,-2.071098,1.234982,-3.095998,-3.028455,0.856316,-0.272647,0.438618,-0.000161,-1.603238,-0.047780,16.421829,-14.512161,-4.708618,,,,,,
1478385956.62,2.023745,0.223776,-2.060562,0.414804,0.554089,-2.188608,0.876741,-0.221913,0.426708,-0.564592,-1.033839,0.420125,18.984055,-12.113113,-5.665222,,,,,,
1478385956.64,2.075226,0.205719,-2.049110,-0.436438,3.778266,-0.279429,0.856991,-0.204271,0.473118,-0.714565,-0.322234,0.332119,18.838547,-10.837296,-4.845459,,,,,,
1478385956.66,2.164812,0.234458,-2.041872,-1.463165,4.692286,1.784423,0.806027,-0.232316,0.544380,-0.383892,0.166459,0.198539,20.339767,-10.161087,-3.632507,,,,,,
1478385956.68,2.237832,0.305397,-2.041744,-2.493916,2.706077,3.417194,0.749305,-0.300672,0.590033,0.184793,0.605588,-0.097372,20.339767,-10.161087,-3.632507,,,,,,
1478385956.70,2.254308,0.407222,-2.048459,-3.202056,-0.423959,4.601848,0.711954,-0.396060,0.579877,0.159918,0.822909,-0.429654,19.735855,-10.384140,-1.687866,,,,,,
1478385956.72,2.231113,0.532925,-2.062750,-3.488670,-1.863352,5.683975,0.680273,-0.508055,0.528308,-0.409551,0.794096,-0.305881,17.548965,-12.783401,-0.952515,,,,,,
1478385956.74,2.208244,0.672421,-2.084840,-3.474693,-1.584183,6.358942,0.628683,-0.622881,0.465592,-0.603949,1.159411,-0.057450,15.742996,-14.509628,-2.165466,,,,,,
1478385956.76,2.213834,0.818942,-2.116750,-3.314906,-0.177980,6.556472,0.546585,-0.730424,0.409543,-0.520569,1.692643,-0.340696,14.761154,-16.611343,-3.893921,,,,,,
1478385956.78,2.270139,0.951510,-2.155551,-3.041860,2.240908,5.647964,0.444202,-0.814293,0.373647,-0.478778,1.852669,-0.209829,14.761154,-16.611343,-3.893921,,,,,,
1478385956.80,2.389731,1.067844,-2.217935,-2.651791,3.615752,5.203687,0.329216,-0.876163,0.352072,0.248543,2.278629,0.539956,12.053055,-18.637054,-4.589905,,,,,,
1478385956.82,2.543059,1.164428,-2.321542,-2.131551,2.486113,4.452520,0.222711,-0.918562,0.326563,1.480566,3.090193,0.439780,10.246384,-20.362732,-5.277832,,,,,,
1478385956.84,2.681814,1.229523,-2.437921,-1.501866,1.033875,2.836304,0.148517,-0.942329,0.299930,2.136013,2.487267,0.798031,5.509903,-23.213669,-6.216614,,,,,,
1478385956.86,2.770800,1.261713,-2.515153,-0.661095,0.827336,1.186486,0.110223,-0.952613,0.283513,2.347007,2.304664,1.037364,4.908585,-23.588898,-6.446472,,,,,,
1478385956.88,2.810850,1.271237,-2.539135,-0.176516,0.756207,0.262948,0.095832,-0.955467,0.279105,2.024194,2.607673,0.562448,4.908585,-23.588898,-6.446472,,,,,,
1478385956.90,2.851462,1.216076,-2.583276,7.418943,-2.118386,-0.929447,0.099363,-0.937744,0.332812,-0.924329,-0.403367,2.401792,4.604294,-24.639206,-6.746399,,,,,,
1478385956.92,2.637542,1.135325,-2.405184,2.136836,0.879637,-5.306647,0.203738,-0.906671,0.369375,2.822812,-5.165717,-0.261313,6.560593,-23.138885,-6.431274,,,,,,
1478385956.94,2.591930,1.092065,-2.319826,0.812606,0.801220,-1.367757,0.240645,-0.887580,0.392799,0.225175,0.278816,-0.022667,10.903336,-23.811066,-3.610901,,,,,,
1478385956.96,2.583792,1.057216,-2.305463,1.160558,-0.129722,-1.511812,0.260055,-0.870991,0.416829,0.334854,1.443959,0.447017,11.951492,-23.885086,-2.625183,,,,,,
1478385956.98,2.558573,1.018262,-2.282546,1.100625,-0.010651,-1.441073,0.288953,-0.851197,0.438144,0.399402,0.246674,0.362515,11.951492,-23.885086,-2.625183,,,,,,
1478385957.00,2.546687,0.991205,-2.265773,0.703953,0.050163,-0.872127,0.306938,-0.836686,0.453592,0.723626,-0.739318,0.310584,13.151047,-23.659088,-1.638916,,,,,,
1478385957.02,2.533003,0.982610,-2.258918,-0.004968,-0.744796,-0.112694,0.317215,-0.831949,0.455232,0.780990,-0.554373,0.430282,13.374466,-23.733276,-0.811401,,,,,,
1478385957.04,2.514358,0.993099,-2.258791,-0.696062,-0.851720,0.531137,0.320508,-0.837722,0.442149,0.630374,-0.128785,0.836233,14.276382,-23.433624,-1.178284,,,,,,
1478385957.06,2.505559,1.020345,-2.257381,-1.354426,-0.020790,0.885925,0.310710,-0.852288,0.420790,0.440679,-0.660239,0.733004,14.351730,-23.584305,-1.852112,,,,,,
1478385957.08,2.510819,1.053907,-2.256967,-1.252987,0.303617,1.033368,0.291451,-0.869361,0.399084,0.363654,-2.062066,-0.423697,14.351730,-23.584305,-1.852112,,,,,,
1478385957.10,2.513348,1.085077,-2.272652,-0.762536,-1.304989,1.375965,0.274376,-0.884339,0.377706,-0.352562,-2.704467,-1.114675,12.551498,-23.734634,-2.169678,,,,,,
1478385957.12,2.500454,1.107391,-2.310574,-0.198274,-2.951127,1.144844,0.267352,-0.894536,0.358230,-1.182559,-1.907070,-0.533767,11.804062,-23.736359,-3.902100,,,,,,
1478385957.14,2.436349,1.106870,-2.322556,0.318863,-3.903291,-0.558872,0.290054,-0.894303,0.340722,-1.530715,-0.914016,-0.554269,11.432022,-23.362183,-4.731995,,,,,,
1478385957.16,2.349612,1.055519,-2.271391,1.292893,-1.024800,-3.943637,0.350732,-0.870156,0.346144,-1.440637,0.421044,0.008455,10.458054,-23.362869,-5.416748,,,,,,
1478385957.18,2.292686,0.941924,-2.194340,3.153893,1.192708,-6.214313,0.441503,-0.808691,0.388707,-1.425955,0.722265,0.096919,10.458054,-23.362869,-5.416748,,,,,,
1478385957.20,2.275931,0.805031,-2.145999,3.322043,0.983795,-6.068221,0.527804,-0.720852,0.449216,-0.883959,-0.926594,-0.610517,12.259048,-22.836960,-4.500244,,,,,,
1478385957.22,2.271773,0.668585,-2.130510,4.228937,-0.695260,-5.232550,0.599677,-0.619877,0.506103,-0.212577,-2.140347,-0.302383,15.411453,-21.785416,-2.971863,,,,,,
1478385957.24,2.230926,0.542597,-2.133206,3.701989,-2.821112,-4.636725,0.676458,-0.516362,0.525143,0.299021,-1.801967,0.062854,18.564957,-20.358459,-0.994690,,,,,,
1478385957.26,2.154715,0.435595,-2.126787,2.570596,-4.022522,-4.449682,0.756400,-0.421950,0.499817,0.310876,-2.127855,-0.184128,22.100906,-17.356766,0.681763,,,,,,
1478385957.28,2.078310,0.343183,-2.123652,1.895635,-3.434208,-3.600808,0.822994,-0.336486,0.457666,0.172749,-2.240082,-0.328012,22.100906,-17.356766,0.681763,,,,,,
,,,,,,,,,,,,,,,,37.354295,-122.033473,36.153870,0.000000,194.765625,1478386175.00
1478385957.30,2.032067,0.284473,-2.118758,0.801578,-1.481132,-2.255400,0.859498,-0.280652,0.427198,-0.518357,-1.539951,0.376268,23.832870,-15.932129,0.319763,,,,,,
1478385957.32,2.022891,0.252587,-2.104062,-0.451123,0.502879,-1.486063,0.870991,-0.249910,0.422989,-1.042790,-1.033446,0.499451,24.813065,-15.032883,-0.423157,,,,,,
1478385957.34,2.054961,0.249579,-2.072499,-1.798182,2.897660,-0.246722,0.857642,-0.246996,0.451047,-1.135870,-0.415098,0.526629,24.741287,-14.358032,-0.575928,,,,,,
1478385957.36,2.121956,0.296367,-2.041132,-2.841555,3.918809,2.303527,0.814777,-0.292048,0.500845,-0.822803,0.256372,0.172693,23.841751,-14.132660,-0.210571,,,,,,
1478385957.38,2.172490,0.394968,-2.032525,-3.064739,1.621701,4.724275,0.760908,-0.384778,0.522460,-0.479368,0.922605,-0.399382,23.841751,-14.132660,-0.210571,,,,,,
1478385957.40,2.184097,0.517082,-2.044050,-3.168674,-0.151162,5.437197,0.710844,-0.494346,0.500323,-0.128874,0.986915,-0.345004,19.184525,-15.632339,0.122375,,,,,,
1478385957.42,2.184551,0.649816,-2.055814,-3.555516,-0.201134,5.929998,0.650883,-0.605040,0.458562,-0.476368,0.700056,-0.208333,16.256546,-16.608261,-0.803955,,,,,,
1478385957.44,2.205182,0.793965,-2.070468,-3.860616,1.100004,6.320884,0.564630,-0.713138,0.415484,-0.635415,1.259342,0.102567,13.930191,-17.284409,-1.950195,,,,,,
1478385957.46,2.267078,0.939757,-2.101508,-3.567341,2.318841,6.335431,0.452655,-0.807415,0.378397,-0.377765,1.702633,-0.180598,10.478897,-17.960556,-3.107666,,,,,,
1478385957.48,2.367168,1.077702,-2.164300,-3.297197,2.042449,6.160988,0.331019,-0.880872,0.338364,0.071814,1.909895,0.423705,10.478897,-17.960556,-3.107666,,,,,,
1478385957.50,2.528489,1.200627,-2.310709,-2.333953,1.046628,6.289203,0.208167,-0.932266,0.295882,0.906838,2.743744,0.829057,6.058334,-17.587402,-4.953003,,,,,,
1478385957.52,2.761450,1.279849,-2.530230,-1.647868,1.520520,3.852492,0.106440,-0.957972,0.266382,2.436788,3.098826,0.943198,3.284271,-17.588043,-5.580811,,,,,,
1478385957.54,2.922278,1.317108,-2.657709,-0.920155,2.043401,1.573047,0.054602,-0.967993,0.244964,2.432901,2.327246,1.278229,2.235886,-17.363419,-5.966980,,,,,,
1478385957.56,3.034487,1.331340,-2.731251,-0.355435,1.879296,0.613066,0.025354,-0.971467,0.235816,2.247732,2.447648,1.149866,1.187805,-17.063812,-6.353271,,,,,,
1478385957.58,2.995846,1.299332,-2.683462,4.473793,-0.844118,-2.155375,0.038943,-0.963379,0.265299,0.279554,0.466828,0.813878,1.187805,-17.063812,-6.353271,,,,,,
1478385957.60,2.682963,1.218985,-2.373754,-1.256233,0.581123,-6.024837,0.152561,-0.938750,0.308988,1.860516,-6.126252,-1.359326,2.092850,-16.164474,-7.021912,,,,,,
1478385957.62,2.633757,1.153296,-2.264828,1.812694,1.671704,-1.717167,0.197178,-0.914105,0.354305,0.742473,-1.339557,-0.023616,6.138748,-16.387421,-4.955811,,,,,,
1478385957.64,2.681560,1.118730,-2.300805,2.078573,0.892634,0.513086,0.193940,-0.899546,0.391412,0.147597,1.252650,-0.062128,6.812088,-16.160599,-3.149719,,,,,,
1478385957.66,2.704272,1.086789,-2.323593,1.513134,-0.321064,-1.217807,0.197074,-0.885137,0.421537,0.214624,1.337423,0.326525,7.335342,-16.309921,-2.469116,,,,,,
1478385957.68,2.649489,1.040117,-2.253924,1.108547,0.534293,-2.736522,0.239132,-0.862463,0.446064,0.489094,-0.036691,0.225430,7.335342,-16.309921,-2.469116,,,,,,
1478385957.70,2.623659,1.010039,-2.211574,0.697213,0.418127,-0.989619,0.263300,-0.846852,0.462076,0.514104,-0.937800,0.455771,8.012283,-15.709396,-1.939087,,,,,,
1478385957.72,2.616903,1.001276,-2.207587,0.051955,-0.499284,0.039899,0.270123,-0.842160,0.466691,0.772983,-0.197116,0.374602,9.060898,-15.558029,-0.579102,,,,,,
1478385957.74,2.613252,1.014762,-2.217446,-0.785181,-0.505748,0.831195,0.266075,-0.849355,0.455850,0.575950,-0.394511,0.595434,9.135574,-15.708252,-0.802856,,,,,,
1478385957.76,2.621336,1.046623,-2.226878,-1.507759,0.354304,1.053467,0.248799,-0.865738,0.434277,0.411632,-0.767517,0.531802,9.586777,-15.558624,-1.173828,,,,,,
1478385957.78,2.643907,1.083674,-2.232228,-1.361838,0.992363,1.002055,0.223461,-0.883684,0.411301,0.109212,-1.793105,-0.437394,9.586777,-15.558624,-1.173828,,,,,,
1478385957.80,2.658765,1.111843,-2.249563,-0.947460,-0.977196,0.988810,0.205683,-0.896517,0.392367,-0.181895,-2.881315,-1.207095,8.761948,-15.709167,-1.706665,,,,,,
1478385957.82,2.624986,1.132063,-2.260978,-0.417969,-2.582938,0.398750,0.209819,-0.905290,0.369358,-0.510723,-1.804045,-0.650120,8.309006,-16.534683,-2.233704,,,,,,
1478385957.84,2.563059,1.104507,-2.257753,1.796428,-3.391484,-1.514234,0.245826,-0.893243,0.376413,-0.623939,-0.595664,-0.589609,7.785233,-16.460297,-2.839111,,,,,,
1478385957.86,2.482438,1.030202,-2.232438,2.657408,-2.653737,-3.268261,0.315194,-0.857403,0.406833,-0.814416,0.407147,-0.294497,8.308670,-16.308792,-1.334351,,,,,,
1478385957.88,2.386584,0.926089,-2.166199,3.207685,-1.378235,-5.733988,0.411838,-0.799276,0.437662,-1.615405,0.886266,-0.278268,8.308670,-16.308792,-1.334351,,,,,,
1478385957.90,2.338106,0.788312,-2.130334,4.298222,-0.769722,-5.338305,0.507477,-0.709164,0.489442,-1.610641,-1.076130,-0.569887,10.183090,-16.007507,-0.041504,,,,,,
1478385957.92,2.326182,0.651566,-2.118701,4.620371,-0.267469,-5.379101,0.578864,-0.606432,0.545121,-0.458823,-1.739499,0.054321,12.211777,-14.580673,1.774475,,,,,,
1478385957.94,2.272778,0.513831,-2.105755,3.468953,-3.617825,-5.436262,0.664964,-0.491517,0.562347,0.098220,-2.653030,0.185379,18.150467,-10.151505,5.945618,,,,,,
1478385957.96,2.178686,0.408959,-2.069835,1.369718,-3.806653,-4.866691,0.753164,-0.397654,0.524037,0.665354,-2.703206,-0.138600,20.561020,-7.676117,6.337280,,,,,,
1478385957.98,2.104716,0.324626,-2.073897,3.023297,-4.060771,-2.449879,0.815858,-0.318954,0.482331,0.108473,-1.653321,-1.156785,20.561020,-7.676117,6.337280,,,,,,
1478385958.00,2.041477,0.279641,-2.104405,1.642260,-2.802631,-0.768192,0.856639,-0.276011,0.435877,-0.447978,-1.186575,0.349905,22.367752,-6.326553,5.901306,,,,,,
1478385958.02,2.024106,0.268065,-2.105555,-0.374165,0.282536,-0.393539,0.866895,-0.264866,0.422302,-0.872907,-0.861080,0.558945,23.725693,-4.676910,5.534912,,,,,,
1478385958.04,2.062968,0.277942,-2.084019,-1.607092,3.338735,0.259118,0.847486,-0.274377,0.454406,-1.264570,-0.442298,0.203492,24.929428,-4.002365,5.094910,,,,,,
1478385958.06,2.141306,0.320931,-2.048798,-3.136071,4.708179,1.567975,0.798654,-0.315450,0.512487,-0.909723,0.040196,0.068553,23.877396,-3.775345,7.108765,,,,,,
1478385958.08,2.209459,0.414123,-2.022819,-3.846728,3.037117,4.201144,0.735025,-0.402387,0.545732,-0.365899,0.171232,-0.343949,23.877396,-3.775345,7.108765,,,,,,
1478385958.10,2.243169,0.552299,-2.033889,-3.804694,0.692567,6.498286,0.666028,-0.524646,0.530240,0.165851,0.056933,-0.308987,22.818008,-5.273544,8.902649,,,,,,
1478385958.12,2.268715,0.705822,-2.065805,-3.957350,0.242248,6.724356,0.583124,-0.648659,0.489088,0.116919,0.217995,-0.270506,20.858658,-7.147964,9.488647,,,,,,
1478385958.14,2.300350,0.864421,-2.104525,-4.341283,0.222832,7.094378,0.483871,-0.760719,0.432637,-0.350998,0.615288,-0.256291,20.243240,-10.598038,9.417908,,,,,,
1478385958.16,2.354656,1.037353,-2.168065,-4.586549,0.016846,7.881879,0.360117,-0.861061,0.359011,-0.180567,1.335900,-0.432360,15.332474,-19.074646,7.819153,,,,,,
1478385958.18,2.492865,1.218169,-2.316067,-4.987675,0.477049,8.476491,0.208660,-0.938468,0.275205,0.323261,1.772804,0.054919,15.332474,-19.074646,7.819153,,,,,,
1478385958.20,2.863043,1.388608,-2.675308,-5.239038,1.665511,7.548727,0.049818,-0.983450,0.174198,1.145037,2.087744,1.522182,10.892136,-23.051315,6.136719,,,,,,
1478385958.22,-2.525744,1.435860,2.787245,-1.646303,5.581574,4.447024,-0.077710,-0.990910,0.109813,3.411344,3.231526,3.734838,6.685532,-25.604584,2.877319,,,,,,
1478385958.24,-2.208374,1.422118,2.566246,-0.218255,3.776698,0.309750,-0.119029,-0.988968,0.088175,3.391490,2.335449,2.318471,1.659546,-26.732330,0.130432,,,,,,
1478385958.26,-2.263437,1.424432,2.649231,0.573102,0.008895,-0.816808,-0.112234,-0.989308,0.093130,3.427618,1.858922,1.848184,-0.592331,-27.633774,-1.314392,,,,,,
1478385958.28,-2.672038,1.412987,3.046485,5.052875,-0.943827,-2.642911,-0.071111,-0.987574,0.140146,0.097295,-0.071996,-0.971231,-0.592331,-27.633774,-1.314392,,,,,,
,,,,,,,,,,,,,,,,37.354285,-122.033475,35.957642,0.520000,194.765625,1478386176.00
1478385958.30,3.085808,1.341653,-2.807327,2.226654,-5.747797,-3.100073,0.012665,-0.973861,0.226790,0.736008,-6.451279,-0.023527,0.824432,-28.982330,0.128845,,,,,,
1478385958.32,2.937754,1.296650,-2.665653,2.197031,1.718924,-1.737646,0.054803,-0.962657,0.265120,-0.109460,-0.980687,1.064867,4.345566,-28.678848,3.613159,,,,,,
1478385958.34,2.881977,1.272101,-2.553580,-0.634456,2.915646,-1.973265,0.075543,-0.955721,0.284412,-0.228695,1.412386,0.437191,5.469559,-28.678162,4.299316,,,,,,
1478385958.36,2.782778,1.270178,-2.375308,0.641432,3.639163,-2.726566,0.103984,-0.955153,0.277253,-0.176783,1.425094,0.083816,6.593765,-28.527176,5.285095,,,,,,
1478385958.38,2.755001,1.204309,-2.306019,3.224711,0.726650,-1.957615,0.135105,-0.933592,0.331892,0.072201,1.015562,0.273866,6.593765,-28.527176,5.285095,,,,,,
1478385958.40,2.717440,1.126956,-2.266343,2.562069,-0.580871,-2.669660,0.176724,-0.903109,0.391360,0.287189,0.365527,0.185377,8.693649,-28.301407,6.055420,,,,,,
1478385958.42,2.623390,1.086632,-2.172312,1.046002,0.023030,-2.203736,0.230556,-0.885064,0.404358,0.794651,-1.763877,-0.132355,10.042831,-27.623840,8.616943,,,,,,
1478385958.44,2.632977,1.053289,-2.178424,1.290543,0.196831,-0.060645,0.240911,-0.869055,0.432094,0.898402,-0.011972,0.207570,12.143906,-27.323669,8.787048,,,,,,
1478385958.46,2.654938,1.035968,-2.204041,0.983850,-0.324018,0.294241,0.238369,-0.860356,0.450519,0.341007,0.149129,0.180645,11.543228,-27.022324,10.130188,,,,,,
1478385958.48,2.661272,1.026071,-2.229855,0.514356,-0.740846,0.296552,0.239433,-0.855270,0.459549,0.077965,-0.150040,0.377289,11.543228,-27.022324,10.130188,,,,,,
1478385958.50,2.659414,1.030856,-2.236583,-0.553671,-0.224150,0.290773,0.238387,-0.857739,0.455473,0.149431,-0.278949,0.764117,12.368942,-26.872314,10.138000,,,,,,
1478385958.52,2.658164,1.054688,-2.233164,-1.317586,0.313112,0.660596,0.229387,-0.869746,0.436947,0.479185,-0.572652,0.567142,12.744827,-26.647247,10.216003,,,,,,
1478385958.54,2.677249,1.090337,-2.241881,-1.590777,0.699075,1.164409,0.206984,-0.886783,0.413249,0.468171,-1.230725,-0.188700,11.619034,-26.947632,9.830627,,,,,,
1478385958.56,2.710060,1.125342,-2.270713,-1.027087,-0.226624,1.391486,0.180217,-0.902415,0.391369,-0.063670,-2.739568,-1.178219,10.042038,-27.698532,8.917175,,,,,,
1478385958.58,2.716337,1.142755,-2.321775,0.396055,-2.994622,1.043384,0.171247,-0.909780,0.378119,-0.768018,-2.703638,-1.230170,10.042038,-27.698532,8.917175,,,,,,
1478385958.60,2.666218,1.100848,-2.342952,2.518332,-3.629970,-1.527433,0.207252,-0.891592,0.402630,-0.606666,-0.298716,-1.127423,9.594620,-27.549820,7.637207,,,,,,
1478385958.62,2.565197,1.030908,-2.288264,2.573220,-1.869217,-3.683912,0.280155,-0.857766,0.430988,-0.710102,0.707849,-0.511280,11.020706,-27.249649,7.800598,,,,,,
1478385958.64,2.487986,0.921472,-2.225299,4.031818,-0.913508,-4.976879,0.367659,-0.796492,0.480028,-0.849592,0.408889,-0.119814,13.123947,-26.198669,8.793457,,,,,,
1478385958.66,2.433387,0.798878,-2.192580,3.735893,-2.307789,-4.313465,0.453711,-0.716574,0.529781,-0.824561,-1.347055,-0.325954,17.180771,-24.172134,10.327942,,,,,,
1478385958.68,2.351392,0.687816,-2.165182,3.106891,-3.763523,-4.937181,0.548952,-0.634851,0.543705,0.058576,-3.386435,0.156978,17.180771,-24.172134,10.327942,,,,,,
1478385958.70,2.243164,0.578243,-2.126574,2.240123,-4.474940,-4.816708,0.655158,-0.546553,0.521581,0.463403,-3.172822,-0.135366,20.565201,-21.695969,11.479309,,,,,,
1478385958.72,2.151047,0.494045,-2.125267,2.623070,-4.578480,-2.618582,0.736319,-0.474191,0.482677,-0.293250,-1.264395,-0.568080,24.849838,-19.596085,11.365906,,,,,,
1478385958.74,2.090910,0.441577,-2.150825,1.865679,-2.592057,-1.177407,0.784526,-0.427365,0.449308,-0.784282,-1.173327,0.008380,30.490402,-16.823135,9.313965,,,,,,
1478385958.76,2.086866,0.420916,-2.154405,-0.023715,1.095052,-0.745320,0.793848,-0.408597,0.450393,-1.109552,-0.909580,0.524247,31.542923,-16.523956,8.498596,,,,,,
1478385958.78,2.130449,0.416794,-2.124993,-1.660929,3.574676,-0.976400,0.774892,-0.404831,0.485443,-1.414982,-0.389511,0.471329,31.542923,-16.523956,8.498596,,,,,,
1478385958.80,2.191791,0.427910,-2.073137,-2.557181,4.202543,-0.573436,0.739969,-0.414970,0.529382,-1.356119,-0.074807,0.186087,31.016525,-16.823883,8.569214,,,,,,
1478385958.82,2.246830,0.476612,-2.030478,-3.337452,3.195475,1.834933,0.693126,-0.458772,0.555972,-0.850704,0.227037,-0.051059,28.913376,-17.273148,9.299561,,,,,,
1478385958.84,2.283674,0.582717,-2.024383,-3.645549,1.170934,5.034095,0.631641,-0.550295,0.546082,-0.326633,0.481508,-0.172837,23.054703,-19.298431,9.022095,,,,,,
1478385958.86,2.316093,0.716744,-2.060279,-3.321123,0.546592,6.175085,0.554067,-0.656934,0.511320,0.160197,0.793195,0.037188,18.396164,-21.549530,7.932251,,,,,,
1478385958.88,2.368117,0.848113,-2.098614,-3.855606,1.620959,5.164247,0.462071,-0.750033,0.473223,0.452495,1.153323,-0.222399,18.396164,-21.549530,7.932251,,,,,,
1478385958.90,2.402186,0.973363,-2.113116,-4.356277,0.702255,4.612748,0.379055,-0.826782,0.415630,0.080402,1.062546,-0.437557,14.266068,-23.276276,6.171143,,,,,,
1478385958.92,2.449144,1.101819,-2.154880,-4.036271,0.524889,5.207928,0.288551,-0.892031,0.347878,0.110268,1.351092,-0.068627,9.839645,-24.178055,4.404541,,,,,,
1478385958.94,2.537489,1.223101,-2.239963,-3.702408,0.505771,4.754376,0.193544,-0.940161,0.280426,0.499388,1.597280,0.328323,6.016403,-24.480103,2.342224,,,,,,
1478385958.96,2.670960,1.324016,-2.366611,-3.004889,0.794978,3.824721,0.110770,-0.969704,0.217726,1.164834,1.774529,1.010592,0.476898,-23.584442,-1.990845,,,,,,
1478385958.98,2.886824,1.386852,-2.555160,-1.841745,2.133283,2.404083,0.046097,-0.983130,0.177005,2.273544,2.394324,1.534680,0.476898,-23.584442,-1.990845,,,,,,
1478385959.00,3.016810,1.415880,-2.642797,-0.876111,1.919412,0.191403,0.019204,-0.988024,0.153098,2.381050,2.784457,1.643686,-1.542099,-22.760971,-3.513489,,,,,,
1478385959.02,2.997533,1.422357,-2.589403,-0.145514,1.658001,-0.480083,0.021232,-0.989003,0.146363,1.856301,2.286977,1.852661,-3.483200,-21.412872,-5.411926,,,,,,
1478385959.04,2.793240,1.407861,-2.386291,1.282125,-1.272696,-3.102227,0.055372,-0.986755,0.152472,1.417559,1.459229,2.468332,-3.402786,-20.212875,-5.414734,,,,,,
1478385959.06,2.560203,1.334381,-2.116606,-2.552454,-0.484872,-1.167544,0.128630,-0.972184,0.195737,-0.057203,-6.439346,-0.580671,-0.929276,-20.061417,-3.965454,,,,,,
1478385959.08,2.647690,1.293885,-2.245463,4.518082,-3.290923,-0.658668,0.129603,-0.961904,0.240713,-0.446864,-0.605433,-1.755179,-0.929276,-20.061417,-3.965454,,,,,,
1478385959.10,2.623174,1.231674,-2.248582,0.904586,0.879088,-1.604379,0.164835,-0.943047,0.288949,0.090689,1.014580,1.371314,-2.357407,-20.510681,-3.228394,,,,,,
1478385959.12,2.561706,1.235494,-2.141903,0.120390,3.076899,-1.217202,0.180298,-0.944311,0.275262,0.206191,1.680288,0.649283,-1.083191,-19.983582,-1.117249,,,,,,
1478385959.14,2.661720,1.163246,-2.195928,4.056885,1.703009,-1.150028,0.182986,-0.918095,0.351594,0.322751,1.209171,0.252792,-0.406967,-20.059616,-2.160278,,,,,,
1478385959.16,2.656425,1.101225,-2.156338,0.832565,1.205846,-2.723312,0.211028,-0.891762,0.400283,0.451264,-0.546195,0.037964,1.018692,-19.082138,0.326050,,,,,,
1478385959.18,2.628715,1.072335,-2.105290,1.202346,0.732190,-0.863848,0.234585,-0.878319,0.416564,0.426319,-1.194267,0.214052,1.018692,-19.082138,0.326050,,,,,,
1478385959.20,2.635361,1.052299,-2.123495,1.001060,-1.083981,0.184270,0.240297,-0.868565,0.433420,0.692961,0.268589,-0.006708,1.093491,-19.081985,0.476868,,,,,,
1478385959.22,2.640556,1.042565,-2.158972,0.714827,-1.242558,0.754942,0.242092,-0.863700,0.442057,0.251484,-0.092111,0.152136,1.545380,-18.481445,1.004517,,,,,,
1478385959.24,2.651235,1.042409,-2.192782,0.134253,-0.642138,0.638057,0.237421,-0.863621,0.444735,0.050360,-0.205684,0.511289,1.769592,-18.405701,1.756531,,,,,,
1478385959.26,2.654477,1.056284,-2.199540,-0.945377,0.072748,0.433008,0.230346,-0.870533,0.434871,0.091797,-0.275677,0.795079,1.469376,-18.330322,2.128357,,,,,,
1478385959.28,2.648289,1.088742,-2.187527,-1.885537,0.310786,0.553828,0.219533,-0.886044,0.408327,0.325191,-0.603915,0.525603,1.469376,-18.330322,2.128357,,,,,,
1478385959.30,2.653380,1.129986,-2.175814,-1.736596,0.868831,0.939266,0.200130,-0.904406,0.376826,0.307530,-1.673169,-0.569651,1.393005,-18.931229,1.229309,,,,,,
,,,,,,,,,,,,,,,,37.354278,-122.033483,38.801208,1.080000,247.148438,1478386177.00
1478385959.32,2.651391,1.167918,-2.187058,-1.416413,-1.559524,1.049601,0.184587,-0.919936,0.345897,-0.106279,-3.119111,-1.308117,0.789536,-19.982056,0.401489,,,,,,
1478385959.34,2.596794,1.185577,-2.183962,-0.430856,-3.095468,-0.003168,0.194737,-0.926716,0.321364,-0.559666,-2.054455,-0.986754,1.387131,-20.732727,-0.265259,,,,,,
1478385959.36,2.533567,1.158980,-2.188020,2.234452,-3.328152,-1.195804,0.228656,-0.916395,0.328536,-0.599506,-0.512087,-0.422775,2.208771,-21.482712,-0.254822,,,,,,
1478385959.38,2.465910,1.091440,-2.184629,1.966819,-3.541136,-2.503536,0.288454,-0.887292,0.359872,-1.050676,0.766015,-1.114709,2.208771,-21.482712,-0.254822,,,,,,
1478385959.40,2.365671,1.004820,-2.125406,3.020864,-1.309144,-5.096103,0.375569,-0.844065,0.382755,-1.707539,1.377284,-0.240467,6.102432,-21.929810,2.635437,,,,,,
1478385959.42,2.326516,0.877003,-2.090083,3.656546,-0.761356,-4.817837,0.465384,-0.768826,0.438548,-1.784063,-0.473697,-0.716426,9.478287,-21.403809,3.642639,,,,,,
1478385959.44,2.323083,0.769535,-2.075033,3.334538,1.243067,-4.238072,0.524403,-0.695802,0.490776,-0.445378,-1.328475,-0.363716,13.007492,-19.826904,5.548218,,,,,,
1478385959.46,2.327348,0.649307,-2.063153,4.182599,-0.415770,-4.905719,0.579223,-0.604635,0.546734,-0.117416,-2.000712,-0.007976,15.186874,-18.099640,7.814758,,,,,,
1478385959.48,2.281833,0.543386,-2.050025,2.223504,-2.109229,-3.666937,0.648551,-0.517037,0.558618,0.278863,-2.921531,0.078971,15.186874,-18.099640,7.814758,,,,,,
1478385959.50,2.233843,0.482038,-2.035251,1.530383,-2.217773,-2.265603,0.698316,-0.463586,0.545383,-0.071591,-1.697989,-0.687885,19.020645,-15.623032,9.420715,,,,,,
1478385959.52,2.197064,0.435726,-2.055321,2.172472,-2.061401,-0.722322,0.734517,-0.422068,0.531360,-0.686085,-1.055242,-0.310916,24.130234,-13.222244,10.214661,,,,,,
1478385959.54,2.185226,0.421853,-2.075385,0.293052,-0.214110,0.231454,0.745468,-0.409452,0.525952,-0.764984,-0.784853,0.458102,25.253647,-13.296402,11.051025,,,,,,
1478385959.56,2.203296,0.439119,-2.058991,-1.802145,2.012397,0.214702,0.730032,-0.425142,0.535077,-0.950537,-0.435331,0.558627,24.425369,-14.046478,10.970032,,,,,,
1478385959.58,2.240482,0.474178,-2.019565,-2.815019,3.083791,0.532141,0.697515,-0.456607,0.552252,-0.879339,-0.100293,0.252466,24.425369,-14.046478,10.970032,,,,,,
1478385959.60,2.287570,0.542132,-1.979721,-3.980571,3.280262,2.244403,0.645824,-0.515964,0.562755,-0.594173,0.113513,0.339635,23.746262,-15.021637,10.816162,,,,,,
1478385959.62,2.327867,0.656090,-1.963352,-4.325614,1.769192,4.668169,0.575945,-0.610023,0.544205,-0.288759,0.253258,0.372970,18.860733,-17.722733,9.725403,,,,,,
1478385959.64,2.374146,0.786630,-2.000621,-3.205630,0.943498,5.945679,0.490339,-0.707977,0.508267,0.218813,0.472595,0.627872,15.554794,-19.373734,8.722290,,,,,,
1478385959.66,2.448275,0.909703,-2.062671,-3.382767,1.703126,5.274355,0.392390,-0.789321,0.472231,0.654271,0.749252,0.216780,12.626114,-20.650116,7.346863,,,,,,
1478385959.68,2.517747,1.026726,-2.103613,-4.069161,1.643146,4.220600,0.302375,-0.855609,0.420122,0.586892,1.009097,-0.177523,12.626114,-20.650116,7.346863,,,,,,
1478385959.70,2.599845,1.138852,-2.163614,-3.796727,1.452332,4.330596,0.215864,-0.908154,0.358692,0.343554,1.282986,0.217983,9.023758,-21.551270,6.188538,,,,,,
1478385959.72,2.738757,1.243597,-2.283958,-3.584965,1.191612,4.324905,0.125995,-0.946946,0.295666,0.569287,1.471833,0.528630,6.697128,-22.452850,4.592896,,,,,,
1478385959.74,2.957318,1.327201,-2.492959,-2.733134,0.730601,3.789840,0.044195,-0.970477,0.237110,1.153361,1.650012,0.965191,0.397751,-23.506454,1.008118,,,,,,
1478385959.76,-3.024293,1.368060,-2.786526,-1.486307,0.850077,2.951489,-0.023564,-0.979519,0.199967,2.207387,2.270092,1.309952,-1.172607,-23.058197,-0.733948,,,,,,
1478385959.78,-2.825849,1.377638,-2.970485,-0.373110,0.802383,0.757687,-0.059608,-0.981403,0.182470,2.350547,2.649982,1.527506,-1.172607,-23.058197,-0.733948,,,,,,
1478385959.80,-2.833798,1.373299,-2.947876,0.577478,0.778755,-0.443768,-0.059445,-0.980561,0.186994,1.810223,2.175873,1.650683,-2.820679,-22.984253,-1.800659,,,,,,
1478385959.82,-2.911087,1.360913,-2.853057,0.809295,0.634009,-1.019642,-0.047601,-0.978055,0.202835,1.420419,2.010785,1.074310,-3.117981,-22.384262,-1.805420,,,,,,
1478385959.84,-3.070763,1.335209,-2.678257,2.652999,0.250115,-2.018603,-0.016519,-0.972377,0.232829,-0.169547,-0.083180,-0.135081,-2.217865,-22.233871,-1.421875,,,,,,
1478385959.86,2.953023,1.292257,-2.466929,2.004000,-2.875661,-2.548652,0.051541,-0.961458,0.270077,0.388370,-6.603025,0.713260,-0.341415,-21.633041,-0.579834,,,,,,
1478385959.88,2.883080,1.233297,-2.394223,2.573226,1.049398,-1.635116,0.084650,-0.943586,0.320125,-0.070612,-0.449587,0.488316,-0.341415,-21.633041,-0.579834,,,,,,
1478385959.90,2.862789,1.202854,-2.333400,0.030098,1.994486,-1.229872,0.098991,-0.933069,0.345807,0.038903,1.507029,0.212070,1.004959,-21.856293,1.159241,,,,,,
1478385959.92,2.864175,1.172746,-2.300720,2.259920,0.786229,-0.878874,0.106159,-0.921818,0.372802,0.213833,2.025899,-0.564528,0.929184,-21.554871,2.582581,,,,,,
1478385959.94,2.840932,1.117552,-2.259603,2.569409,0.983108,-2.180200,0.129680,-0.899031,0.418241,0.479848,0.755156,0.756868,1.528381,-21.855240,2.214478,,,,,,
1478385959.96,2.790804,1.066454,-2.194159,1.302782,-0.212899,-1.945299,0.166057,-0.875492,0.453804,0.224293,-1.159298,-0.516289,3.854477,-20.878052,4.409790,,,,,,
1478385959.98,2.765849,1.024815,-2.169739,1.823844,-0.105991,-0.931234,0.190549,-0.854618,0.483031,0.384769,-0.865764,0.098573,3.854477,-20.878052,4.409790,,,,,,
1478385960.00,2.755883,0.994046,-2.164600,1.234547,-0.232705,-0.635586,0.205152,-0.838239,0.505240,0.290774,0.448148,0.367684,4.755356,-20.427292,5.167480,,,,,,
1478385960.02,2.750384,0.966995,-2.165311,1.214144,-0.428108,-0.460938,0.216496,-0.823183,0.524880,0.063915,0.018694,-0.039528,4.454376,-20.351395,6.064209,,,,,,
1478385960.04,2.743515,0.946755,-2.161674,0.677905,0.032133,-0.445647,0.226509,-0.811524,0.538630,0.167976,-0.133316,0.473317,5.881271,-19.826080,6.376892,,,,,,
1478385960.06,2.741675,0.937973,-2.157402,0.168258,-0.020702,-0.153931,0.230266,-0.806361,0.544756,0.289616,-0.166890,0.339094,6.331131,-19.525101,7.355530,,,,,,
1478385960.08,2.737440,0.944521,-2.159204,-0.612649,-0.406748,0.377859,0.230490,-0.810216,0.538910,0.386988,-0.355463,0.575607,6.331131,-19.525101,7.355530,,,,,,
1478385960.10,2.738351,0.971125,-2.164775,-1.437856,0.020361,0.835952,0.221460,-0.825521,0.519105,0.483145,-0.665263,0.652709,5.731949,-19.375183,7.274109,,,,,,
1478385960.12,2.748335,1.008039,-2.169235,-1.681728,0.625960,0.779499,0.204445,-0.845787,0.492795,0.393349,-1.340523,-0.291989,5.281754,-19.600708,6.745239,,,,,,
1478385960.14,2.767151,1.041848,-2.185393,-1.264622,-0.642024,1.252184,0.184568,-0.863338,0.469661,-0.233259,-2.901997,-1.215328,4.978928,-20.501541,5.919922,,,,,,
1478385960.16,2.748685,1.067171,-2.226694,-0.534062,-3.843553,1.274564,0.184778,-0.875839,0.445829,-0.735727,-3.002884,-1.294050,4.527573,-20.951981,5.466797,,,,,,
1478385960.18,2.687864,1.037211,-2.242658,2.585290,-3.513277,-1.348488,0.222940,-0.860989,0.457160,-0.464441,-0.639148,-0.718452,4.527573,-20.951981,5.466797,,,,,,
1478385960.20,2.593690,0.964009,-2.203219,2.290268,-2.824091,-3.322618,0.297032,-0.821484,0.486760,-0.688771,0.739819,-0.859838,4.675537,-21.101089,6.368652,,,,,,
1478385960.22,2.498139,0.862973,-2.138539,3.782820,-1.719103,-5.082016,0.390084,-0.759779,0.520163,-0.994821,0.719999,-0.389060,7.227219,-20.274719,7.741699,,,,,,
1478385960.24,2.442083,0.739419,-2.104975,4.170257,-1.866292,-4.215256,0.475710,-0.673859,0.565345,-1.021822,-1.173584,-0.212912,10.380997,-18.847961,9.493958,,,,,,
1478385960.26,2.396950,0.633360,-2.114088,4.082031,-3.016960,-3.055063,0.546263,-0.591856,0.592708,-0.461318,-3.469835,0.143956,13.538956,-16.521286,11.168579,,,,,,
1478385960.28,2.331242,0.536500,-2.096717,2.109410,-2.696486,-4.285230,0.622735,-0.511131,0.592408,0.247062,-3.461083,0.055542,13.538956,-16.521286,11.168579,,,,,,
1478385960.30,2.255859,0.462069,-2.069026,1.581380,-3.486065,-2.953861,0.693172,-0.445801,0.566369,-0.459544,-1.557433,-0.688882,18.583725,-11.268707,13.753296,,,,,,
,,,,,,,,,,,,,,,,37.354278,-122.033483,39.617798,0.000000,184.570312,1478386178.00
1478385960.32,2.190076,0.408910,-2.078758,1.946739,-3.039092,-1.303349,0.747162,-0.397610,0.532593,-0.754318,-0.908466,-0.681718,21.066360,-9.543610,13.847961,,,,,,
1478385960.34,2.169023,0.385658,-2.083351,0.073301,0.136123,-0.582030,0.765642,-0.376169,0.521814,-0.680315,-1.137381,0.300574,23.102463,-7.143814,13.636108,,,,,,
1478385960.36,2.195961,0.400400,-2.062520,-1.990918,2.468295,0.374895,0.746732,-0.389787,0.538942,-0.993756,-0.701781,0.328780,24.681961,-5.792755,14.697815,,,,,,
1478385960.38,2.240522,0.445551,-2.019913,-3.326969,3.387218,0.803536,0.707453,-0.430955,0.560167,-0.960612,-0.166701,0.129347,24.681961,-5.792755,14.697815,,,,,,
1478385960.40,2.287668,0.518797,-1.977097,-4.108860,3.074925,2.238345,0.654669,-0.495836,0.570575,-0.563619,0.119310,-0.035953,23.254684,-6.016953,15.509216,,,,,,
1478385960.42,2.317509,0.632947,-1.957768,-4.528684,1.271518,4.600276,0.591755,-0.591524,0.547655,-0.221089,0.272951,0.024001,20.615036,-8.564789,17.665466,,,,,,
1478385960.44,2.337820,0.776716,-1.979155,-4.213964,-0.042096,6.286386,0.513503,-0.700941,0.494971,0.074631,0.502226,0.177728,19.101273,-11.414185,18.258850,,,,,,
1478385960.46,2.373500,0.926532,-2.024857,-4.379066,0.258724,6.239916,0.417283,-0.799542,0.431982,0.233840,0.791302,0.188319,16.310593,-15.014511,17.941772,,,,,,
1478385960.48,2.425300,1.077412,-2.065140,-5.006426,1.354992,5.840113,0.310968,-0.880735,0.357217,0.333075,1.067366,0.387747,16.310593,-15.014511,17.941772,,,,,,
1478385960.50,2.527751,1.231204,-2.136253,-5.348134,1.922152,5.812232,0.191871,-0.942890,0.272292,0.366478,1.417805,0.634187,14.419510,-18.840271,17.184387,,,,,,
1478385960.52,2.734418,1.373821,-2.312791,-4.622643,1.721606,5.413352,0.077502,-0.980663,0.179704,0.876722,1.873409,1.810744,6.442917,-26.194595,12.851624,,,,,,
1478385960.54,-2.936485,1.436680,-2.896863,-1.131104,1.765700,4.531689,-0.027234,-0.991020,0.130912,2.009167,3.119606,2.368097,1.862549,-28.372574,9.887390,,,,,,
1478385960.56,-2.504051,1.426350,2.979222,-0.735359,1.241167,1.682521,-0.085679,-0.989586,0.115669,2.545426,2.260597,1.606362,-2.638184,-29.124329,8.119629,,,,,,
1478385960.58,-2.377516,1.423010,2.869361,-0.092978,0.637252,0.416965,-0.101877,-0.989100,0.106317,2.744516,2.114359,1.643744,-2.638184,-29.124329,8.119629,,,,,,
1478385960.60,-2.417739,1.425089,2.912077,0.241291,-0.271136,-0.960012,-0.096158,-0.989403,0.108787,1.356473,1.779946,1.362267,-3.911484,-29.200699,6.757141,,,,,,
1478385960.62,-2.854303,1.385988,-2.902880,5.736085,1.609739,-3.155844,-0.052069,-0.982972,0.176226,0.119161,-0.458297,-0.434863,-4.060349,-29.126221,6.230469,,,,,,
1478385960.64,3.007761,1.339601,-2.503164,1.520071,-1.184242,-3.293733,0.030575,-0.973393,0.227093,0.735599,-5.805110,1.588200,-1.961151,-28.298203,9.248962,,,,,,
1478385960.66,2.934124,1.293351,-2.408399,2.494277,1.324536,-1.098077,0.056419,-0.961758,0.268026,-0.049827,-0.108280,0.206812,0.586441,-28.597504,9.950317,,,,,,
1478385960.68,2.916259,1.242993,-2.377654,1.744628,0.375265,-0.826339,0.071937,-0.946752,0.313825,0.167443,1.426107,0.266879,0.586441,-28.597504,9.950317,,,,,,
1478385960.70,2.910370,1.210727,-2.349370,2.010043,1.161096,-1.139969,0.080745,-0.935872,0.342962,0.360555,1.513311,-0.026693,0.887115,-27.996155,11.301453,,,,,,
1478385960.71,2.862955,1.149522,-2.281757,2.487119,0.317233,-2.341298,0.112473,-0.912569,0.393152,0.306930,0.390398,0.115592,1.339127,-27.320480,11.978943,,,,,,
1478385960.73,2.794794,1.105623,-2.219907,1.713141,-0.812739,-1.645936,0.152467,-0.893744,0.421872,0.194259,-1.134683,0.012561,2.689590,-26.342834,14.614502,,,,,,
1478385960.75,2.774251,1.066439,-2.196686,1.322709,0.356667,-0.911530,0.173551,-0.875485,0.451006,0.427905,-0.288043,0.608931,4.567139,-25.592300,15.156067,,,,,,
1478385960.77,2.772293,1.044012,-2.187575,0.930885,0.171475,-0.481078,0.181476,-0.864428,0.468860,0.365918,0.125232,0.129650,4.567139,-25.592300,15.156067,,,,,,
1478385960.79,2.766827,1.026220,-2.190361,0.728307,-0.607653,-0.161979,0.189636,-0.855347,0.482099,0.240371,-0.045257,0.179827,4.792953,-25.216705,15.757202,,,,,,
1478385960.81,2.765160,1.020699,-2.194582,0.040968,-0.075472,0.116079,0.192173,-0.852473,0.486167,0.209301,-0.202748,0.506737,4.943863,-24.841171,16.282593,,,,,,
1478385960.83,2.766458,1.029239,-2.199638,-0.595184,-0.209897,0.406282,0.188868,-0.856907,0.479624,0.337912,-0.324138,0.439901,4.945663,-24.315796,16.656067,,,,,,
1478385960.85,2.771941,1.054900,-2.211385,-1.375224,-0.202050,0.948774,0.178230,-0.869851,0.459993,0.527352,-0.616386,0.502593,4.718948,-24.690796,16.654907,,,,,,
1478385960.87,2.790576,1.094597,-2.232835,-1.762310,0.065948,1.260817,0.157624,-0.888743,0.430453,0.362350,-1.298589,-0.204883,4.718948,-24.690796,16.654907,,,,,,
1478385960.89,2.812747,1.132365,-2.268687,-1.360707,-1.150967,1.457963,0.137099,-0.905419,0.401772,-0.200255,-2.640297,-1.058114,4.568619,-25.292374,15.080139,,,,,,
1478385960.91,2.810821,1.159395,-2.323281,-0.753126,-3.574557,1.430984,0.129875,-0.916561,0.378217,-0.745613,-2.299335,-1.123395,3.064255,-26.342606,14.843262,,,,,,
1478385960.93,2.764380,1.138646,-2.350352,2.075053,-3.288974,-0.823023,0.154266,-0.908067,0.389379,-0.420364,-0.228285,-0.603659,2.689148,-26.568222,14.240173,,,,,,
1478385960.95,2.662397,1.083197,-2.296093,2.167204,-2.243647,-3.119232,0.216012,-0.883460,0.415737,-0.723520,0.916358,-0.711452,6.066269,-25.516464,15.995850,,,,,,
1478385960.97,2.548424,0.987065,-2.208351,3.489570,-1.600603,-4.994517,0.308083,-0.834412,0.456991,-0.939461,0.847016,-0.264685,6.066269,-25.516464,15.995850,,,,,,
1478385960.99,2.478144,0.865776,-2.150884,3.968194,-1.546979,-4.675147,0.399093,-0.761598,0.510581,-0.992400,-0.582991,-0.178046,9.372635,-23.640076,17.373291,,,,,,
1478385961.01,2.421774,0.755291,-2.136119,4.049402,-2.466393,-3.682834,0.479980,-0.685501,0.547456,-0.579208,-2.629853,-0.025346,11.930466,-21.162888,19.566406,,,,,,
1478385961.03,2.356705,0.647301,-2.117938,3.005495,-2.534251,-4.480811,0.563781,-0.603035,0.564357,0.265061,-3.486610,0.026188,15.317459,-17.936218,21.240601,,,,,,
1478385961.05,2.291576,0.559445,-2.097100,2.256386,-2.845059,-3.199794,0.636757,-0.530716,0.559358,-0.233681,-1.897507,-0.456270,18.555161,-14.634766,22.688049,,,,,,
1478385961.07,2.225467,0.492883,-2.102329,2.235042,-3.621548,-2.091877,0.698830,-0.473168,0.536422,-0.837014,-0.912529,-0.675079,18.555161,-14.634766,22.688049,,,,,,
1478385961.09,2.178646,0.448984,-2.107006,0.902395,-1.343490,-1.426575,0.739520,-0.434051,0.514500,-0.930544,-1.028611,-0.131917,23.072800,-10.208237,24.219971,,,,,,
1478385961.11,2.185669,0.429404,-2.093756,-0.404109,1.640679,-0.974039,0.742689,-0.416329,0.524484,-1.010709,-0.881401,0.095541,24.802505,-9.158218,24.234131,,,,,,
1478385961.13,2.228861,0.433908,-2.064819,-1.677407,3.323731,-0.379718,0.717859,-0.420420,0.554911,-1.037149,-0.517889,0.213094,25.851212,-9.383057,24.395325,,,,,,
1478385961.15,2.284784,0.467619,-2.024262,-2.967172,3.669208,0.535695,0.674622,-0.450763,0.584550,-0.869278,-0.236005,0.169600,24.043594,-10.807251,25.206482,,,,,,
1478385961.17,2.329869,0.535782,-1.990036,-3.565124,2.590982,2.201633,0.623814,-0.510513,0.591805,-0.498783,0.039978,-0.116753,24.043594,-10.807251,25.206482,,,,,,
1478385961.19,2.360561,0.639093,-1.986803,-3.833631,1.026345,4.405290,0.565067,-0.596468,0.570023,-0.161975,0.211778,-0.090409,19.152695,-14.934006,23.444946,,,,,,
1478385961.21,2.389255,0.769617,-2.013657,-4.094253,0.491129,5.596792,0.490765,-0.695860,0.524337,0.050571,0.435316,0.028901,17.947708,-16.585663,21.787842,,,,,,
1478385961.23,2.429252,0.907278,-2.051393,-4.374088,0.621045,5.393662,0.402552,-0.787830,0.466128,0.145605,0.592899,0.097669,15.764755,-18.912323,20.123047,,,,,,
1478385961.25,2.476875,1.040122,-2.097022,-4.182961,0.397598,5.209612,0.312190,-0.862466,0.398358,0.260792,0.758142,0.047290,13.430649,-21.463928,18.532288,,,,,,
1478385961.27,2.566585,1.165468,-2.183787,-3.888357,0.868118,5.200734,0.214448,-0.918973,0.330909,0.414229,0.882367,0.299843,13.430649,-21.463928,18.532288,,,,,,
1478385961.29,2.725238,1.282571,-2.323658,-4.142909,1.571133,4.638099,0.114960,-0.958750,0.259967,0.637283,0.947733,0.872113,8.089981,-26.117416,15.042847,,,,,,
,,,,,,,,,,,,,,,,37.354265,-122.033477,39.682251,0.220000,268.593750,1478386179.00
1478385961.31,3.023091,1.382726,-2.586869,-3.490487,2.499587,4.166403,0.022104,-0.982367,0.185653,1.333914,1.238745,1.851045,4.712296,-27.319244,13.212708,,,,,,
1478385961.33,-2.776550,1.406379,-3.013868,-0.438246,3.459137,2.876220,-0.058431,-0.986514,0.152892,2.882833,2.690676,2.400773,1.558502,-29.122116,10.336609,,,,,,
1478385961.35,-2.659376,1.397694,-3.081038,0.172867,1.318874,-0.497340,-0.079875,-0.985055,0.152599,2.833201,2.850106,1.102696,-1.516006,-29.122452,10.005859,,,,,,
1478385961.37,-2.779627,1.398944,-2.967211,0.494841,-0.940066,-0.944252,-0.060556,-0.985270,0.159927,1.976068,2.211542,1.395279,-1.516006,-29.122452,10.005859,,,,,,
1478385961.39,-2.986495,1.398270,-2.785630,0.679494,-1.241691,-2.042030,-0.026519,-0.985154,0.169611,0.559631,1.141694,0.998892,-3.090744,-29.122620,9.840088,,,,,,
1478385961.41,3.012534,1.324908,-2.506490,5.532198,-0.987275,-3.339569,0.031328,-0.969921,0.241394,0.196196,-1.848468,0.599473,0.360321,-28.596756,10.698059,,,,,,
1478385961.43,2.820470,1.277307,-2.355510,0.604142,-0.951784,-1.244321,0.091311,-0.957240,0.274506,0.071485,-3.976659,1.458221,2.840485,-26.418671,13.791321,,,,,,
1478385961.45,2.823855,1.229032,-2.337364,2.959878,1.567428,-1.194829,0.104707,-0.942165,0.318374,-0.172090,0.576061,-0.110488,3.512772,-26.792984,14.474121,,,,,,
1478385961.47,2.813208,1.178250,-2.294447,1.475956,1.348302,-1.655299,0.123376,-0.923938,0.362101,-0.214089,1.594501,-0.266200,3.512772,-26.792984,14.474121,,,,,,
1478385961.49,2.791346,1.151363,-2.246717,1.175026,1.084118,-1.166143,0.139737,-0.913320,0.382519,0.192126,1.113454,0.330891,4.491714,-25.366333,16.129639,,,,,,
1478385961.51,2.779877,1.098478,-2.216375,2.604291,0.502041,-1.921701,0.160998,-0.890516,0.425513,0.397290,0.296049,0.424463,5.020767,-24.090195,17.256104,,,,,,
1478385961.53,2.729741,1.056727,-2.158616,1.116561,0.101261,-1.776881,0.196841,-0.870751,0.450607,0.519041,-1.359596,0.004685,6.300156,-22.513382,19.064209,,,,,,
1478385961.55,2.728847,1.022833,-2.150468,1.340005,0.105003,-0.552070,0.208966,-0.853587,0.477202,0.472766,-0.017506,0.137178,6.226639,-21.987793,19.661865,,,,,,
1478385961.57,2.725502,0.999327,-2.154347,1.057508,-0.662584,-0.224530,0.218613,-0.841107,0.494720,0.243500,0.164685,0.160096,6.226639,-21.987793,19.661865,,,,,,
1478385961.59,2.715364,0.983564,-2.163022,0.601031,-0.764128,-0.096325,0.229070,-0.832477,0.504488,0.151728,-0.181942,0.384596,7.205765,-20.937408,20.043518,,,,,,
1478385961.61,2.707721,0.982662,-2.161517,-0.377923,-0.090529,-0.037411,0.233235,-0.831977,0.503404,0.177959,-0.203927,0.723632,7.731888,-20.486816,20.647400,,,,,,
1478385961.63,2.699582,1.001641,-2.150460,-1.330387,0.092176,0.278756,0.230527,-0.842357,0.487127,0.397402,-0.520284,0.624995,7.430527,-20.636353,21.094788,,,,,,
1478385961.65,2.696836,1.038101,-2.140931,-1.906178,0.446926,0.676183,0.218499,-0.861441,0.458450,0.575431,-1.094064,0.211594,8.255997,-20.937546,19.903992,,,,,,
1478385961.67,2.713751,1.077441,-2.145000,-1.644244,0.384294,1.157256,0.196494,-0.880749,0.430896,0.218789,-2.680042,-1.322498,8.255997,-20.937546,19.903992,,,,,,
1478385961.69,2.716950,1.113717,-2.181497,-1.090521,-2.623040,1.590137,0.181825,-0.897345,0.402133,-0.442827,-3.207986,-1.234698,7.425003,-22.513290,19.150391,,,,,,
1478385961.71,2.681852,1.117339,-2.219200,1.938717,-3.315363,-0.138410,0.194381,-0.898938,0.392590,-0.452789,-1.095996,-0.497891,7.047409,-23.339066,18.399109,,,,,,
1478385961.73,2.612328,1.057496,-2.209065,2.169955,-2.746662,-2.357693,0.247933,-0.871129,0.423868,-0.619103,0.596410,-0.660288,10.046707,-23.188126,19.328674,,,,,,
1478385961.75,2.517722,0.973206,-2.143641,3.192543,-1.508898,-4.646412,0.328691,-0.826694,0.456662,-1.043718,1.125980,-0.481472,13.951065,-21.836960,20.488647,,,,,,
1478385961.77,2.443280,0.848300,-2.081650,4.023999,-1.671933,-5.332410,0.425141,-0.750157,0.506477,-1.445862,-0.242747,-0.742424,13.951065,-21.836960,20.488647,,,,,,
1478385961.79,2.399679,0.723598,-2.067468,4.378687,-1.112599,-4.179564,0.506389,-0.662085,0.552462,-0.677470,-1.707696,-0.193300,18.085922,-18.909760,22.696228,,,,,,
1478385961.81,2.371978,0.598901,-2.062633,4.317698,-1.879648,-4.589917,0.574748,-0.563735,0.593184,-0.048564,-2.724580,0.117036,22.226761,-14.782928,24.525208,,,,,,
1478385961.83,2.311902,0.494731,-2.045991,2.393772,-2.503340,-3.853494,0.649267,-0.474795,0.594157,0.299799,-3.002393,-0.009760,24.794510,-10.206055,26.412170,,,,,,
1478385961.85,2.259337,0.419650,-2.034026,2.256686,-2.373341,-2.666358,0.705174,-0.407441,0.580277,-0.275670,-1.515838,-0.883866,32.618820,-4.505142,27.298340,,,,,,
1478385961.87,2.230671,0.366499,-2.055613,2.258169,-1.306678,-0.830009,0.737599,-0.358349,0.572306,-0.768193,-1.157398,-0.125406,32.618820,-4.505142,27.298340,,,,,,
1478385961.89,2.232211,0.347615,-2.066864,0.087961,0.654960,-0.306998,0.741925,-0.340656,0.577495,-0.887677,-0.843441,0.392277,35.174667,-3.079758,27.694641,,,,,,
1478385961.91,2.260859,0.361118,-2.044006,-1.906127,2.409862,0.006340,0.721465,-0.353320,0.595527,-1.066772,-0.540189,0.248436,35.846024,-3.754364,28.078308,,,,,,
1478385961.93,2.308367,0.401492,-2.010163,-2.881335,3.284953,0.851104,0.681250,-0.390792,0.619015,-0.756995,-0.176362,0.017017,34.861374,-5.779007,28.449524,,,,,,
1478385961.95,2.356959,0.479821,-1.977309,-4.351583,2.806237,2.504352,0.626779,-0.461620,0.627738,-0.461374,0.047695,0.129708,29.207138,-12.153671,28.787109,,,,,,
1478385961.97,2.390388,0.599980,-1.968918,-4.488116,1.293701,4.740436,0.563316,-0.564626,0.603219,-0.119194,0.282994,0.101630,29.207138,-12.153671,28.787109,,,,,,
1478385961.99,2.426484,0.737705,-2.004242,-4.140971,0.581356,5.921824,0.485227,-0.672592,0.558727,0.195208,0.591369,0.259557,26.190872,-16.280182,27.269409,,,,,,
1478385962.01,2.476278,0.875327,-2.049971,-4.451948,0.908661,5.280061,0.395537,-0.767753,0.504089,0.389299,0.935066,0.080674,22.123489,-20.706863,25.591980,,,,,,
1478385962.03,2.522981,1.009807,-2.092619,-4.562479,0.427247,5.123623,0.308523,-0.846729,0.433432,0.449365,1.278980,0.101984,18.734360,-24.533905,23.544556,,,,,,
1478385962.05,2.598647,1.145683,-2.175606,-4.661039,0.049709,5.351056,0.213083,-0.910992,0.353114,0.507559,1.681973,0.545644,14.747543,-28.061646,20.815308,,,,,,
1478385962.07,2.732850,1.266772,-2.308768,-3.867004,0.879162,4.594002,0.118983,-0.954140,0.274701,0.928639,2.311668,1.623553,14.747543,-28.061646,20.815308,,,,,,
1478385962.09,3.009188,1.332135,-2.563640,-1.152340,1.711100,3.802902,0.031209,-0.971655,0.234333,1.717814,3.290732,1.926403,6.259689,-33.168396,14.070740,,,,,,
1478385962.11,-3.030972,1.344313,-2.777192,-0.472225,1.856373,1.639861,-0.024790,-0.974462,0.223180,2.144830,2.422140,1.526729,2.810837,-33.620514,11.937622,,,,,,
1478385962.13,-2.924560,1.343960,-2.845199,0.141487,1.891861,0.400588,-0.048427,-0.974383,0.219620,2.337307,2.452944,1.251358,0.714722,-33.021286,11.164856,,,,,,
1478385962.15,-2.899554,1.342226,-2.847111,-0.197330,0.614994,-0.258457,-0.054308,-0.973991,0.219980,1.350375,2.118614,0.520392,-0.857330,-32.647125,10.323059,,,,,,
1478385962.17,-3.049203,1.314650,-2.687418,4.120401,0.021369,-2.791150,-0.023374,-0.967374,0.252274,0.097440,-1.062915,-0.758805,-0.857330,-32.647125,10.323059,,,,,,
1478385962.19,2.891960,1.256326,-2.368560,1.714480,-0.627322,-3.816395,0.076415,-0.950960,0.299725,0.501176,-5.808622,2.058597,-0.175049,-30.921829,10.624695,,,,,,
1478385962.21,2.895674,1.208383,-2.334594,1.658853,1.659275,-0.515187,0.086310,-0.935044,0.343866,0.398264,0.272660,0.167212,3.953857,-29.645599,11.862122,,,,,,
1478385962.23,2.912307,1.184675,-2.327344,1.773026,1.677639,-0.353606,0.085594,-0.926377,0.366742,0.213249,1.763871,-0.257962,4.254425,-28.968948,13.513062,,,,,,
1478385962.25,2.916103,1.139484,-2.311932,1.872218,0.167415,-1.388615,0.093472,-0.908418,0.407480,0.398365,1.437105,-0.019296,3.656570,-28.293350,14.105103,,,,,,
1478385962.27,2.850396,1.095122,-2.239335,1.626883,-0.106519,-2.178291,0.131473,-0.888984,0.438659,0.288708,-0.252404,0.202774,3.656570,-28.293350,14.105103,,,,,,
1478385962.29,2.816728,1.062540,-2.198292,1.214494,0.180769,-0.959149,0.155331,-0.873594,0.461200,0.462360,-1.217440,0.365018,3.809387,-27.166855,15.603210,,,,,,
,,,,,,,,,,,,,,,,37.354250,-122.033481,38.361389,0.220000,220.078125,1478386180.00
1478385962.31,2.816181,1.041636,-2.195081,0.711896,-0.129778,-0.090113,0.161387,-0.863231,0.478316,0.526754,-0.025563,0.335252,6.590347,-25.365402,17.050659,,,,,,
1478385962.33,2.809501,1.031697,-2.211336,0.515393,-1.430380,0.339803,0.167368,-0.858171,0.485315,0.314032,0.006044,0.157035,6.517838,-24.614807,17.647583,,,,,,
1478385962.35,2.799937,1.035553,-2.228507,-0.441428,-0.930719,0.570292,0.170891,-0.860145,0.480570,0.173393,-0.300774,0.835287,7.043594,-24.314423,18.026978,,,,,,
1478385962.37,2.795148,1.060747,-2.231715,-1.540591,-0.076450,0.426493,0.165778,-0.872721,0.459213,0.152978,-0.586889,0.644104,7.043594,-24.314423,18.026978,,,,,,
1478385962.39,2.791612,1.098548,-2.220635,-1.929338,0.546128,0.407229,0.155973,-0.890548,0.427314,0.230288,-1.311875,-0.310157,6.292709,-24.539505,17.945190,,,,,,
1478385962.41,2.802546,1.133557,-2.224319,-1.487057,-0.277959,0.870496,0.140831,-0.905924,0.399334,0.004249,-3.076589,-1.355710,6.434250,-27.016296,16.153992,,,,,,
1478385962.43,2.781215,1.166373,-2.260498,-0.394993,-3.802691,1.147968,0.138755,-0.919330,0.368212,-0.541648,-2.587308,-1.260684,6.356003,-27.916824,15.630920,,,,,,
1478385962.45,2.734181,1.135468,-2.286015,2.561596,-2.995855,-1.014634,0.167095,-0.906732,0.387191,-0.258495,-0.186759,0.011445,6.353500,-28.441742,15.707520,,,,,,
1478385962.47,2.660971,1.060662,-2.245448,2.624840,-1.536618,-3.223213,0.225753,-0.872679,0.432974,-0.706802,0.826231,-0.598517,6.353500,-28.441742,15.707520,,,,,,
1478385962.49,2.552467,0.961303,-2.148047,3.333429,-1.091136,-5.633252,0.318074,-0.819938,0.475952,-1.032261,0.830238,-0.324142,9.429276,-27.614761,17.685730,,,,,,
1478385962.51,2.474592,0.828510,-2.071594,4.464612,-0.651935,-5.487976,0.418180,-0.736925,0.531100,-1.315046,-0.950804,-0.591235,13.032913,-26.112717,19.742310,,,,,,
1478385962.53,2.457278,0.696274,-2.049905,4.631810,-0.222524,-4.611466,0.485003,-0.641363,0.594496,-0.312396,-1.762186,0.056108,20.633743,-18.607407,25.045776,,,,,,
1478385962.55,2.410842,0.562700,-2.025078,4.036776,-2.359471,-5.368412,0.564523,-0.533472,0.629858,0.742331,-3.372351,0.381022,23.201736,-13.729782,27.681885,,,,,,
1478385962.57,2.363384,0.448373,-1.993029,2.722790,-1.083799,-4.383172,0.632614,-0.433500,0.641776,1.044006,-3.228670,-0.162803,23.201736,-13.729782,27.681885,,,,,,
1478385962.59,2.347624,0.366860,-1.991156,2.983159,-0.790713,-2.085873,0.665687,-0.358686,0.654373,-0.148842,-1.501589,-0.671036,27.872177,-8.778549,28.913696,,,,,,
1478385962.61,2.335019,0.316011,-2.019217,2.286359,-1.218929,-0.287972,0.686173,-0.310778,0.657711,-0.660706,-1.203794,-0.237133,30.361557,-5.102097,30.352539,,,,,,
1478385962.63,2.325045,0.310223,-2.034800,-0.308372,-0.260515,0.533904,0.693998,-0.305271,0.652055,-1.056242,-0.738247,0.129927,33.294662,-2.625061,32.399475,,,,,,
1478385962.65,2.326545,0.345762,-2.017308,-2.527542,0.614475,0.865798,0.684688,-0.338913,0.645244,-1.377177,-0.178390,-0.280971,34.712326,-4.275116,32.343567,,,,,,
1478385962.67,2.336745,0.411691,-1.990840,-3.579137,1.258334,2.118999,0.660505,-0.400160,0.635300,-1.178022,0.289686,-0.266525,34.712326,-4.275116,32.343567,,,,,,
1478385962.69,2.351047,0.522435,-1.974193,-4.782221,0.765500,4.292995,0.615930,-0.498992,0.609621,-0.804315,0.478027,-0.277727,34.248032,-7.575485,31.973816,,,,,,
1478385962.71,2.362952,0.667472,-1.986177,-4.759048,0.018896,6.012210,0.551588,-0.619003,0.559094,-0.568266,0.534896,-0.109036,33.329391,-12.001373,31.077942,,,,,,
1478385962.73,2.383791,0.830441,-2.012976,-5.552825,0.302621,6.516973,0.463636,-0.738229,0.489959,-0.479032,0.710748,0.177842,30.607407,-17.553329,29.117310,,,,,,
1478385962.75,2.418618,1.007332,-2.054062,-5.580836,-0.244840,7.236604,0.353382,-0.845410,0.400504,-0.296314,1.003170,0.056695,24.336380,-29.408249,24.215210,,,,,,
1478385962.77,2.525034,1.187827,-2.195318,-4.757947,-1.377542,8.633484,0.216071,-0.927559,0.304872,0.077310,1.519661,0.358702,24.336380,-29.408249,24.215210,,,,,,
1478385962.79,2.897233,1.335322,-2.614080,-3.150535,-1.035735,8.606236,0.056444,-0.972404,0.226373,0.728285,1.700263,1.209265,19.216049,-35.262253,20.206604,,,,,,
1478385962.81,-2.653231,1.359358,2.941332,-1.616155,2.373585,7.049840,-0.098465,-0.977730,0.185334,1.729507,1.719994,1.621963,12.078659,-39.391357,16.097595,,,,,,
1478385962.83,-2.160103,1.307506,2.509170,-1.453296,4.084372,4.339969,-0.216360,-0.965539,0.144648,2.928442,1.767220,1.327352,3.823578,-41.193390,14.070496,,,,,,
1478385962.85,-1.914289,1.280894,2.329253,-1.548823,2.810456,1.174837,-0.269160,-0.958272,0.096271,3.288081,1.542287,0.964032,-7.419754,-41.348297,9.158508,,,,,,
1478385962.87,-1.794867,1.281179,2.239231,-1.171380,1.459806,-0.077208,-0.278446,-0.958353,0.063457,2.055683,1.038935,1.292225,-7.419754,-41.348297,9.158508,,,,,,
1478385962.89,-1.756597,1.308816,2.228183,1.649124,1.467482,-2.367251,-0.254536,-0.965879,0.047845,0.338108,0.134458,0.683738,-8.615479,-41.125488,6.970886,,,,,,
1478385962.91,-2.010743,1.384005,2.476230,1.041789,-1.347486,-4.939197,-0.168023,-0.982605,0.079091,0.634514,-6.427001,-1.196995,-8.615265,-41.652206,5.247437,,,,,,
1478385962.93,-2.638578,1.373454,3.116831,4.801294,0.052447,-3.265271,-0.094517,-0.980591,0.171778,0.520160,-1.170746,0.742376,-4.945587,-42.400894,6.561401,,,,,,
1478385962.95,-2.833605,1.353635,-2.967011,-0.141352,0.796878,-0.152029,-0.065314,-0.976513,0.205320,0.612601,1.153774,1.198214,-0.444855,-41.122559,9.902588,,,,,,
1478385962.97,-2.769344,1.304872,-2.991946,4.088033,1.533227,1.566830,-0.095584,-0.964850,0.244802,0.634402,1.977561,-0.127172,-0.444855,-41.122559,9.902588,,,,,,
1478385962.99,-2.792710,1.261507,-2.957719,1.593360,0.624483,-0.920886,-0.104052,-0.952550,0.286044,0.730929,0.886632,0.321454,-0.142120,-39.394180,13.275391,,,,,,
1478385963.01,-2.905378,1.248455,-2.826868,0.807633,0.396461,-1.807534,-0.074136,-0.948496,0.307991,0.422861,-0.449804,0.207649,-1.566422,-38.642395,15.058838,,,,,,
1478385963.03,-2.965823,1.233833,-2.757584,1.062633,0.049563,-0.199001,-0.057815,-0.943763,0.325529,0.226058,-1.247033,0.450442,0.535339,-37.966553,15.902893,,,,,,
1478385963.05,-2.967818,1.220249,-2.773998,0.574000,-1.417948,0.379471,-0.059376,-0.939185,0.338240,0.125950,0.103995,-0.213652,1.061371,-37.515869,16.581787,,,,,,
1478385963.07,-3.004605,1.205879,-2.771510,0.682644,-1.614711,-0.046113,-0.048734,-0.934153,0.353529,0.036482,0.195735,0.058367,1.061371,-37.515869,16.581787,,,,,,
1478385963.09,-3.018170,1.196044,-2.769862,0.424937,0.048168,0.061650,-0.045063,-0.930598,0.363257,-0.117901,-0.148534,0.075769,0.761490,-36.989380,18.077148,,,,,,
1478385963.11,-3.020705,1.188853,-2.756482,0.255222,0.621182,-0.333454,-0.044948,-0.927942,0.370005,-0.044316,0.015421,0.152090,1.288712,-36.389069,18.380615,,,,,,
1478385963.13,-3.028975,1.189419,-2.735575,-0.055188,0.393094,-0.392316,-0.041828,-0.928153,0.369842,0.039402,-0.059457,0.026398,1.588608,-36.388992,18.458679,,,,,,
1478385963.15,-3.041720,1.190433,-2.719403,0.052842,0.010293,-0.223302,-0.037017,-0.928530,0.369408,0.138152,-0.066328,-0.075386,1.587158,-36.688919,18.534546,,,,,,
1478385963.17,-3.045751,1.189097,-2.715086,0.034999,0.025498,-0.017086,-0.035646,-0.928033,0.370789,0.079851,0.026544,0.076889,1.587158,-36.688919,18.534546,,,,,,
1478385963.19,-3.044032,1.190768,-2.714230,-0.161564,0.186736,-0.036216,-0.036132,-0.928654,0.369183,-0.007676,0.010731,0.095615,2.112381,-36.764282,18.165039,,,,,,
1478385963.21,-3.043688,1.195935,-2.708589,-0.277306,0.331843,-0.180255,-0.035790,-0.930558,0.364390,-0.007072,-0.025222,0.011693,2.036682,-36.839066,18.389465,,,,,,
1478385963.23,-3.043573,1.202137,-2.700050,-0.311774,0.439265,-0.199251,-0.035266,-0.932811,0.358636,0.060046,0.028636,-0.015191,1.812485,-36.839600,17.862244,,,,,,
1478385963.25,-3.041445,1.208164,-2.693209,-0.265652,0.392694,-0.092457,-0.035467,-0.934966,0.352959,0.116063,-0.063950,-0.083611,1.737259,-36.914673,17.786743,,,,,,
1478385963.27,-3.035791,1.212314,-2.692772,-0.171282,0.240402,-0.007238,-0.037052,-0.936430,0.348891,0.119541,0.029799,-0.047301,1.737259,-36.914673,17.786743,,,,,,
1478385963.29,-3.028492,1.216115,-2.696404,-0.217951,0.204621,0.049209,-0.039195,-0.937757,0.345072,0.037791,-0.006334,0.025670,1.361816,-37.064819,17.633362,,,,,,
1478385963.31,-3.021124,1.221053,-2.698482,-0.264198,0.313699,-0.006130,-0.041180,-0.939461,0.340173,0.006161,0.044548,-0.027856,1.661697,-37.215195,17.261902,,,,,,
1478385963.33,-3.015440,1.225708,-2.697168,-0.193088,0.336415,-0.095641,-0.042562,-0.941046,0.335592,0.005239,-0.024012,-0.058553,1.812042,-37.215424,17.038391,,,,,,
,,,,,,,,,,,,,,,,37.354237,-122.033483,36.725037,0.970000,202.500000,1478386181.00
1478385963.35,-3.014797,1.230046,-2.690569,-0.191143,0.371063,-0.143621,-0.042261,-0.942504,0.331511,0.013025,-0.015824,-0.043044,1.360458,-37.515274,17.184814,,,,,,
1478385963.37,-3.017070,1.233851,-2.679956,-0.182816,0.387057,-0.236515,-0.041062,-0.943769,0.328046,0.019653,0.041685,-0.029111,1.360458,-37.515274,17.184814,,,,,,
1478385963.39,-3.021134,1.237796,-2.666693,-0.130868,0.455319,-0.255469,-0.039280,-0.945066,0.324511,-0.049221,-0.012011,-0.078112,1.210785,-37.590729,16.733521,,,,,,
1478385963.41,-3.031374,1.241295,-2.645445,-0.161277,0.554565,-0.424059,-0.035591,-0.946204,0.321608,-0.032264,0.054846,0.070390,1.959991,-37.891083,16.366943,,,,,,
1478385963.43,-3.043390,1.246949,-2.618123,-0.261012,0.726237,-0.493208,-0.031199,-0.948018,0.316683,-0.010686,0.004247,0.020246,1.886124,-37.741394,16.065735,,,,,,
1478385963.45,-3.059776,1.252645,-2.586187,-0.226807,0.674747,-0.526411,-0.025565,-0.949815,0.311764,0.034872,-0.073042,-0.076077,1.584320,-38.191544,15.914062,,,,,,
1478385963.47,-3.076849,1.257842,-2.555671,-0.227400,0.551518,-0.479741,-0.019919,-0.951428,0.307226,0.033118,0.059186,0.020106,1.584320,-38.191544,15.914062,,,,,,
1478385963.49,-3.095719,1.263206,-2.524537,-0.226321,0.533023,-0.509706,-0.013884,-0.953066,0.302444,0.015868,0.046618,-0.064773,2.410416,-38.041840,15.621887,,,,,,
1478385963.51,-3.120031,1.266738,-2.488642,-0.115441,0.481628,-0.558802,-0.006455,-0.954129,0.299325,-0.002563,-0.047854,-0.094400,2.710876,-38.042130,15.324890,,,,,,
1478385963.53,3.137021,1.269360,-2.450494,-0.166834,0.551611,-0.580067,0.001357,-0.954911,0.296889,-0.009689,0.041306,0.042192,3.160416,-38.192276,15.179810,,,,,,
1478385963.55,3.108887,1.272675,-2.408566,-0.160707,0.606449,-0.636532,0.009605,-0.955890,0.293568,0.015954,0.051792,-0.026829,3.159851,-38.417572,14.880493,,,,,,
1478385963.57,3.077214,1.275329,-2.363039,-0.178799,0.584629,-0.670813,0.018733,-0.956666,0.290583,0.090504,-0.017897,-0.003077,3.159851,-38.417572,14.880493,,,,,,
1478385963.59,3.044766,1.278690,-2.318032,-0.256155,0.487970,-0.609245,0.027840,-0.957639,0.286621,-0.002434,-0.024203,0.004715,3.911423,-38.192947,14.512329,,,,,,
1478385963.61,3.010173,1.283550,-2.273590,-0.343165,0.379799,-0.615036,0.037126,-0.959028,0.280869,0.025939,0.062665,0.045226,4.211426,-38.192947,14.515320,,,,,,
1478385963.63,2.971983,1.288573,-2.224686,-0.339131,0.429459,-0.657629,0.047009,-0.960439,0.274495,0.119068,0.009892,-0.081471,4.884140,-38.868454,13.999084,,,,,,
1478385963.65,2.930241,1.292864,-2.174826,-0.360893,0.272207,-0.593994,0.057557,-0.961625,0.268263,0.103454,-0.066451,0.045046,5.635147,-38.718674,13.781189,,,,,,
1478385963.67,2.894907,1.299141,-2.131658,-0.500491,0.342466,-0.475449,0.065523,-0.963328,0.260203,-0.061968,0.011714,0.107427,5.635147,-38.718674,13.781189,,,,,,
1478385963.69,2.851114,1.308940,-2.077774,-0.749289,0.457232,-0.616598,0.074144,-0.965911,0.248030,-0.067553,0.064559,0.092760,6.686172,-38.644119,13.341431,,,,,,
1478385963.71,2.791535,1.318836,-2.005692,-0.745320,0.476813,-0.765048,0.085499,-0.968426,0.234183,0.103680,0.023128,-0.049399,6.910995,-38.869720,12.744385,,,,,,
1478385963.73,2.716966,1.326065,-1.922233,-0.721099,0.223711,-0.789207,0.099821,-0.970202,0.220778,0.161699,-0.066251,0.006044,6.760117,-39.395691,11.769409,,,,,,
1478385963.75,2.647953,1.334723,-1.849192,-0.800997,0.030456,-0.505677,0.110823,-0.972264,0.205964,-0.020430,0.020024,0.073165,8.635239,-39.696640,10.814087,,,,,,
1478385963.77,2.570446,1.344325,-1.768093,-0.940254,0.167174,-0.719228,0.121386,-0.974465,0.188902,-0.058733,0.099938,0.132067,8.635239,-39.696640,10.814087,,,,,,
1478385963.79,2.460769,1.350653,-1.648267,-1.126936,0.448193,-0.986954,0.137449,-0.975866,0.169685,0.043734,0.011251,0.123207,9.385056,-39.922241,10.222229,,,,,,
1478385963.81,2.325290,1.351693,-1.499778,-1.158982,0.403573,-1.138848,0.158369,-0.976093,0.148871,0.085314,-0.069241,0.282434,10.059067,-40.523346,9.105774,,,,,,
1478385963.83,2.195150,1.354907,-1.356338,-1.322328,0.755902,-0.626389,0.173803,-0.976786,0.125225,-0.260564,-0.169668,0.386173,10.285965,-40.298950,8.507385,,,,,,
1478385963.85,2.101088,1.355403,-1.218061,-1.291910,2.973110,-1.102095,0.184377,-0.976892,0.108102,-0.459234,0.156611,0.558112,12.612839,-40.525879,6.581360,,,,,,
1478385963.87,1.947740,1.337850,-0.988275,-2.435227,3.429256,-2.399894,0.214639,-0.972990,0.084970,-0.659555,0.266417,1.115454,12.612839,-40.525879,6.581360,,,,,,
1478385963.89,1.716347,1.294561,-0.685167,-3.378150,3.025896,-3.354608,0.269852,-0.962089,0.039557,-0.578934,0.127769,1.121606,13.438217,-40.827072,5.390442,,,,,,
1478385963.91,1.521061,1.226563,-0.422527,-4.033565,2.634507,-3.665599,0.337058,-0.941335,-0.016778,-0.363211,-0.007869,0.695473,14.866287,-40.753845,3.604553,,,,,,
1478385963.93,1.400994,1.144706,-0.230179,-4.118253,3.151313,-3.611972,0.407369,-0.910589,-0.069845,-0.319524,0.016378,0.855947,18.095108,-40.906891,0.562317,,,,,,
1478385963.95,1.334784,1.060354,-0.071303,-4.533650,4.299397,-3.224905,0.475019,-0.872529,-0.114239,-0.359205,0.132950,1.513516,21.702591,-39.933960,-1.504578,,,,,,
1478385963.97,1.319954,0.975186,0.075274,-4.820370,6.256010,-3.352505,0.543457,-0.827806,-0.139255,-0.257095,0.215715,1.929263,21.702591,-39.933960,-1.504578,,,,,,
1478385963.99,1.376784,0.871887,0.187600,-4.143051,7.905339,-4.847923,0.631312,-0.765544,-0.124043,0.051931,-0.244389,1.787617,27.494064,-37.537735,-5.278870,,,,,,
1478385964.01,1.468434,0.763029,0.281519,-4.048891,7.805017,-4.789272,0.718962,-0.691114,-0.073852,0.040940,-0.562090,1.716568,30.352097,-35.512039,-4.581360,,,,,,
1478385964.03,1.548362,0.668003,0.381567,-3.976129,6.955383,-4.294667,0.784863,-0.619419,-0.017611,-0.081830,-0.221737,1.261645,34.340012,-32.285965,-3.501099,,,,,,
1478385964.05,1.619912,0.593181,0.471582,-3.385081,5.781352,-3.426104,0.828167,-0.559001,0.040709,-0.184429,-0.282628,0.895952,36.977158,-29.209808,-2.358948,,,,,,
1478385964.07,1.682915,0.547939,0.550560,-2.995000,5.093667,-1.980673,0.848240,-0.520929,0.095504,-0.420842,-0.111029,0.862656,36.977158,-29.209808,-2.358948,,,,,,
1478385964.09,1.749213,0.531572,0.620066,-2.814649,5.205061,-0.842183,0.848328,-0.506889,0.152983,-0.634735,0.094703,0.766558,39.398087,-23.657104,0.348572,,,,,,
1478385964.11,1.826560,0.538285,0.687506,-3.006069,5.827967,-0.003160,0.830659,-0.512665,0.217209,-0.760027,0.293442,0.645218,40.675430,-22.455078,2.382751,,,,,,
1478385964.13,1.913193,0.565256,0.756337,-3.318535,6.247752,0.664147,0.795433,-0.535632,0.283521,-0.811592,0.429553,0.511782,40.673630,-22.077744,4.706604,,,,,,
1478385964.15,2.000927,0.611153,0.822696,-3.495291,6.221195,1.353967,0.744387,-0.573812,0.341509,-0.840609,0.464239,0.369825,39.465439,-22.824524,7.921692,,,,,,
1478385964.17,2.091801,0.676555,0.882898,-3.777218,6.442050,2.063517,0.676279,-0.626110,0.388114,-0.777918,0.485119,0.208428,39.465439,-22.824524,7.921692,,,,,,
1478385964.19,2.183973,0.761258,0.940005,-4.329379,6.477417,2.605412,0.592079,-0.689833,0.416621,-0.639275,0.509382,0.057943,37.052536,-24.922226,10.228943,,,,,,
1478385964.21,2.265545,0.864952,0.995573,-4.849109,5.730123,3.186879,0.498323,-0.761064,0.415278,-0.407426,0.674669,0.307134,29.375778,-29.944443,13.017212,,,,,,
1478385964.23,2.328009,0.985705,1.035233,-4.832616,3.999745,4.024065,0.401368,-0.833662,0.379357,-0.116212,0.824552,0.324973,24.339706,-32.720383,12.075195,,,,,,
1478385964.25,2.367025,1.108992,1.049515,-4.680335,1.697993,3.976329,0.311631,-0.895250,0.318455,0.273056,0.624132,0.254116,19.607559,-35.273270,9.185486,,,,,,
1478385964.27,2.321188,1.226352,1.116795,-5.074591,0.571878,2.912671,0.246982,-0.941263,0.230268,0.700024,0.134684,0.817034,19.607559,-35.273270,9.185486,,,,,,
1478385964.29,2.240778,1.330914,1.226059,-4.307206,1.882809,3.163349,0.186229,-0.971366,0.147535,1.004719,-0.208169,1.520266,14.729782,-37.001617,5.841919,,,,,,
1478385964.31,2.172754,1.434518,1.355928,-3.828609,3.224696,3.415747,0.111977,-0.990729,0.076930,1.040291,-0.376245,1.308095,9.491287,-37.159760,-2.309998,,,,,,
1478385964.33,1.902964,1.513126,1.666554,-2.654290,1.002010,2.433001,0.054488,-0.998338,0.018796,1.128907,-0.259597,1.156803,6.573105,-36.562500,-5.040955,,,,,,
,,,,,,,,,,,,,,,,37.354225,-122.033476,35.529205,1.380000,166.640625,1478386182.00
1478385964.35,0.572710,1.546810,2.983798,-1.515745,-1.501688,1.874695,0.012997,-0.999712,-0.020157,1.523273,-0.388425,0.875122,4.777603,-36.189392,-6.934998,,,,,,
1478385964.37,-0.625424,1.533321,-2.137615,0.053225,-1.893688,1.622062,-0.021934,-0.999298,-0.030374,1.266334,0.071823,1.199198,4.777603,-36.189392,-6.934998,,,,,,
1478385964.39,-1.317379,1.522287,-1.471397,1.338528,-0.785901,0.875176,-0.046941,-0.998824,-0.012157,0.827718,0.659956,1.384990,2.528763,-36.190170,-7.707520,,,,,,
1478385964.41,-2.081365,1.516817,-0.701100,2.258054,0.756899,-0.591267,-0.047072,-0.998544,0.026365,0.524016,0.877129,0.752977,2.081696,-35.515091,-7.638977,,,,,,
1478385964.43,-2.897909,1.492280,0.131073,2.566896,0.557266,-1.765475,-0.018925,-0.996919,0.076118,0.691609,0.718904,0.309715,2.304337,-34.986954,-4.488403,,,,,,
1478385964.45,3.039983,1.440314,0.495250,2.885519,0.927436,-1.606844,0.013198,-0.991499,0.129441,0.673219,0.612166,0.940063,3.202316,-34.684692,-2.230347,,,,,,
1478385964.47,2.905606,1.369605,0.620752,3.803989,0.256825,-2.200065,0.046722,-0.979829,0.194298,0.830811,0.276124,2.247840,3.202316,-34.684692,-2.230347,,,,,,
1478385964.49,2.739663,1.279749,0.865046,2.453682,2.970355,-5.180122,0.112255,-0.957944,0.264087,-0.356671,-4.697909,-3.049762,5.379990,-33.332413,0.037415,,,,,,
1478385964.51,2.538264,1.167229,1.107391,4.060602,2.022418,-6.870178,0.222814,-0.919666,0.323371,1.057460,-4.188107,1.065744,7.250687,-33.329544,2.906128,,,,,,
1478385964.53,2.550627,1.054480,1.197686,1.393441,5.456748,-2.883361,0.275060,-0.869644,0.409953,0.320612,0.333923,0.695653,15.358627,-29.573563,8.900940,,,,,,
1478385964.55,2.653938,1.005772,1.146321,4.050141,-0.202908,1.040692,0.250881,-0.844576,0.473023,-0.113049,2.342943,-1.401978,15.204575,-29.646088,11.374573,,,,,,
1478385964.57,2.643139,0.961788,1.102168,1.935500,-1.911216,-1.233810,0.273481,-0.820216,0.502449,0.583956,1.393168,1.152031,15.204575,-29.646088,11.374573,,,,,,
1478385964.59,2.605006,0.893958,1.144025,2.660672,0.272375,-3.041791,0.320184,-0.779557,0.538306,0.054450,0.069443,0.436227,15.809311,-27.994278,13.175720,,,,,,
1478385964.61,2.599182,0.824690,1.159599,2.506964,0.295119,-1.805832,0.350390,-0.734338,0.581356,-0.049090,-1.330634,-0.005856,18.137100,-26.942993,14.470764,,,,,,
1478385964.63,2.592262,0.771427,1.167249,2.067103,-0.243828,-1.495032,0.374314,-0.697159,0.611439,0.030807,0.169861,0.168651,19.269485,-24.766403,16.050598,,,,,,
1478385964.65,2.580705,0.719434,1.169217,2.177469,-0.707090,-1.362561,0.400113,-0.658959,0.636932,-0.188778,-0.599097,0.334351,21.227951,-22.063919,18.537048,,,,,,
1478385964.67,2.560927,0.667908,1.172463,2.063709,-0.967394,-1.767339,0.430701,-0.619345,0.656436,-0.207251,-0.586222,0.182828,21.227951,-22.063919,18.537048,,,,,,
1478385964.69,2.534728,0.608731,1.189615,2.105415,-0.656729,-2.393576,0.467855,-0.571827,0.673889,0.127909,-0.671826,0.037140,22.508469,-20.638306,19.145630,,,,,,
1478385964.71,2.517705,0.542737,1.202373,2.579179,-0.489674,-2.224550,0.500245,-0.516482,0.694983,0.202102,-0.792493,-0.120322,24.390305,-18.837479,19.984070,,,,,,
1478385964.73,2.506401,0.476033,1.198100,2.949796,-0.782932,-1.520621,0.527365,-0.458257,0.715462,-0.066275,-0.649424,-0.110436,25.296494,-17.111420,21.037964,,,,,,
1478385964.75,2.493827,0.412810,1.179360,3.078559,-1.208796,-1.121979,0.552719,-0.401184,0.730447,-0.194992,-0.561416,-0.253000,27.790939,-12.385208,22.248718,,,,,,
1478385964.77,2.468718,0.349132,1.159935,3.036469,-1.827991,-1.399408,0.585637,-0.342082,0.734853,-0.093556,-0.863850,0.029948,27.790939,-12.385208,22.248718,,,,,,
1478385964.79,2.437168,0.282493,1.153676,2.476148,-1.524089,-2.135690,0.621927,-0.278751,0.731782,-0.068155,-1.954739,-0.054688,29.149857,-10.284821,22.630981,,,,,,
1478385964.81,2.409044,0.218362,1.157045,2.499886,-1.311133,-2.182073,0.652886,-0.216631,0.725818,-0.151604,-2.612227,-0.752627,31.185287,-8.035034,22.419556,,,,,,
1478385964.83,2.378807,0.160957,1.150342,2.162932,-1.824851,-1.399851,0.682007,-0.160263,0.713570,-0.805512,-1.445434,-1.486092,31.646072,-5.635040,22.416992,,,,,,
1478385964.85,2.337467,0.119221,1.144847,1.230574,-2.046280,-1.332635,0.715112,-0.118939,0.688817,-1.032998,-0.667011,-1.100362,33.681961,-3.310333,22.130371,,,,,,
1478385964.87,2.299583,0.106344,1.165064,-0.931315,-1.422883,-0.998128,0.741768,-0.106144,0.662203,-1.323205,-0.698406,-0.890902,33.681961,-3.310333,22.130371,,,,,,
1478385964.89,2.281683,0.124120,1.193693,-2.175380,-0.517300,0.338795,0.751954,-0.123802,0.647486,-1.367723,-1.014412,-0.452448,37.220657,-0.987473,19.983826,,,,,,
1478385964.91,2.266403,0.184113,1.223221,-3.535421,-0.557690,1.847067,0.754691,-0.183074,0.630021,-1.326071,-0.703538,-0.107621,38.417709,-1.662537,19.922791,,,,,,
1478385964.93,2.253818,0.274564,1.256980,-4.420225,0.070015,2.768235,0.746615,-0.271128,0.607499,-1.178393,-0.417761,-0.031617,38.332230,-4.288422,19.029785,,,,,,
1478385964.95,2.259237,0.383662,1.283806,-4.417216,0.996091,3.912931,0.716096,-0.374319,0.589145,-0.746324,-0.138789,-0.162768,38.990311,-8.339310,18.148560,,,,,,
1478385964.97,2.280219,0.513393,1.294825,-4.661837,1.377106,4.975565,0.660924,-0.491136,0.567420,-0.492116,-0.079573,-0.029151,38.990311,-8.339310,18.148560,,,,,,
1478385964.99,2.304540,0.651745,1.302192,-4.898752,1.468049,4.890998,0.590444,-0.606575,0.532393,-0.266485,-0.061379,0.320664,36.319717,-19.216537,15.904480,,,,,,
1478385965.01,2.326530,0.785986,1.318014,-5.030548,1.760548,4.316762,0.514307,-0.707523,0.484665,0.098821,-0.051251,0.473831,31.871567,-25.068680,13.777527,,,,,,
1478385965.03,2.347500,0.914735,1.342092,-4.993370,1.995465,4.050367,0.435069,-0.792401,0.427569,0.478383,0.006665,0.427061,28.406845,-29.572372,10.081421,,,,,,
1478385965.05,2.361117,1.045633,1.361417,-4.998067,0.979375,4.391596,0.352762,-0.865242,0.356252,0.629248,0.173378,0.378245,24.274673,-32.576599,5.849060,,,,,,
1478385965.07,2.349491,1.177149,1.366518,-4.583595,-1.216297,4.655519,0.273030,-0.923516,0.269393,0.573589,0.290566,0.515381,24.274673,-32.576599,5.849060,,,,,,
1478385965.09,2.317422,1.301240,1.360185,-3.989194,-2.013899,4.341312,0.195463,-0.963889,0.180864,0.812350,0.157340,0.667677,19.923264,-34.456299,1.161194,,,,,,
1478385965.11,2.269634,1.403914,1.385491,-3.314331,-0.383847,3.287095,0.127171,-0.986107,0.106863,0.954661,-0.054450,1.106120,12.064774,-33.639847,-7.394836,,,,,,
1478385965.13,2.195679,1.485637,1.470101,-2.812804,0.748253,2.765418,0.068984,-0.996376,0.049758,1.105409,-0.116264,1.500947,9.747452,-32.892731,-10.270203,,,,,,
1478385965.15,1.835431,1.553806,1.840513,-1.736089,0.051173,2.497200,0.016398,-0.999856,0.004444,1.198476,0.232857,1.197979,8.179550,-31.994766,-12.313660,,,,,,
1478385965.17,-1.000334,1.542426,-1.629085,-0.677712,-1.526334,1.604706,-0.023875,-0.999598,-0.015319,1.462412,0.491587,1.133254,8.179550,-31.994766,-12.313660,,,,,,
1478385965.19,-1.254612,1.525792,-1.412541,0.475363,-2.142393,0.592153,-0.042759,-0.998987,-0.013989,1.295246,0.348887,0.849896,6.534866,-31.170837,-13.382507,,,,,,
1478385965.21,-1.751619,1.524323,-0.953560,1.295072,-1.658177,-0.130548,-0.045699,-0.998920,0.008355,0.744887,0.293827,1.052116,4.963730,-30.345932,-13.475708,,,,,,
1478385965.23,-2.454866,1.516337,-0.276117,1.815835,-1.251871,-0.761030,-0.034510,-0.998517,0.042094,0.544047,0.487958,0.719564,4.736557,-30.494965,-12.502502,,,,,,
1478385965.25,-3.006194,1.485691,0.218304,2.127935,-5.593890,-0.944448,-0.011474,-0.996381,0.084225,0.545654,0.681149,1.248859,5.636581,-30.043594,-11.144897,,,,,,
1478385965.27,2.935191,1.385714,0.572253,8.207154,3.813155,-4.136766,0.037714,-0.982921,0.180121,0.937078,0.295589,3.877298,5.636581,-30.043594,-11.144897,,,,,,
1478385965.29,2.655418,1.297545,0.804319,3.940519,-4.353078,-4.206185,0.126093,-0.962899,0.238593,-1.555475,-5.207649,-5.401542,5.860794,-29.666946,-9.493774,,,,,,
1478385965.31,2.566265,1.155671,0.917865,4.908090,4.559850,-5.272979,0.219442,-0.915066,0.338378,0.402003,-4.011341,1.951249,8.403458,-30.188629,-6.166748,,,,,,
,,,,,,,,,,,,,,,,37.354218,-122.033467,36.287689,0.970000,353.671875,1478386183.00
1478385965.33,2.526743,1.096106,1.081717,-1.071573,4.407271,-4.388464,0.263650,-0.889434,0.373357,-0.475930,0.721435,0.738338,16.205551,-27.632324,0.128601,,,,,,
1478385965.35,2.517656,1.024602,1.114914,2.108356,-0.871152,-1.587463,0.303474,-0.854508,0.421569,-0.215751,2.456162,-1.752364,18.003799,-27.480728,1.721069,,,,,,
1478385965.37,2.532995,0.992239,1.092919,2.909439,0.394699,-0.298344,0.312625,-0.837252,0.448636,0.155637,1.479067,0.997394,18.003799,-27.480728,1.721069,,,,,,
1478385965.39,2.563438,0.918042,1.063073,3.684798,0.269861,-2.055962,0.331919,-0.794414,0.508661,0.158590,0.468685,0.611761,19.057602,-26.279678,2.778015,,,,,,
1478385965.41,2.546975,0.845234,1.095113,1.125639,0.525832,-3.143090,0.371719,-0.748126,0.549666,0.402588,-1.275861,-0.001936,20.034988,-25.228104,4.359619,,,,,,
1478385965.43,2.544207,0.793506,1.122398,1.985543,0.816446,-1.685603,0.394497,-0.712817,0.579883,0.227863,-0.317762,0.265088,22.817734,-22.525146,7.304382,,,,,,
1478385965.45,2.543732,0.741038,1.123829,2.242501,-0.455000,-1.452533,0.415272,-0.675054,0.609796,-0.012928,0.370702,-0.245950,23.194992,-21.473511,8.955017,,,,,,
1478385965.47,2.532805,0.689751,1.120753,2.122802,-0.633975,-1.390196,0.441145,-0.636345,0.632815,-0.009673,-0.327369,0.216809,23.194992,-21.473511,8.955017,,,,,,
1478385965.49,2.520947,0.637004,1.121078,2.168169,-0.586953,-1.576962,0.467505,-0.594790,0.653960,0.059884,-0.700620,0.206437,24.925705,-19.897583,9.867615,,,,,,
1478385965.51,2.509411,0.579731,1.119269,2.512355,-0.650508,-1.644917,0.494358,-0.547799,0.674927,-0.001225,-0.375983,-0.116104,25.530411,-18.621918,10.544861,,,,,,
1478385965.53,2.499541,0.518436,1.113739,2.645472,-0.613113,-1.593298,0.520149,-0.495523,0.695631,0.113609,-0.468039,0.002871,26.660599,-17.271301,11.152039,,,,,,
1478385965.55,2.489924,0.457023,1.102565,2.832003,-0.855920,-1.342562,0.544268,-0.441279,0.713474,-0.013476,-0.611822,0.001156,27.722855,-13.969589,12.877808,,,,,,
1478385965.57,2.476566,0.397012,1.083487,2.918647,-1.156242,-1.051559,0.569084,-0.386664,0.725696,-0.247764,-0.696771,0.004514,27.722855,-13.969589,12.877808,,,,,,
1478385965.59,2.458284,0.338195,1.060999,3.007029,-1.481594,-1.069395,0.595599,-0.331785,0.731560,-0.346560,-0.978579,0.099815,28.854843,-12.319260,13.184143,,,,,,
1478385965.61,2.434796,0.274889,1.044593,2.683508,-1.167743,-1.583005,0.625020,-0.271440,0.731895,-0.190983,-1.715681,0.486870,30.288040,-10.293655,13.792419,,,,,,
1478385965.63,2.407645,0.223824,1.043926,1.927211,-1.643456,-1.864488,0.653098,-0.221959,0.724014,-0.342292,-2.421260,-0.425613,30.821609,-8.418747,13.717102,,,,,,
1478385965.65,2.371067,0.147968,1.034006,3.283297,-2.157525,-2.264201,0.688902,-0.147429,0.709704,-0.349409,-1.568880,-0.374193,32.944870,-3.394180,13.273315,,,,,,
1478385965.67,2.332601,0.096802,1.031456,1.133219,-1.627738,-1.373283,0.720204,-0.096650,0.686997,-0.646184,-1.195525,-0.317750,32.944870,-3.394180,13.273315,,,,,,
1478385965.69,2.307751,0.065736,1.036324,0.709758,-1.122203,-1.353397,0.738919,-0.065689,0.670585,-1.029553,-0.991379,-0.898566,33.858139,-0.694931,12.524292,,,,,,
1478385965.71,2.285167,0.060209,1.060655,-1.328916,-0.569313,-0.706891,0.754137,-0.060172,0.653955,-1.270632,-1.079797,-1.194879,34.617477,1.179474,11.926208,,,,,,
1478385965.73,2.298201,0.085536,1.086332,-2.185794,1.177767,0.650115,0.744172,-0.085432,0.662502,-1.406526,-1.254427,-0.712200,34.772537,2.229248,11.699646,,,,,,
1478385965.75,2.303329,0.148943,1.110916,-3.464533,-0.294767,2.125742,0.735251,-0.148392,0.661351,-1.555747,-0.618575,-0.565419,35.368149,1.630371,12.832458,,,,,,
1478385965.77,2.288337,0.242948,1.119359,-3.388268,-0.605465,3.961638,0.731299,-0.240565,0.638224,-1.150504,0.044871,-0.478983,35.368149,1.630371,12.832458,,,,,,
1478385965.79,2.292324,0.368242,1.114814,-4.362854,0.622997,5.265728,0.700465,-0.359976,0.616251,-0.660075,0.205282,-0.224161,35.655380,-1.294907,12.544067,,,,,,
1478385965.81,2.313714,0.513159,1.116087,-5.122344,1.283342,5.307892,0.641636,-0.490931,0.589313,-0.516239,0.125300,-0.007877,35.036636,-5.645432,12.025940,,,,,,
1478385965.83,2.338609,0.662768,1.124791,-5.575369,1.628835,5.160612,0.567123,-0.615301,0.547519,-0.304305,-0.136591,-0.063434,33.063339,-10.820435,12.021729,,,,,,
1478385965.85,2.365412,0.816189,1.136030,-5.754270,1.607876,5.159174,0.479885,-0.728541,0.488814,-0.106182,-0.207998,0.122117,31.467941,-15.846939,10.520874,,,,,,
1478385965.87,2.382524,0.973554,1.146331,-5.940809,1.070378,5.333661,0.387045,-0.826890,0.407983,0.207453,-0.101119,0.443839,31.467941,-15.846939,10.520874,,,,,,
1478385965.89,2.398888,1.134852,1.140560,-5.759548,0.217702,5.718400,0.285572,-0.906472,0.311059,0.673748,-0.016136,0.735190,24.912735,-24.101547,5.905029,,,,,,
1478385965.91,2.421102,1.289906,1.116778,-5.203284,-0.079720,5.213185,0.182891,-0.960809,0.208319,1.283173,-0.033500,0.859124,20.177994,-27.404968,2.492615,,,,,,
1478385965.93,2.442093,1.415317,1.086777,-4.274808,-0.640260,3.737768,0.099700,-0.987937,0.118489,1.547532,-0.266884,1.117321,16.649185,-29.583969,-1.511108,,,,,,
1478385965.95,2.465391,1.511019,1.053503,-3.222535,-0.237885,3.059052,0.037389,-0.998214,0.046596,1.858836,-0.563493,1.774571,13.576370,-30.262451,-4.989807,,,,,,
1478385965.97,-1.287525,1.547148,-1.479394,-2.093206,-0.389024,2.828753,-0.022703,-0.999720,-0.006609,1.571104,-0.308706,1.059877,13.576370,-30.262451,-4.989807,,,,,,
1478385965.99,-1.121257,1.500786,-1.670924,-0.809451,-1.398457,1.451013,-0.063003,-0.997550,-0.030398,1.088363,0.446433,1.108172,8.779800,-31.016998,-9.535522,,,,,,
1478385966.01,-1.203321,1.489323,-1.595551,0.457808,0.412293,0.152587,-0.075950,-0.996683,-0.029238,0.855583,0.740152,1.155428,6.454361,-31.317612,-10.157837,,,,,,
1478385966.03,-1.401307,1.510738,-1.365939,1.438724,2.040829,-1.391508,-0.059162,-0.998197,-0.010124,0.643299,0.791318,0.898964,6.605301,-31.092545,-10.082031,,,,,,
1478385966.05,-2.550511,1.538241,-0.170386,2.227853,2.307369,-2.371282,-0.018139,-0.999470,0.027027,0.575252,0.957814,0.953777,7.053299,-31.316940,-9.476929,,,,,,
1478385966.07,2.767101,1.491926,0.832262,2.252199,1.385846,-2.340653,0.028821,-0.996891,0.073328,0.459171,0.912297,0.326071,7.053299,-31.316940,-9.476929,,,,,,
1478385966.09,2.643143,1.444392,0.970710,1.370141,0.999572,-1.082512,0.060268,-0.992022,0.110728,0.535221,0.783037,2.028432,9.149918,-31.540329,-7.880249,,,,,,
1478385966.11,2.622427,1.309973,0.919402,5.500628,-10.228839,-4.449307,0.127947,-0.966178,0.223896,-0.383226,-3.316888,-2.040761,11.018265,-31.912018,-4.560425,,,,,,
1478385966.13,2.457479,1.179915,0.995938,5.751431,2.770323,-5.090492,0.240789,-0.924574,0.295270,0.504954,-4.891298,3.414768,14.092606,-31.084061,-1.607178,,,,,,
1478385966.15,2.398467,1.101292,1.165077,-1.174391,4.697944,-5.482938,0.306120,-0.891793,0.333161,-0.416319,1.221764,-0.922654,17.544571,-29.505661,1.797607,,,,,,
1478385966.17,2.403602,0.985991,1.220276,3.299062,0.716308,-3.955060,0.371412,-0.833820,0.408409,-0.537366,2.235385,-1.432853,17.544571,-29.505661,1.797607,,,,,,
1478385966.19,2.390847,0.949174,1.227218,2.684925,0.090247,-0.077341,0.397273,-0.812935,0.425806,-0.094493,1.842751,0.662222,19.497360,-28.604813,2.639404,,,,,,
1478385966.21,2.448380,0.884628,1.142475,4.163098,-0.726930,-0.697770,0.404863,-0.773680,0.487346,-0.061678,0.501386,0.920140,22.955276,-25.751495,5.965454,,,,,,
1478385966.23,2.457369,0.810934,1.126794,1.880243,0.274344,-2.724716,0.435385,-0.724931,0.533775,0.394129,-0.905639,0.434685,23.332047,-24.624313,8.140808,,,,,,
1478385966.25,2.458262,0.745563,1.153946,2.190879,0.831834,-2.515368,0.463878,-0.678385,0.569746,0.449635,-1.079274,0.349276,24.236435,-23.273178,9.270813,,,,,,
1478385966.27,2.457764,0.685552,1.157206,2.355850,-0.416916,-1.783442,0.489031,-0.633100,0.600028,-0.109728,0.106916,0.116601,24.236435,-23.273178,9.270813,,,,,,
1478385966.29,2.440391,0.626529,1.157339,2.235319,-0.773576,-1.944896,0.522604,-0.586336,0.618946,0.089029,-0.407591,0.046947,24.540573,-21.921906,10.544861,,,,,,
1478385966.31,2.429949,0.569818,1.155310,2.179705,-0.587233,-1.693401,0.549892,-0.539478,0.637637,0.049168,-0.001995,0.084500,26.121323,-20.421219,11.231079,,,,,,
,,,,,,,,,,,,,,,,37.354214,-122.033461,36.503906,0.770000,270.000000,1478386184.00
1478385966.33,2.417956,0.514731,1.151600,2.209997,-0.739964,-1.714068,0.576321,-0.492301,0.652299,0.061878,-0.290414,-0.002305,28.158676,-17.345230,12.217224,,,,,,
1478385966.35,2.404842,0.456873,1.149059,2.260667,-0.698589,-1.928619,0.602974,-0.441144,0.664691,0.060722,-0.918902,-0.032825,29.290176,-15.769852,12.598816,,,,,,
1478385966.37,2.396322,0.393447,1.140636,2.869470,-0.471261,-1.759159,0.626354,-0.383374,0.678753,-0.165844,-1.190295,0.091145,29.290176,-15.769852,12.598816,,,,,,
1478385966.39,2.393854,0.325166,1.120274,3.235744,-0.652190,-1.565636,0.644350,-0.319467,0.694805,-0.482607,-0.824302,0.221989,29.072983,-13.969650,12.816284,,,,,,
1478385966.41,2.380525,0.257933,1.098749,3.045318,-1.067121,-1.580998,0.666879,-0.255082,0.700146,-0.498895,-0.791091,-0.098172,29.984085,-11.494644,12.817993,,,,,,
1478385966.43,2.360416,0.201144,1.092437,1.523081,-1.185390,-1.805135,0.689920,-0.199790,0.695769,-0.277597,-1.385964,-0.593001,30.604904,-6.919785,12.660400,,,,,,
1478385966.45,2.331913,0.162901,1.102232,1.253882,-1.226600,-1.687122,0.714480,-0.162182,0.680599,-0.292483,-2.272557,-0.868984,30.613480,-5.270554,11.905579,,,,,,
1478385966.47,2.296951,0.121944,1.104944,0.832656,-2.246515,-1.357312,0.742180,-0.121642,0.659069,-0.649437,-1.668824,-1.059154,30.613480,-5.270554,11.905579,,,,,,
1478385966.49,2.258450,0.100333,1.109033,0.179767,-1.666427,-0.742509,0.768851,-0.100165,0.631534,-0.999518,-0.934458,-0.616046,31.301193,-2.721375,11.079773,,,,,,
1478385966.51,2.221989,0.110319,1.127779,-1.410759,-1.526610,0.201730,0.790527,-0.110095,0.602451,-1.270950,-0.994702,-0.693835,31.685654,-1.072739,9.728699,,,,,,
1478385966.53,2.200772,0.148150,1.141383,-2.026498,-0.804277,1.724079,0.799190,-0.147609,0.582672,-1.379284,-1.346242,-0.146728,32.067856,0.201309,8.753723,,,,,,
1478385966.55,2.185564,0.226790,1.160828,-3.626029,-0.342104,3.035659,0.795989,-0.224850,0.561999,-1.396011,-1.235507,0.145932,30.940598,-0.699921,7.545166,,,,,,
1478385966.57,2.189470,0.324492,1.191268,-4.125403,1.353902,3.311903,0.772134,-0.318827,0.549689,-0.893197,-0.547704,0.126931,30.940598,-0.699921,7.545166,,,,,,
1478385966.59,2.228717,0.443218,1.215041,-4.640404,2.822258,4.723227,0.714810,-0.428849,0.552390,-0.559460,-0.225234,-0.030372,31.083145,-2.349899,7.551575,,,,,,
1478385966.61,2.281080,0.593170,1.214618,-4.705971,2.171275,6.435072,0.628660,-0.558992,0.540661,-0.188368,0.041002,-0.229687,29.494644,-5.199463,7.994202,,,,,,
1478385966.63,2.325892,0.758314,1.187677,-4.922283,1.066508,6.833383,0.528675,-0.687698,0.497568,0.299297,0.237762,-0.220057,27.377701,-8.648499,8.958374,,,,,,
1478385966.65,2.354546,0.919825,1.162851,-5.081083,0.082770,6.091053,0.429184,-0.795495,0.427771,0.748383,0.449411,0.050912,21.875504,-15.325409,7.048401,,,,,,
1478385966.67,2.346729,1.073604,1.145709,-5.032828,-1.873252,5.628471,0.340439,-0.878925,0.334054,1.078461,0.588764,0.031821,21.875504,-15.325409,7.048401,,,,,,
1478385966.69,2.311179,1.214417,1.140935,-4.592673,-1.626464,4.890567,0.257549,-0.937166,0.235346,1.141331,0.267672,0.809896,19.391769,-17.877228,5.231201,,,,,,
1478385966.71,2.302796,1.337404,1.153501,-4.068049,1.503605,4.212027,0.172035,-0.972887,0.154577,1.162362,0.037081,1.490839,17.137833,-19.604797,2.663879,,,,,,
1478385966.73,2.314121,1.442522,1.212534,-3.916851,4.244179,3.025332,0.094180,-0.991784,0.086571,1.195035,-0.097495,1.880165,14.807571,-21.331467,0.995667,,,,,,
1478385966.75,1.855061,1.513817,1.742248,-3.269358,2.455437,1.194536,0.054663,-0.998377,0.015971,1.135477,-0.173727,1.166493,12.631607,-21.932602,-0.149231,,,,,,
1478385966.77,0.792072,1.534842,2.804342,-1.703604,-1.438680,1.845765,0.025587,-0.999354,-0.025248,1.587511,-0.017950,0.341105,12.631607,-21.932602,-0.149231,,,,,,
1478385966.79,-0.342128,1.520546,-2.385205,-0.755398,-2.098107,1.910774,-0.016851,-0.998738,-0.047318,1.321386,0.243031,0.924241,11.129227,-23.209869,-2.410461,,,,,,
1478385966.81,-0.693340,1.509716,-2.058728,0.271264,-0.753674,0.420467,-0.039013,-0.998135,-0.046949,0.684948,0.248562,1.058698,10.379929,-23.285538,-3.092651,,,,,,
1478385966.83,-0.722407,1.529706,-2.033862,1.166729,-0.047659,-1.142340,-0.027161,-0.999156,-0.030818,0.291214,0.491939,0.913874,9.179031,-23.435410,-2.954285,,,,,,
1478385966.85,1.823322,1.565750,1.695931,1.831453,-0.654138,-1.736895,0.004887,-0.999987,0.001261,0.070187,0.630725,0.588751,9.929581,-23.210098,-2.647461,,,,,,
1478385966.87,2.291462,1.522785,1.177546,1.750944,-5.604144,-1.508120,0.036060,-0.998848,0.031670,-0.151951,0.327797,-0.272896,9.929581,-23.210098,-2.647461,,,,,,
1478385966.89,2.657394,1.345972,0.736751,10.985448,2.105132,-4.167545,0.103776,-0.974833,0.197308,0.276244,-1.908925,2.288822,10.522598,-24.183365,-0.913574,,,,,,
1478385966.91,2.547299,1.187134,0.896201,0.104733,0.624667,-6.607318,0.209590,-0.927300,0.310140,1.119679,-5.027763,2.315684,13.531357,-20.503174,4.280396,,,,,,
1478385966.93,2.350277,1.142040,1.172903,-2.102919,3.658056,-4.613412,0.295707,-0.909483,0.292228,-0.228218,-0.022813,1.259392,16.237686,-18.250610,6.850769,,,,,,
1478385966.95,2.437753,1.070761,1.161297,3.732406,2.527754,-0.920313,0.310280,-0.877566,0.365520,0.139259,2.117815,-2.516276,17.963852,-17.950516,6.942139,,,,,,
1478385966.97,2.438102,1.058893,1.146071,0.518856,-1.413931,0.009876,0.316868,-0.871814,0.373544,0.005993,1.794025,0.283927,17.963852,-17.950516,6.942139,,,,,,
1478385966.99,2.479823,0.988973,1.094042,4.690160,0.301725,-2.114992,0.337705,-0.835462,0.433542,0.763278,0.926832,1.207572,18.643265,-16.223267,9.193726,,,,,,
1478385967.01,2.473821,0.896625,1.100109,1.707555,-0.452002,-2.909682,0.386559,-0.781224,0.490164,0.455619,-0.641902,-0.186743,18.500168,-13.971100,11.360474,,,,,,
1478385967.03,2.469936,0.837464,1.102411,2.685920,-0.233650,-1.463941,0.416525,-0.742948,0.523961,0.410776,-0.846896,0.074549,20.307785,-12.170776,11.673218,,,,,,
1478385967.05,2.466570,0.782239,1.088464,2.437571,-0.808800,-1.384755,0.443276,-0.704869,0.553774,-0.237038,0.473805,0.166120,20.687851,-10.744888,12.572754,,,,,,
1478385967.07,2.457308,0.725998,1.085077,2.197768,-0.354712,-1.887150,0.472722,-0.663882,0.579478,-0.258580,-0.234326,0.266546,20.687851,-10.744888,12.572754,,,,,,
1478385967.09,2.447437,0.666313,1.087469,2.318059,-0.716462,-2.014009,0.502901,-0.618092,0.604196,-0.202638,-0.585506,0.210638,21.668350,-9.394501,12.953491,,,,,,
1478385967.11,2.425733,0.602264,1.088150,2.447995,-1.062393,-2.070293,0.540800,-0.566509,0.621774,0.090776,-0.543613,0.029044,22.881393,-6.168518,13.930969,,,,,,
1478385967.13,2.406453,0.538174,1.084787,2.521611,-1.078732,-2.031747,0.575886,-0.512569,0.636890,0.073146,-0.441060,0.017484,23.638565,-4.518372,14.083557,,,,,,
1478385967.15,2.388338,0.471782,1.079794,2.638253,-0.957777,-2.126301,0.609295,-0.454474,0.649779,0.045750,-0.609994,-0.074874,24.248245,-2.493744,13.708618,,,,,,
1478385967.17,2.374074,0.404674,1.073187,2.643246,-0.818097,-2.047913,0.638269,-0.393719,0.661512,0.069418,-0.859500,-0.121488,24.248245,-2.493744,13.708618,,,,,,
1478385967.19,2.360234,0.341427,1.060906,2.654074,-0.987689,-1.598555,0.663594,-0.334832,0.668977,-0.164510,-1.411613,-0.135835,25.081619,-0.468216,14.235901,,,,,,
1478385967.21,2.344618,0.292596,1.043213,1.893992,-1.144299,-0.894081,0.684846,-0.288439,0.669171,-0.555100,-1.875028,-0.201351,25.091171,1.556473,13.929932,,,,,,
1478385967.23,2.316251,0.254091,1.034158,1.778754,-1.703752,-1.506958,0.711188,-0.251365,0.656527,-0.866721,-1.633812,-0.726000,26.982681,5.005798,13.263428,,,,,,
1478385967.25,2.268824,0.215529,1.050123,0.427583,-2.194104,-2.113247,0.748386,-0.213864,0.627838,-1.131656,-0.983783,-1.602371,27.514664,6.355225,12.664734,,,,,,
1478385967.27,2.239716,0.177441,1.066077,0.221453,-0.876971,-1.754198,0.772174,-0.176512,0.610402,-1.019229,-0.379305,-0.404561,27.514664,6.355225,12.664734,,,,,,
1478385967.29,2.229060,0.173503,1.092907,-1.467183,0.160964,-0.365332,0.779179,-0.172634,0.602560,-1.186054,-0.453862,-0.107015,27.896957,7.854828,12.289001,,,,,,
,,,,,,,,,,,,,,,,37.354215,-122.033457,34.397308,0.410000,316.757812,1478386185.00
1478385967.31,2.213687,0.215750,1.106328,-1.946313,-1.585144,2.344961,0.781811,-0.214080,0.585612,-2.041958,-1.554734,0.097371,29.331284,9.804459,11.922485,,,,,,
1478385967.33,2.178954,0.292420,1.119034,-3.387086,-1.027467,2.491431,0.785862,-0.288270,0.547102,-1.569157,-1.126754,0.224794,30.370590,7.705307,12.764221,,,,,,
1478385967.35,2.184113,0.366503,1.155087,-3.369945,1.990923,2.001879,0.763434,-0.358352,0.537356,-0.789130,-0.666748,0.086866,31.105515,4.781601,14.055359,,,,,,
1478385967.37,2.233446,0.448580,1.186703,-3.928502,3.468424,2.853327,0.710367,-0.433687,0.554341,-0.512842,-0.326399,0.133448,31.105515,4.781601,14.055359,,,,,,
1478385967.39,2.285209,0.566853,1.208271,-4.763669,2.692248,4.687426,0.637318,-0.536980,0.552701,-0.243611,-0.277504,0.571169,29.965073,1.858093,15.552673,,,,,,
1478385967.41,2.347010,0.707963,1.198834,-4.296397,2.943626,5.663331,0.542091,-0.650288,0.532224,0.484078,-0.128658,0.532748,29.118607,-2.264938,17.506653,,,,,,
1478385967.43,2.408414,0.842251,1.178860,-4.328990,1.725731,4.753902,0.445567,-0.746144,0.494712,1.241628,0.197743,-0.503745,26.466629,-8.189728,17.722839,,,,,,
1478385967.45,2.422435,0.966556,1.159456,-4.232239,-1.196378,4.692611,0.374261,-0.822934,0.427444,1.009864,0.618848,-0.086212,19.006485,-16.967621,14.824585,,,,,,
1478385967.47,2.412316,1.097627,1.109867,-4.019906,-3.187075,5.562542,0.303653,-0.890128,0.339803,0.580853,0.532768,-0.000264,19.006485,-16.967621,14.824585,,,,,,
1478385967.49,2.434661,1.228656,1.025184,-3.704566,-2.225938,5.526203,0.217911,-0.942039,0.255103,0.609512,0.537101,0.505837,17.124710,-19.596024,11.438660,,,,,,
1478385967.51,2.558121,1.347843,0.885554,-3.525239,0.605787,4.814188,0.121815,-0.975249,0.184529,0.739086,0.428481,0.777721,14.573502,-20.949265,8.192200,,,,,,
1478385967.53,2.818230,1.448532,0.668877,-3.781976,3.134018,3.220199,0.038754,-0.992535,0.115639,0.757511,0.104763,0.974327,12.023849,-21.701752,5.693970,,,,,,
1478385967.55,-3.014844,1.528732,0.282947,-3.582004,2.946752,1.240246,-0.005316,-0.999115,0.041714,1.139761,-0.285873,1.006656,7.305069,-21.630722,1.746582,,,,,,
1478385967.57,-1.166529,1.550785,-1.540795,-1.753170,0.051888,0.507868,-0.018397,-0.999800,-0.007871,1.722819,-0.298113,0.625409,7.305069,-21.630722,1.746582,,,,,,
1478385967.59,-0.967910,1.525459,-1.753647,-0.450020,-0.759130,1.081647,-0.037332,-0.998972,-0.025698,1.593133,0.348811,1.101580,7.608597,-21.256912,0.548523,,,,,,
1478385967.61,-1.133111,1.516630,-1.596286,0.487897,-0.039143,0.138637,-0.049037,-0.998533,-0.022947,0.745814,0.576903,1.246931,7.536606,-20.657135,0.321045,,,,,,
1478385967.63,-1.477698,1.537998,-1.242345,1.240098,0.534941,-1.346787,-0.032650,-0.999462,-0.003049,0.379132,0.620068,1.196194,7.989334,-20.057129,0.323730,,,,,,
1478385967.65,3.051619,1.545833,0.510298,1.415518,-0.517848,-1.721189,0.002243,-0.999688,0.024860,0.184464,0.597329,0.882763,7.766373,-19.306229,1.219177,,,,,,
1478385967.67,2.587422,1.514237,0.877585,5.049839,-7.933365,-1.710692,0.029748,-0.998401,0.048069,-1.211282,-0.763852,-6.117404,7.766373,-19.306229,1.219177,,,,,,
1478385967.69,2.793859,1.339241,0.648487,10.431440,3.852376,-3.248037,0.078204,-0.973311,0.215756,0.830991,-2.858751,4.282260,10.168900,-18.405243,2.215576,,,,,,
1478385967.71,2.582130,1.212508,0.886682,-0.263996,-0.698747,-6.687430,0.186112,-0.936498,0.297209,1.230575,-3.439356,2.060152,13.558517,-13.826248,6.210693,,,,,,
1478385967.73,2.411238,1.160899,1.127616,-0.481867,4.084968,-3.863631,0.265863,-0.917162,0.296869,-0.036859,-0.043013,0.920706,14.690628,-11.498993,8.465027,,,,,,
1478385967.75,2.504004,1.098657,1.100269,2.985163,0.956633,-0.358574,0.270720,-0.890597,0.365441,0.007524,1.918887,-2.522897,16.263107,-11.948669,8.782104,,,,,,
1478385967.77,2.492616,1.079080,1.070704,1.190484,-1.510619,-0.521268,0.285348,-0.881524,0.376155,-0.083337,1.778496,0.538564,16.263107,-11.948669,8.782104,,,,,,
1478385967.79,2.488244,1.004785,1.069810,3.967785,0.171727,-3.123033,0.325971,-0.844047,0.425827,0.201342,0.762824,1.225891,17.545212,-9.621414,11.037903,,,,,,
1478385967.81,2.479616,0.903213,1.083614,2.530310,-0.103407,-3.284417,0.380540,-0.785320,0.488325,0.197966,-0.515828,0.073717,18.453445,-7.595810,11.640930,,,,,,
1478385967.83,2.468082,0.843189,1.111353,2.391284,0.600094,-2.146990,0.414836,-0.746768,0.519854,0.390584,-1.093167,0.044843,18.913223,-5.044693,12.762939,,,,,,
1478385967.85,2.464496,0.778992,1.111791,2.417965,-0.372336,-2.090856,0.445855,-0.702562,0.554635,-0.085534,0.408541,0.034843,20.420059,-3.394302,13.148071,,,,,,
1478385967.87,2.455094,0.717881,1.110242,2.452754,-0.711717,-1.659018,0.477404,-0.657790,0.582578,-0.224962,-0.500047,-0.089658,20.420059,-3.394302,13.148071,,,,,,
1478385967.89,2.438709,0.659800,1.100681,2.440941,-1.346903,-1.676812,0.510746,-0.612959,0.602843,-0.132847,-0.429277,0.231905,21.260574,0.356598,14.045166,,,,,,
1478385967.91,2.417184,0.599642,1.098330,2.278567,-0.993987,-1.918656,0.547078,-0.564347,0.618238,0.193263,-0.540557,0.009966,21.643234,2.081665,14.118835,,,,,,
1478385967.93,2.398186,0.542303,1.095957,2.174502,-1.057421,-1.836743,0.579694,-0.516110,0.630544,0.072177,-0.673084,-0.076375,22.475571,3.581299,13.747681,,,,,,
1478385967.95,2.378192,0.485995,1.091239,2.249531,-1.134473,-1.700066,0.611327,-0.467089,0.638833,-0.062301,-1.233457,-0.046273,23.982376,5.081223,13.683228,,,,,,
1478385967.97,2.367022,0.431507,1.076570,2.631062,-0.619090,-1.196894,0.635299,-0.418241,0.649207,-0.292846,-1.610858,-0.103675,23.982376,5.081223,13.683228,,,,,,
1478385967.99,2.366494,0.371245,1.045521,3.040282,-0.972352,-1.150144,0.652115,-0.362776,0.665688,-0.664627,-1.201052,-0.500160,24.663254,6.506592,14.060730,,,,,,
1478385968.01,2.309265,0.335252,1.045041,0.230926,-4.192964,-1.173506,0.698330,-0.329008,0.635680,-1.000592,-0.933764,-1.890563,25.796341,8.607513,14.965759,,,,,,
1478385968.03,2.207239,0.317567,1.047651,0.344411,-4.735900,-0.565802,0.764003,-0.312256,0.564620,-1.324702,-0.685989,-2.465698,27.749008,8.756180,13.634827,,,,,,
1478385968.05,2.160488,0.312069,1.045771,-0.004362,-1.302931,0.174904,0.790970,-0.307028,0.529245,-1.198547,-0.364740,-0.158365,30.302780,9.280228,12.683838,,,,,,
1478385968.07,2.157595,0.337518,1.047323,-1.099871,0.484764,1.611739,0.785735,-0.331147,0.522458,-1.491942,-1.049835,0.207263,30.302780,9.280228,12.683838,,,,,,
1478385968.09,2.153631,0.382722,1.042778,-1.204326,-0.770631,1.693578,0.774502,-0.373447,0.510573,-1.833446,-2.260358,0.402315,32.102646,9.280319,12.776855,,,,,,
1478385968.11,2.136918,0.406879,1.087128,-3.006077,0.983244,-1.083699,0.775085,-0.395745,0.492574,-0.734863,-1.808418,0.590327,34.331009,5.157379,14.836426,,,,,,
1478385968.13,2.156091,0.431381,1.162745,-3.912009,3.159376,-0.240577,0.757187,-0.418125,0.501835,-0.755005,-0.779918,0.524303,34.842850,2.758957,16.423767,,,,,,
1478385968.15,2.192460,0.506432,1.229043,-4.923933,3.104875,2.477716,0.710875,-0.485060,0.509287,-0.526075,-0.375337,0.607183,33.998703,-0.688629,18.825684,,,,,,
1478385968.17,2.221092,0.629155,1.262719,-4.502672,1.801404,4.889497,0.643509,-0.588462,0.489499,-0.156647,-0.165689,0.563877,33.998703,-0.688629,18.825684,,,,,,
1478385968.19,2.253106,0.763465,1.255901,-3.876815,1.270083,5.505604,0.560703,-0.691429,0.455565,0.605847,0.299842,0.117006,31.646866,-6.387802,19.644287,,,,,,
1478385968.21,2.276267,0.890686,1.255058,-4.079649,0.916600,4.475388,0.478769,-0.777504,0.407760,1.164984,0.704826,-0.009490,28.319199,-12.838730,18.730347,,,,,,
1478385968.23,2.266798,1.010438,1.267657,-4.188072,-0.476606,4.456409,0.407871,-0.847065,0.340767,0.455532,0.759968,0.192329,22.214188,-21.093491,13.969116,,,,,,
1478385968.25,2.237794,1.138484,1.281819,-4.282834,-0.912804,4.952929,0.329178,-0.908000,0.259188,0.204513,0.731989,0.489515,19.283554,-23.647415,10.047424,,,,,,
1478385968.27,2.223355,1.269121,1.278729,-3.765217,-0.723366,5.284493,0.236072,-0.954840,0.180418,0.250744,0.619940,0.670488,19.283554,-23.647415,10.047424,,,,,,
1478385968.29,2.247926,1.389756,1.257203,-3.404849,0.831075,4.608811,0.140328,-0.983657,0.112814,0.763328,0.389922,0.972895,15.828201,-25.900589,6.869629,,,,,,
1478385968.31,2.281856,1.490697,1.248379,-2.941250,1.210732,3.463177,0.060624,-0.996794,0.052220,1.111816,0.067884,1.097118,12.826767,-27.178467,3.993469,,,,,,
,,,,,,,,,,,,,,,,37.354224,-122.033462,35.822693,1.540000,319.218750,1478386186.00
1478385968.33,2.263064,1.560220,1.279143,-1.933658,0.302191,2.131176,0.008141,-0.999944,0.006751,1.741218,-0.213023,1.391397,8.103622,-28.458527,-1.075012,,,,,,
1478385968.35,-1.182410,1.542091,-1.564655,-0.301105,-0.798874,1.548697,-0.026564,-0.999588,-0.010869,1.925596,0.341507,1.188817,6.154648,-28.684906,-2.443787,,,,,,
1478385968.37,-1.448377,1.526720,-1.320375,0.591570,-1.047228,0.312334,-0.043732,-0.999029,-0.005381,1.135056,0.953268,1.270090,6.154648,-28.684906,-2.443787,,,,,,
1478385968.39,-2.129670,1.535835,-0.648345,1.399863,-0.087625,-1.254177,-0.029636,-0.999389,0.018534,0.683430,0.924163,1.094106,4.881454,-28.535660,-3.206909,,,,,,
1478385968.41,-3.125197,1.526164,0.358429,1.215747,0.796237,-1.350361,-0.000732,-0.999004,0.044612,0.556457,0.529384,0.636388,5.183365,-28.236038,-3.579834,,,,,,
1478385968.43,2.764725,1.512883,0.718111,2.779149,-5.379442,-1.508866,0.021301,-0.998324,0.053819,-0.630905,-0.287153,-3.373262,5.931870,-28.385498,-3.046875,,,,,,
1478385968.45,2.840105,1.319067,0.614038,12.187831,4.415329,-3.567141,0.073962,-0.968483,0.237845,0.894910,-3.587120,4.597482,6.529434,-27.857269,0.182495,,,,,,
1478385968.47,2.630410,1.181313,0.850002,-0.577342,-0.911164,-6.504767,0.185758,-0.925106,0.331170,1.081653,-3.160557,3.063651,6.529434,-27.857269,0.182495,,,,,,
1478385968.49,2.436524,1.141805,1.106440,-1.853354,2.943583,-4.470654,0.269574,-0.909386,0.316777,-0.109768,0.281761,0.151149,9.685471,-25.002747,4.705444,,,,,,
1478385968.51,2.495054,1.065279,1.121241,3.815326,1.860655,-1.671984,0.291732,-0.874924,0.386524,0.101426,1.676377,-2.849842,12.690048,-24.328766,3.683533,,,,,,
1478385968.53,2.478596,1.033014,1.112586,0.702435,-1.141856,-0.495437,0.315269,-0.858847,0.403717,0.024498,1.497153,0.697495,13.741623,-23.427109,5.341309,,,,,,
1478385968.55,2.498760,0.965471,1.094765,4.468917,0.297068,-2.523475,0.341114,-0.822317,0.455452,0.252942,1.002828,0.963173,14.049179,-21.401062,6.388367,,,,,,
1478385968.57,2.494128,0.861747,1.091375,3.089015,-0.483508,-3.029113,0.392729,-0.758981,0.519338,0.230577,-0.021567,0.320475,14.049179,-21.401062,6.388367,,,,,,
1478385968.59,2.472352,0.807782,1.122834,1.835538,0.217623,-2.010090,0.428754,-0.722756,0.542027,0.473437,-1.195335,0.153880,15.480820,-19.299179,8.271362,,,,,,
1478385968.61,2.461099,0.748467,1.124544,2.171238,-0.762767,-1.912840,0.461019,-0.680516,0.569526,-0.053304,0.300999,0.029076,16.685318,-18.249023,8.430176,,,,,,
1478385968.63,2.445708,0.692958,1.122215,2.344750,-0.985610,-1.773188,0.493210,-0.638815,0.590474,-0.337249,-0.443292,-0.031102,17.438889,-17.198273,9.184570,,,,,,
1478385968.65,2.418303,0.629228,1.124843,2.354655,-1.348706,-2.335091,0.535097,-0.588521,0.606064,-0.256792,0.114217,-0.050537,17.518723,-15.922668,9.781616,,,,,,
1478385968.67,2.391181,0.564237,1.126814,2.349372,-1.275029,-2.151129,0.576237,-0.534771,0.618038,0.239177,-0.039890,-0.162731,17.518723,-15.922668,9.781616,,,,,,
1478385968.69,2.369179,0.500692,1.128016,2.227621,-0.932856,-2.322416,0.612203,-0.480032,0.628312,0.458720,-0.551309,-0.161378,19.859116,-12.472580,9.869629,,,,,,
1478385968.71,2.349279,0.436277,1.128390,2.299314,-1.003383,-2.263722,0.645290,-0.422568,0.636425,0.058278,-1.125695,-0.067471,20.841202,-10.822357,10.099548,,,,,,
1478385968.73,2.336981,0.373536,1.122176,2.497932,-0.620852,-1.837092,0.670873,-0.364910,0.645577,-0.191183,-1.516606,-0.063348,20.622849,-9.247055,10.392639,,,,,,
1478385968.75,2.330947,0.312660,1.099343,3.130021,-0.817074,-1.309800,0.689596,-0.307591,0.655625,-0.419195,-1.576351,-0.540162,21.306747,-7.297134,10.318604,,,,,,
1478385968.77,2.285582,0.274206,1.091398,0.771106,-3.199301,-1.057625,0.727018,-0.270783,0.630968,-0.848875,-1.833862,-2.374758,21.306747,-7.297134,10.318604,,,,,,
1478385968.79,2.248577,0.231110,1.079926,2.326487,-1.102099,-1.425235,0.758255,-0.229058,0.610394,-0.860093,-1.027381,-0.101468,22.374161,-3.622742,9.718262,,,,,,
1478385968.81,2.230245,0.203271,1.072072,-0.065014,-1.227459,-0.275844,0.774059,-0.201874,0.600067,-1.058086,-1.202392,-0.005004,23.660721,-1.223251,9.198914,,,,,,
1478385968.83,2.201499,0.219705,1.084633,-1.285222,-1.112396,0.356993,0.788200,-0.217942,0.575536,-0.867912,-2.125808,0.388697,23.066879,0.126724,9.188904,,,,,,
1478385968.85,2.190331,0.252101,1.115618,-2.624625,0.368483,0.484810,0.788414,-0.249439,0.562302,-0.933052,-0.981121,-0.008073,23.744400,0.501144,8.594543,,,,,,
1478385968.87,2.209066,0.291176,1.151135,-2.398253,1.964510,0.740674,0.769322,-0.287079,0.570727,-0.846425,-0.457397,-0.132296,23.744400,0.501144,8.594543,,,,,,
1478385968.89,2.247022,0.348278,1.177075,-3.071804,2.360018,2.078254,0.733114,-0.341279,0.588279,-0.766485,-0.215117,-0.169440,23.593643,0.351227,8.668518,,,,,,
1478385968.91,2.279289,0.438911,1.192380,-3.537434,1.439830,3.533309,0.687369,-0.424954,0.589014,-0.605048,-0.081287,-0.154536,22.160660,-0.922302,10.158020,,,,,,
1478385968.93,2.290145,0.549205,1.190544,-3.619632,0.025466,4.592356,0.641611,-0.522010,0.561997,-0.322352,-0.225290,-0.196137,21.552780,-2.572006,10.456909,,,,,,
1478385968.95,2.293088,0.672592,1.175455,-3.598032,-0.406129,5.258970,0.586886,-0.623016,0.517123,-0.135760,-0.136582,0.039044,20.791916,-5.122375,10.081970,,,,,,
1478385968.97,2.303762,0.802732,1.152363,-3.743699,-0.048417,5.502233,0.516329,-0.719257,0.464837,0.005338,0.125186,0.111396,20.791916,-5.122375,10.081970,,,,,,
1478385968.99,2.327201,0.936753,1.126244,-4.083285,0.212980,5.515182,0.430863,-0.805639,0.406576,0.159286,0.254842,0.128398,19.657089,-7.673492,8.953247,,,,,,
1478385969.01,2.356913,1.077162,1.091613,-4.246635,-0.189543,5.815085,0.334807,-0.880617,0.335289,0.370836,0.232439,0.294808,15.442398,-11.575409,7.047791,,,,,,
1478385969.03,2.415973,1.216628,1.014127,-3.852952,-0.650996,5.921343,0.230143,-0.937935,0.259445,0.677801,0.406197,0.591736,13.713577,-12.776474,5.984131,,,,,,
1478385969.05,2.545953,1.344057,0.884759,-3.852514,1.033661,4.914183,0.126122,-0.974405,0.186088,1.111015,0.588785,0.822945,11.611893,-13.527618,4.840332,,,,,,
1478385969.07,2.782072,1.446251,0.676977,-3.544313,1.537732,3.423519,0.043705,-0.992254,0.116281,1.317761,0.368307,1.001669,11.611893,-13.527618,4.840332,,,,,,
1478385969.09,-2.948454,1.514781,0.140975,-2.718592,0.571702,2.159423,-0.010746,-0.998432,0.054945,1.782703,-0.010052,1.312136,9.734665,-14.428818,3.624268,,,,,,
1478385969.11,-2.002735,1.532259,-0.797812,-1.425857,0.365905,0.698436,-0.034989,-0.999258,0.016129,2.194154,0.117116,1.218292,7.556900,-15.179214,3.229736,,,,,,
1478385969.13,-1.682856,1.531032,-1.105109,-0.091088,0.979202,-0.098872,-0.039505,-0.999209,0.004446,1.398941,0.713641,1.460276,7.258011,-15.179977,2.476746,,,,,,
1478385969.15,-2.151922,1.545207,-0.593170,0.873179,2.899019,-1.462699,-0.021386,-0.999673,0.014046,0.839425,1.049523,1.443321,7.109940,-14.654678,2.773682,,,,,,
1478385969.17,2.637328,1.535769,0.974121,0.427492,3.697329,-2.117289,0.016920,-0.999387,0.030661,0.533418,1.056012,0.997904,7.109940,-14.654678,2.773682,,,,,,
1478385969.19,2.575506,1.454079,0.957364,8.391640,-4.410182,-2.517848,0.062457,-0.993196,0.098287,-1.166126,-2.258848,-3.830525,7.336411,-13.978638,3.823914,,,,,,
1478385969.21,2.743829,1.232778,0.831226,6.841729,0.205355,-4.507934,0.128455,-0.943414,0.305728,1.636346,-6.195502,6.729260,4.923172,-16.753128,4.333130,,,,,,
1478385969.23,2.505664,1.195965,1.075815,-0.450762,1.678314,-4.613795,0.217446,-0.930569,0.294548,-0.188255,-0.314777,1.983757,10.952194,-8.572922,9.543884,,,,,,
1478385969.25,2.420860,1.149247,1.218984,1.115348,3.167336,-2.747920,0.270029,-0.912456,0.307422,-0.054331,0.765316,-0.506656,10.952194,-8.572922,9.543884,,,,,,
1478385969.27,2.518065,1.090317,1.179743,2.224857,1.681020,-0.670928,0.269882,-0.886773,0.375229,0.088363,1.602288,-0.687622,12.002701,-8.347595,9.853699,,,,,,
1478385969.29,2.508289,1.051065,1.173292,2.283203,-1.004709,-1.655821,0.293921,-0.867953,0.400335,0.289728,1.216418,0.852411,11.179550,-7.446121,11.342712,,,,,,
