timestamp(unix),attitude_roll(radians),attitude_pitch(radians),attitude_yaw(radians),rotation_rate_x(radians/s),rotation_rate_y(radians/s),rotation_rate_z(radians/s),gravity_x(G),gravity_y(G),gravity_z(G),user_acc_x(G),user_acc_y(G),user_acc_z(G),magnetic_field_x(microteslas),magnetic_field_y(microteslas),magnetic_field_z(microteslas),latitude(degree),longitude(degree),altitude(meter),speed(m/s),course(degree),timestamp(unix)
1478386032.75,2.634822,1.380361,-0.349984,-0.001784,-0.022809,-0.045029,0.091871,-0.981922,0.165496,-0.002867,0.003269,-0.003631,7.844528,-3.159912,-52.453491,,,,,,
1478386032.77,2.628828,1.380057,-0.344657,0.012182,-0.057934,-0.041897,0.093008,-0.981864,0.165203,0.008951,0.010658,-0.017147,7.844406,-3.084610,-52.153687,,,,,,
,,,,,,,,,,,,,,,,37.354326,-122.033685,33.338226,0.390000,146.250000,1478386250.53
,,,,,,,,,,,,,,,,37.354326,-122.033685,33.338226,0.390000,146.250000,1478386250.00
1478386032.79,2.625886,1.379276,-0.343778,0.032662,-0.121631,-0.020668,0.093872,-0.981716,0.165596,0.009018,0.013668,-0.007804,7.844406,-3.084610,-52.153687,,,,,,
1478386032.81,2.622105,1.378438,-0.342840,0.054036,-0.153559,-0.024104,0.094906,-0.981556,0.165954,0.003010,0.023335,-0.017196,6.944229,-3.084457,-52.012695,,,,,,
1478386032.83,2.623252,1.377551,-0.346703,0.055129,-0.136909,0.029365,0.095147,-0.981386,0.166819,0.015968,0.006761,-0.013636,7.619522,-3.009460,-52.006165,,,,,,
1478386032.85,2.625843,1.376660,-0.351787,0.048565,-0.104376,-0.014361,0.095145,-0.981215,0.167824,-0.013373,-0.000261,0.007331,7.318619,-3.234543,-52.083496,,,,,,
1478386032.87,2.621249,1.375550,-0.346064,0.004076,0.117774,-0.073659,0.096456,-0.981000,0.168331,-0.045126,0.030194,0.017659,6.567978,-3.309326,-51.865723,,,,,,
1478386032.89,2.616851,1.375119,-0.338785,-0.003449,0.146763,-0.056499,0.097408,-0.980916,0.168271,0.006520,0.004339,-0.009762,6.567978,-3.309326,-51.865723,,,,,,
1478386032.91,2.614037,1.374499,-0.333481,0.004136,0.100739,-0.070502,0.098187,-0.980796,0.168521,0.005893,0.020087,-0.002613,6.794327,-3.084534,-52.089172,,,,,,
1478386032.93,2.611820,1.373111,-0.329599,0.004241,0.072003,-0.064170,0.099248,-0.980524,0.169478,-0.000265,0.034128,0.023347,7.318741,-3.234619,-52.158508,,,,,,
1478386032.95,2.607449,1.372173,-0.324444,0.030012,0.003890,-0.060179,0.100457,-0.980339,0.169835,0.009559,0.016090,-0.027104,7.619858,-3.084900,-52.455933,,,,,,
1478386032.97,2.601974,1.370446,-0.319086,0.026776,0.011207,-0.071919,0.102254,-0.979997,0.170734,0.022395,-0.009902,0.013471,7.018753,-3.159393,-51.936707,,,,,,
1478386032.99,2.599209,1.370270,-0.314222,-0.053550,0.155264,-0.047089,0.102815,-0.979962,0.170598,-0.011430,-0.004459,0.024592,7.018753,-3.159393,-51.936707,,,,,,
1478386033.01,2.601201,1.370648,-0.312146,-0.073992,0.236751,-0.008435,0.102284,-0.980037,0.170485,-0.017262,-0.002141,0.035509,8.070877,-2.784683,-52.227295,,,,,,
1478386033.03,2.598080,1.372456,-0.301806,-0.146075,0.420215,-0.081777,0.101899,-0.980395,0.168648,0.006301,-0.052854,0.009087,7.995071,-3.009842,-52.377380,,,,,,
1478386033.05,2.592340,1.373940,-0.287461,-0.129783,0.334093,-0.060617,0.102107,-0.980686,0.166820,-0.011714,0.067127,-0.000972,8.295547,-2.784454,-52.000061,,,,,,
1478386033.07,2.591369,1.375948,-0.284164,-0.129472,-0.005244,0.117945,0.101238,-0.981077,0.165041,-0.000363,-0.053011,-0.050798,9.496841,-2.559677,-52.213684,,,,,,
1478386033.09,2.593083,1.376863,-0.284954,-0.049290,0.183678,0.007482,0.100487,-0.981254,0.164448,0.049766,0.074760,0.022609,9.496841,-2.559677,-52.213684,,,,,,
1478386033.11,2.591589,1.377599,-0.276337,-0.045874,0.376475,-0.116091,0.100355,-0.981395,0.163682,-0.042952,-0.018635,0.009749,8.821304,-2.634521,-52.070251,,,,,,
1478386033.13,2.583269,1.377449,-0.261420,-0.046714,0.269906,-0.193305,0.101791,-0.981367,0.162966,-0.067932,-0.003252,-0.019610,9.046860,-2.559677,-52.218201,,,,,,
1478386033.15,2.571394,1.375995,-0.246518,0.023357,0.027180,-0.167140,0.104490,-0.981086,0.162947,-0.015073,0.053504,-0.029540,9.196609,-2.634750,-52.291504,,,,,,
1478386033.17,2.558084,1.373904,-0.234485,0.068499,-0.102996,-0.180239,0.107779,-0.980679,0.163254,-0.018714,0.003689,-0.022721,9.498886,-2.109665,-52.215027,,,,,,
1478386033.19,2.543743,1.370476,-0.222241,0.091894,-0.106518,-0.214398,0.112001,-0.980003,0.164470,-0.035601,0.037071,-0.038249,9.498886,-2.109665,-52.215027,,,,,,
1478386033.21,2.529400,1.365321,-0.206904,0.118655,0.135715,-0.311980,0.117250,-0.978964,0.166978,0.042037,0.108862,-0.048341,9.948441,-2.184586,-52.135376,,,,,,
1478386033.23,2.516735,1.361205,-0.188518,0.101043,0.326009,-0.277295,0.121711,-0.978116,0.168746,-0.019340,0.009839,-0.028869,9.724442,-2.034821,-52.363037,,,,,,
1478386033.25,2.504611,1.354816,-0.169901,0.178740,0.279781,-0.419388,0.127463,-0.976767,0.172279,0.007028,0.007452,0.003426,9.423233,-2.109222,-51.765808,,,,,,
1478386033.27,2.484533,1.346252,-0.144979,0.373788,0.182061,-0.535921,0.136000,-0.974896,0.176302,-0.021330,-0.020954,-0.102465,10.848984,-2.034500,-52.051819,,,,,,
1478386033.29,2.474240,1.331050,-0.131182,0.551640,0.172498,-0.587990,0.146964,-0.971398,0.186513,-0.100272,-0.015723,-0.037221,10.848984,-2.034500,-52.051819,,,,,,
1478386033.31,2.470574,1.316349,-0.123016,0.468380,0.250751,-0.532362,0.156510,-0.967803,0.197137,-0.183563,0.066222,0.096488,10.923904,-2.034424,-51.976013,,,,,,
,,,,,,,,,,,,,,,,37.354319,-122.033681,33.387146,0.370000,144.140625,1478386251.00
1478386033.33,2.453400,1.302120,-0.099529,0.314534,0.253166,-0.817891,0.168602,-0.964123,0.205037,-0.181359,0.036495,0.094447,11.298294,-2.109283,-51.822021,,,,,,
1478386033.35,2.418940,1.284371,-0.059211,0.334553,0.219725,-1.032701,0.186855,-0.959260,0.211909,-0.042187,-0.015380,-0.039180,11.222153,-2.334198,-51.747192,,,,,,
1478386033.37,2.394182,1.264844,-0.027098,0.474851,0.326103,-1.015070,0.204739,-0.953561,0.220917,0.028766,-0.000770,-0.132416,12.648880,-1.959183,-51.734009,,,,,,
1478386033.39,2.375522,1.239678,-0.001451,0.753840,0.246348,-1.257336,0.225395,-0.945679,0.234281,-0.109169,-0.026077,-0.180570,12.648880,-1.959183,-51.734009,,,,,,
1478386033.41,2.360635,1.205942,0.017315,1.125819,0.069805,-1.501843,0.251182,-0.934176,0.253423,-0.298454,-0.039808,-0.215032,13.324814,-1.658951,-51.503113,,,,,,
1478386033.43,2.344828,1.162813,0.032781,1.382782,-0.184647,-1.889933,0.283721,-0.917923,0.277344,-0.413574,-0.055100,-0.206955,12.872818,-1.958496,-51.056702,,,,,,
1478386033.45,2.323859,1.114149,0.054333,1.289920,0.090769,-2.120116,0.321710,-0.897536,0.301549,-0.228769,-0.260728,0.024409,14.073044,-1.883423,-50.969971,,,,,,
1478386033.47,2.306525,1.067994,0.077958,1.132323,0.124613,-2.007045,0.357240,-0.876235,0.323405,-0.069826,-0.661438,0.090841,14.073471,-1.733276,-50.820435,,,,,,
1478386033.49,2.283799,1.021908,0.097065,1.308989,-0.490746,-2.031935,0.394644,-0.853105,0.341274,-0.069174,-0.895461,0.045521,14.073471,-1.733276,-50.820435,,,,,,
1478386033.51,2.267940,0.976623,0.097812,1.547106,-0.821697,-1.672373,0.429206,-0.828611,0.359424,-0.341406,-0.619555,-0.011020,14.828659,-0.457901,-50.441711,,,,,,
1478386033.53,2.263568,0.936808,0.087007,1.312873,-0.606988,-1.134774,0.455811,-0.805671,0.378326,-0.360413,-0.513069,-0.359954,14.303787,-0.232300,-49.847656,,,,,,
1478386033.55,2.280432,0.913992,0.060292,1.275901,-0.044076,0.261001,0.463193,-0.791947,0.397834,-0.859860,-0.504806,-0.714148,15.504532,-0.007141,-49.686340,,,,,,
1478386033.57,2.323580,0.916952,0.023484,0.398285,1.241067,1.009837,0.443888,-0.793752,0.415839,-0.962977,-0.294994,-0.731985,15.955124,0.443832,-48.708191,,,,,,
1478386033.59,2.374674,0.934549,0.002587,-0.504797,1.840226,1.066540,0.412314,-0.804331,0.427842,-0.816947,-0.316808,-0.929200,15.955124,0.443832,-48.708191,,,,,,
1478386033.61,2.411870,0.965409,-0.006917,-1.157940,1.073970,1.442586,0.379385,-0.822282,0.424169,-0.254248,-0.316238,-1.075537,18.588638,2.995804,-46.739502,,,,,,
1478386033.63,2.427343,1.010867,-0.024592,-1.500973,-0.577707,2.102005,0.347915,-0.847293,0.401311,0.103288,-0.322644,-1.029927,21.147415,5.321945,-45.595886,,,,,,
1478386033.65,2.432734,1.068368,-0.056548,-1.743891,-1.262817,2.710835,0.313477,-0.876416,0.365551,0.023971,-0.340152,-0.778942,22.356400,7.647934,-44.615723,,,,,,
1478386033.67,2.449230,1.134644,-0.094663,-2.140566,-0.453539,2.779682,0.269677,-0.906384,0.325180,-0.168130,-0.302021,-0.467026,22.962601,9.373978,-43.564819,,,,,,
1478386033.69,2.483062,1.206277,-0.119049,-2.712122,1.217105,2.474509,0.218162,-0.934295,0.281953,-0.187233,-0.327240,-0.248094,22.962601,9.373978,-43.564819,,,,,,
1478386033.71,2.517017,1.279435,-0.113464,-3.102940,2.231483,1.934929,0.167974,-0.957854,0.233026,0.054499,-0.255830,-0.162103,22.966904,10.800400,-42.144104,,,,,,
1478386033.73,2.523356,1.349375,-0.076918,-3.066184,1.857113,1.492705,0.127289,-0.975586,0.178966,0.298309,-0.138122,-0.045711,28.673141,13.880478,-37.071228,,,,,,
1478386033.75,2.484037,1.411256,-0.012064,-2.696748,0.857609,1.319651,0.097096,-0.987300,0.125740,0.430248,-0.059468,0.157082,30.848465,15.008636,-33.902893,,,,,,
1478386033.77,2.431316,1.466214,0.052849,-2.243861,0.539478,1.434953,0.068068,-0.994536,0.079148,0.487871,0.068770,0.451019,32.273636,15.835983,-31.566162,,,,,,
1478386033.79,2.346569,1.512557,0.151909,-1.787159,0.818246,1.135219,0.041553,-0.998305,0.040760,0.505017,0.218703,0.757503,32.273636,15.835983,-31.566162,,,,,,
1478386033.81,2.040945,1.540595,0.476966,-1.119837,0.994656,0.419954,0.026921,-0.999544,0.013680,0.542736,0.311022,1.036705,32.495773,15.988373,-29.164368,,,,,,
1478386033.83,1.630268,1.542148,0.904652,-0.311590,0.705248,-0.386094,0.028594,-0.999590,0.001703,0.677843,0.360140,1.281516,34.892593,16.366623,-25.916565,,,,,,
1478386033.85,1.729417,1.528130,0.813511,0.573546,0.231287,-0.765148,0.042118,-0.999090,0.006737,0.829327,0.528402,1.508399,35.193588,16.967758,-24.790344,,,,,,
1478386033.87,2.057888,1.506856,0.483643,1.524267,-0.221169,-0.704907,0.056466,-0.997957,0.029908,0.795021,0.840333,1.577667,34.742020,16.818344,-24.194397,,,,,,
1478386033.89,2.319889,1.469137,0.210739,2.236829,-0.648713,-0.985839,0.074318,-0.994837,0.069108,0.599739,1.169978,1.606276,34.742020,16.818344,-24.194397,,,,,,
1478386033.91,2.472948,1.417359,0.043958,2.844968,-0.556570,-0.876617,0.094747,-0.988252,0.119925,0.338481,1.490327,1.404733,34.442947,17.043427,-24.123047,,,,,,
1478386033.93,2.541340,1.369475,-0.047466,0.660787,-2.986080,-0.706536,0.112950,-0.979803,0.165009,-0.920460,-0.870874,-6.800659,34.294052,17.042679,-24.874573,,,,,,
1478386033.95,2.685242,1.296926,-0.212000,5.441597,0.583322,-0.158662,0.119185,-0.962731,0.242782,0.842012,-3.599265,2.733109,33.017380,15.915421,-27.133911,,,,,,
1478386033.97,2.737983,1.254275,-0.245985,-1.070770,1.043340,-0.796959,0.122245,-0.950324,0.286252,-0.386283,0.679801,0.675326,32.934738,14.340790,-26.755005,,,,,,
1478386033.99,2.670631,1.244414,-0.140450,2.391828,2.109187,-1.714325,0.145479,-0.947208,0.285713,-0.179506,0.951893,-1.513359,32.934738,14.340790,-26.755005,,,,,,
1478386034.01,2.684814,1.195763,-0.138318,1.666768,0.440683,-0.825907,0.161562,-0.930496,0.328749,-0.018678,0.257262,0.770174,32.935196,14.566162,-26.380737,,,,,,
1478386034.03,2.698265,1.167159,-0.153272,1.335457,-0.259890,-0.233299,0.168476,-0.919639,0.354797,0.500851,-0.414163,0.900346,34.062881,15.391846,-25.696960,,,,,,
1478386034.05,2.700516,1.149127,-0.155724,0.726924,0.400741,-0.392804,0.174729,-0.912407,0.370113,0.714904,-0.180855,-0.029048,32.934952,14.791992,-25.556396,,,,,,
1478386034.07,2.731485,1.132386,-0.182079,1.011248,0.157461,0.412612,0.169252,-0.905428,0.389300,0.003798,0.093141,0.157072,33.159500,14.641830,-25.703735,,,,,,
1478386034.09,2.757162,1.122589,-0.213033,0.544698,-0.223053,0.327417,0.162520,-0.901225,0.401721,-0.226516,-0.036870,0.167325,33.159500,14.641830,-25.703735,,,,,,
1478386034.11,2.760598,1.112789,-0.218995,0.462879,0.063428,-0.319401,0.164415,-0.896935,0.410457,-0.149401,-0.161445,0.079656,33.756454,13.891632,-25.920532,,,,,,
1478386034.13,2.761543,1.101761,-0.209374,0.445877,0.698084,-0.336917,0.167687,-0.892005,0.419772,0.207084,-0.068277,-0.101413,33.606216,13.816559,-25.996765,,,,,,
1478386034.15,2.774114,1.090584,-0.215903,0.686502,-0.038455,0.103803,0.165968,-0.886897,0.431125,0.269289,-0.108465,-0.207446,33.606003,13.816711,-25.846741,,,,,,
1478386034.17,2.787477,1.077679,-0.241084,0.887272,-0.717350,0.380074,0.164148,-0.880861,0.444003,0.195380,-0.160963,-0.138598,33.828415,13.216629,-25.917786,,,,,,
1478386034.19,2.789457,1.062216,-0.267422,0.930370,-1.242331,0.280410,0.167946,-0.873437,0.457059,-0.023995,-0.324668,-0.044781,33.828415,13.216629,-25.917786,,,,,,
1478386034.21,2.776442,1.043554,-0.285130,1.078851,-1.565858,-0.139043,0.179670,-0.864198,0.469979,-0.183699,-0.514342,-0.054360,33.826370,12.540955,-26.590698,,,,,,
1478386034.23,2.741955,1.020305,-0.279458,0.988812,-1.363482,-0.766875,0.203533,-0.852267,0.481887,-0.192424,-0.461179,0.005433,33.151260,12.315353,-27.196838,,,,,,
1478386034.25,2.705734,0.995463,-0.269446,1.095926,-1.489757,-0.651647,0.229719,-0.839011,0.493244,-0.237364,-0.405420,-0.240055,31.648880,11.564667,-27.884583,,,,,,
1478386034.27,2.674345,0.967865,-0.276598,1.495818,-2.140109,-0.370677,0.255421,-0.823677,0.506277,-0.273930,-0.660454,-0.664526,30.300522,11.262695,-29.847168,,,,,,
1478386034.29,2.627682,0.925775,-0.288063,2.447899,-3.343685,-1.014453,0.295549,-0.799087,0.523556,-0.597780,-1.082947,-1.247249,30.300522,11.262695,-29.847168,,,,,,
1478386034.31,2.535156,0.848803,-0.280112,3.487921,-4.730054,-3.050733,0.376665,-0.750490,0.543036,-0.794039,-1.158339,-0.840446,29.323502,10.361343,-31.204224,,,,,,
,,,,,,,,,,,,,,,,37.354317,-122.033678,34.244476,0.390000,81.914062,1478386252.00
1478386034.33,2.424642,0.736553,-0.261133,4.254724,-4.966016,-4.371687,0.486764,-0.671738,0.558416,-1.341913,-1.544510,-0.999838,26.999191,9.834290,-33.250854,,,,,,
1478386034.35,2.318179,0.614504,-0.257901,4.270684,-4.882899,-4.207962,0.599289,-0.576554,0.555373,-1.522827,-2.448944,-0.834441,23.250015,9.457611,-34.937256,,,,,,
1478386034.37,2.256077,0.491091,-0.267705,4.613534,-2.127281,-4.731859,0.682741,-0.471588,0.558095,-1.068300,-2.752716,-0.137960,20.623459,8.330261,-37.285095,,,,,,
1478386034.39,2.239232,0.369536,-0.274971,3.261882,-0.476851,-3.896301,0.731815,-0.361183,0.577922,-1.493442,-3.441429,-0.109294,20.623459,8.330261,-37.285095,,,,,,
1478386034.41,2.235049,0.318235,-0.263925,-0.411391,-0.562489,-1.434872,0.747843,-0.312890,0.585517,-1.644862,-2.446112,-0.976127,16.414627,5.928955,-38.595032,,,,,,
1478386034.43,2.198522,0.328634,-0.237403,-1.440542,-1.504471,-0.020389,0.766052,-0.322750,0.555875,-1.379791,-1.246830,-1.205808,15.812271,5.629623,-37.925110,,,,,,
1478386034.45,2.186778,0.343969,-0.211558,-1.766897,0.649483,0.126001,0.768396,-0.337226,0.543917,-1.214121,-0.650033,-0.924425,14.842148,6.679535,-38.012939,,,,,,
1478386034.47,2.192631,0.399935,-0.173473,-3.811522,0.950304,1.915015,0.748669,-0.389359,0.536558,-0.956967,-0.342666,-0.632551,13.946884,7.879974,-37.575500,,,,,,
1478386034.49,2.192435,0.496204,-0.128081,-4.727299,1.104893,3.170312,0.714884,-0.476090,0.512132,-0.402887,-0.196044,-0.472780,13.946884,7.879974,-37.575500,,,,,,
1478386034.51,2.192563,0.618570,-0.082478,-5.442762,1.150011,4.221587,0.662237,-0.579870,0.474545,-0.190191,-0.316156,-0.129681,13.509171,11.933929,-33.617065,,,,,,
1478386034.53,2.177970,0.765779,-0.031885,-6.069433,0.774529,5.321007,0.592002,-0.693098,0.411276,-0.116371,-0.400331,0.229746,13.740738,14.111099,-31.446289,,,,,,
1478386034.55,2.152017,0.935181,0.023346,-6.279827,0.781016,6.375192,0.496188,-0.804707,0.325953,-0.089694,-0.470623,0.511312,15.622696,16.513657,-28.884705,,,,,,
1478386034.57,2.122817,1.116212,0.077499,-5.907027,0.849712,7.184825,0.373870,-0.898444,0.230262,0.155824,-0.807748,1.101205,17.122940,17.566666,-25.872864,,,,,,
1478386034.59,2.073993,1.301268,0.142357,-5.461298,0.490146,7.406844,0.233270,-0.963897,0.128406,0.602408,-1.033006,1.627270,17.122940,17.566666,-25.872864,,,,,,
1478386034.61,1.914315,1.465385,0.317026,-4.425415,0.750135,6.159307,0.099069,-0.994449,0.035437,1.169333,-0.925183,2.062982,19.670059,17.869461,-23.073303,,,,,,
1478386034.63,0.141529,1.531874,2.108640,-3.507608,0.798863,3.879956,0.005489,-0.999243,-0.038524,2.061619,-1.292353,3.665294,23.327255,15.699844,-17.705200,,,,,,
1478386034.65,-0.497012,1.437038,2.769269,-4.209022,1.291962,3.928171,-0.063586,-0.991068,-0.117225,2.251391,-0.128042,3.418128,24.519699,14.426056,-16.489380,,,,,,
1478386034.67,-0.739974,1.315389,3.033112,-2.270911,0.591496,6.856025,-0.170347,-0.967560,-0.186571,2.958479,0.898072,3.239870,25.638809,13.452042,-15.500366,,,,,,
1478386034.69,-1.068968,1.227619,-2.872230,3.533204,2.232299,5.101328,-0.294994,-0.941690,-0.161857,5.064250,3.237360,4.020652,25.638809,13.452042,-15.500366,,,,,,
1478386034.71,-1.194717,1.261302,-2.689052,2.530923,1.213578,-3.211269,-0.283291,-0.952488,-0.111864,1.806195,1.234607,0.169161,26.898788,10.603577,-13.979187,,,,,,
1478386034.73,-1.143706,1.386501,-2.688450,4.855021,-0.567173,-6.502865,-0.166793,-0.983066,-0.075908,0.487166,-1.417737,-0.832341,26.732651,7.680527,-12.022095,,,,,,
1478386034.75,-2.341604,1.505591,-1.539820,3.690832,-1.432352,-4.066994,-0.046741,-0.997875,0.045397,1.155460,-5.384602,1.874586,26.820969,10.680664,-11.880249,,,,,,
1478386034.77,-2.762634,1.493431,-1.066759,0.900167,3.776007,-0.446254,-0.028593,-0.997009,0.071804,0.494352,0.256057,0.277668,26.228470,11.954453,-13.089905,,,,,,
1478386034.79,-2.886010,1.458870,-0.871597,2.366195,2.833365,-0.221928,-0.028237,-0.993743,0.108065,0.347481,0.873519,0.135679,26.228470,11.954453,-13.089905,,,,,,
1478386034.81,-2.945515,1.417058,-0.797256,2.019485,-0.490804,0.053593,-0.029834,-0.988206,0.150199,0.570682,0.724183,0.853677,25.850113,11.806259,-11.293274,,,,,,
1478386034.83,-3.033118,1.381796,-0.733571,1.501318,-1.584215,-0.467433,-0.020340,-0.982193,0.186773,0.230423,-0.108200,0.284419,26.747849,11.582092,-10.458618,,,,,,
1478386034.85,-3.111142,1.362554,-0.692332,1.126970,-1.589377,-0.068508,-0.006294,-0.978396,0.206644,-0.062355,-0.904798,-0.132380,26.224197,11.505951,-11.588623,,,,,,
1478386034.87,-3.095049,1.339196,-0.720269,1.012957,-0.081500,0.328621,-0.010680,-0.973300,0.229287,0.107237,-0.217587,0.179389,25.399551,11.430496,-12.046692,,,,,,
1478386034.89,-3.105536,1.324842,-0.707466,0.616398,0.021205,-0.328866,-0.008777,-0.969905,0.243324,0.157245,0.087139,0.057137,25.399551,11.430496,-12.046692,,,,,,
1478386034.91,3.138518,1.311121,-0.681289,0.818052,-1.371253,-0.292814,0.000789,-0.966473,0.256766,-0.057216,-0.000995,-0.356924,25.623184,11.055283,-12.268372,,,,,,
1478386034.93,3.058344,1.286716,-0.647959,1.381021,-2.708052,-0.712197,0.023305,-0.959920,0.279304,-0.120596,-0.077586,-0.193809,25.849319,11.280212,-12.341736,,,,,,
1478386034.95,2.950188,1.253262,-0.581508,1.573369,-1.946130,-1.485441,0.059397,-0.950008,0.306524,-0.276438,-0.136006,-0.162160,24.726242,10.978027,-14.527039,,,,,,
1478386034.97,2.827462,1.203923,-0.494316,2.289666,-2.177995,-2.365388,0.110834,-0.933453,0.341146,-0.499521,-0.149036,-0.483007,24.053055,11.127258,-15.284241,,,,,,
1478386034.99,2.712985,1.140088,-0.411286,2.365905,-1.555756,-2.736423,0.173521,-0.908670,0.379748,-0.515715,-0.219977,-0.009830,24.053055,11.127258,-15.284241,,,,,,
1478386035.01,2.636261,1.073652,-0.359051,2.564083,-1.730114,-2.387184,0.230875,-0.878948,0.417310,-0.666605,-0.733433,-0.288480,23.682785,11.801132,-16.414917,,,,,,
1478386035.03,2.566245,1.001761,-0.335638,2.945847,-2.908622,-2.541477,0.293186,-0.842421,0.452071,-0.617588,-1.117113,-0.859267,23.009384,11.950531,-17.022095,,,,,,
1478386035.05,2.485938,0.909897,-0.307079,3.397929,-2.624840,-3.758980,0.374237,-0.789441,0.486549,-0.770080,-1.300846,-0.920158,20.011307,11.648315,-19.226196,,,,,,
1478386035.07,2.418827,0.799472,-0.277658,3.770505,-2.260516,-4.552236,0.461095,-0.716988,0.522800,-0.927663,-1.562019,-0.838153,19.188278,11.722260,-20.284607,,,,,,
1478386035.09,2.354207,0.673111,-0.264063,4.740320,-3.112317,-4.697128,0.553975,-0.623421,0.551777,-1.141514,-2.357871,-0.539341,19.188278,11.722260,-20.284607,,,,,,
1478386035.11,2.277857,0.542152,-0.280817,4.865015,-4.524900,-4.178339,0.651251,-0.515980,0.556450,-1.018195,-3.410625,-0.219017,17.841721,12.171265,-21.274475,,,,,,
1478386035.13,2.231134,0.429538,-0.303045,3.264929,-2.008545,-3.044878,0.718040,-0.416450,0.557663,-1.672569,-3.160103,0.202011,16.490738,11.494904,-22.635986,,,,,,
1478386035.15,2.199237,0.373857,-0.295755,0.444487,-1.494716,-2.387018,0.753068,-0.365209,0.547277,-1.708466,-1.331569,-0.722280,14.687759,10.594223,-23.326233,,,,,,
1478386035.17,2.124685,0.373127,-0.254575,-2.184730,-3.610199,-0.000941,0.791966,-0.364529,0.489805,-2.028629,-1.411029,-1.679289,12.886826,10.369125,-23.418579,,,,,,
1478386035.19,2.082419,0.411442,-0.239768,-1.425188,0.242098,1.907427,0.799182,-0.399931,0.448734,-2.063922,-0.827379,-1.636631,12.886826,10.369125,-23.418579,,,,,,
1478386035.21,2.118817,0.482617,-0.218079,-3.392534,2.557681,2.785413,0.756067,-0.464099,0.461492,-1.550516,-0.385052,-0.762289,11.311844,10.444336,-23.209595,,,,,,
1478386035.23,2.138749,0.583405,-0.167526,-5.078529,2.405862,3.376105,0.703564,-0.550869,0.448933,-1.110165,-0.537327,-0.546010,12.663559,11.045029,-22.522888,,,,,,
1478386035.25,2.161353,0.707596,-0.104679,-5.672753,3.327507,4.068875,0.631219,-0.650008,0.423145,-0.553826,-0.500077,-0.287143,12.366592,12.096146,-21.403992,,,,,,
1478386035.27,2.176199,0.848015,-0.033512,-6.396651,3.059080,4.513478,0.543912,-0.749969,0.376440,-0.252347,-0.401093,0.113382,15.224411,14.799011,-18.533508,,,,,,
1478386035.29,2.151383,1.009014,0.061250,-7.031669,2.269778,5.544435,0.445408,-0.846307,0.292191,-0.065236,-0.455207,0.609588,15.224411,14.799011,-18.533508,,,,,,
1478386035.31,2.091552,1.189986,0.168711,-6.571684,1.363208,6.957333,0.322405,-0.928364,0.184921,0.292692,-0.725536,1.018647,16.351273,15.926193,-16.350647,,,,,,
,,,,,,,,,,,,,,,,37.354313,-122.033668,34.984283,1.460000,97.031250,1478386253.00
1478386035.33,1.980432,1.375990,0.288610,-5.105054,-0.493897,7.720834,0.177561,-0.981085,0.077097,0.571737,-1.085443,1.594046,18.001572,16.678238,-14.311340,,,,,,
1478386035.35,1.336319,1.543506,0.917913,-3.741788,-0.871108,7.430489,0.026540,-0.999628,-0.006340,0.999811,-1.248908,2.521629,18.972519,16.380051,-12.500793,,,,,,
1478386035.37,-0.813284,1.444124,3.072667,-4.028273,1.529794,4.924734,-0.091788,-0.991988,-0.086806,2.068198,-1.324541,3.041884,21.593399,15.705750,-11.797546,,,,,,
1478386035.39,-0.766514,1.343431,3.085086,-3.316156,2.818158,3.127089,-0.156352,-0.974264,-0.162371,2.172938,-0.350413,2.943545,21.593399,15.705750,-11.797546,,,,,,
1478386035.41,-0.730590,1.256059,3.089739,-2.731826,1.850853,3.527171,-0.206577,-0.950878,-0.230559,2.768466,0.763759,3.658721,25.254196,13.458496,-9.054199,,,,,,
1478386035.43,-0.931683,1.212241,-2.934131,4.523823,2.010501,3.906702,-0.281658,-0.936405,-0.209319,3.488079,1.150776,3.205962,25.997086,12.410080,-7.468628,,,,,,
1478386035.45,-1.007701,1.264932,-2.748236,0.378383,8.478476,-3.525347,-0.254627,-0.953587,-0.160739,3.283436,1.908223,2.227602,27.563736,10.835922,-6.623230,,,,,,
1478386035.47,-1.138271,1.408977,-2.614407,6.839251,-7.323408,-6.446590,-0.146277,-0.986936,-0.067533,0.316504,-1.138156,-3.698824,27.104202,9.638687,-3.849243,,,,,,
1478386035.49,-2.598627,1.500526,-1.221321,2.727715,0.010474,-3.140691,-0.036277,-0.997532,0.060115,1.970100,-2.884640,4.070912,27.104202,9.638687,-3.849243,,,,,,
1478386035.51,-2.831152,1.480055,-0.926181,1.334786,3.865554,-0.239222,-0.027682,-0.995886,0.086286,0.426195,-0.768839,1.142429,25.867447,16.985214,-7.333679,,,,,,
1478386035.53,-2.968924,1.441354,-0.713470,2.631272,3.179811,-0.966448,-0.022178,-0.991634,0.127162,-0.103097,0.561046,-0.078715,25.640762,16.911102,-6.435669,,,,,,
1478386035.55,-3.114438,1.392602,-0.550301,2.279684,-0.670918,-0.818458,-0.004813,-0.984165,0.177187,0.206046,0.829090,0.408598,26.015915,17.211945,-5.607849,,,,,,
1478386035.57,3.073817,1.364052,-0.481244,0.732474,-1.519647,-0.813868,0.013902,-0.978704,0.204803,0.625304,0.191503,0.968216,25.494614,17.886475,-6.065125,,,,,,
1478386035.59,3.031873,1.344226,-0.465348,1.432696,-1.034740,0.432327,0.024598,-0.974443,0.223286,0.464187,-1.148940,-0.277256,25.494614,17.886475,-6.065125,,,,,,
1478386035.61,3.090853,1.318556,-0.541033,1.119551,-0.566744,0.758939,0.012658,-0.968356,0.249253,0.273521,-0.240079,0.138686,25.497665,18.260574,-6.966187,,,,,,
1478386035.63,3.115577,1.305415,-0.577981,0.611596,-0.564813,0.186455,0.006823,-0.964992,0.262189,0.034575,0.132610,0.148852,25.570206,17.359528,-8.012756,,,,,,
1478386035.65,3.088298,1.289375,-0.565832,0.858593,-1.100645,-0.348801,0.014794,-0.960662,0.277327,-0.168801,0.139342,-0.128844,25.420639,17.283997,-8.539062,,,,,,
1478386035.67,3.036620,1.267424,-0.544182,1.180843,-1.616495,-0.396670,0.031302,-0.954335,0.297096,-0.129492,-0.121288,-0.241843,24.821121,17.208481,-9.069824,,,,,,
1478386035.69,2.988847,1.240696,-0.519660,1.275522,-1.070382,-0.714461,0.049318,-0.946010,0.320364,-0.140352,-0.240971,-0.089056,24.821121,17.208481,-9.069824,,,,,,
1478386035.71,2.913319,1.203897,-0.468725,1.890042,-1.728502,-1.506903,0.081178,-0.933444,0.349417,-0.314759,-0.263501,-0.384131,24.746109,17.058029,-9.520081,,,,,,
1478386035.73,2.816615,1.153189,-0.406651,2.168209,-1.984773,-1.964409,0.129495,-0.914062,0.384346,-0.417535,-0.186173,-0.354545,23.625595,17.355911,-11.632141,,,,,,
1478386035.75,2.726841,1.093509,-0.356820,2.586496,-2.627048,-2.173791,0.185109,-0.888244,0.420424,-0.488408,-0.329270,-0.174544,22.803329,17.730240,-12.316589,,,,,,
1478386035.77,2.626163,1.019046,-0.322236,3.139826,-3.958816,-2.615613,0.258372,-0.851608,0.456078,-0.649287,-0.719772,-0.596886,22.058182,18.103134,-14.425110,,,,,,
1478386035.79,2.520802,0.930703,-0.292205,3.311907,-3.862234,-3.427049,0.347419,-0.802040,0.485831,-0.794822,-1.080132,-0.868231,22.058182,18.103134,-14.425110,,,,,,
1478386035.81,2.429242,0.827236,-0.260409,3.540654,-3.210417,-4.316990,0.442440,-0.736063,0.512307,-1.074154,-1.484335,-0.932244,20.034378,17.801376,-16.169434,,,,,,
1478386035.83,2.344039,0.706840,-0.240270,4.203490,-3.841237,-4.804773,0.544193,-0.649434,0.531121,-1.410480,-2.070201,-0.880257,18.989731,18.249191,-18.356262,,,,,,
1478386035.85,2.263778,0.572899,-0.252143,5.349060,-4.477892,-4.503236,0.646506,-0.542070,0.536833,-1.614020,-2.952177,-0.799208,15.394791,18.245773,-21.767212,,,,,,
1478386035.87,2.219685,0.436269,-0.284794,4.860055,-1.730181,-4.268955,0.722128,-0.422561,0.547699,-1.212835,-3.498796,0.158844,12.243057,17.269028,-23.520752,,,,,,
1478386035.89,2.203174,0.359706,-0.294159,1.762980,-0.697944,-2.292785,0.755001,-0.351999,0.553237,-1.798931,-2.834265,0.446992,12.243057,17.269028,-23.520752,,,,,,
1478386035.91,2.151290,0.348825,-0.272676,-1.390129,-2.908898,0.036561,0.785832,-0.341794,0.515407,-1.900868,-1.899386,-1.154613,11.565567,16.367966,-24.574829,,,,,,
1478386035.93,2.107969,0.385039,-0.258504,-1.410760,-0.455212,1.504876,0.796254,-0.375595,0.474244,-1.862646,-1.128097,-1.291703,12.089218,15.917526,-25.018250,,,,,,
1478386035.95,2.148717,0.436219,-0.248323,-2.277127,3.286891,2.290406,0.759164,-0.422515,0.495127,-1.651437,-0.444474,-0.954569,12.466232,16.743652,-23.891907,,,,,,
1478386035.97,2.201500,0.521632,-0.214019,-4.521098,3.344448,2.800418,0.700206,-0.498296,0.511285,-1.124996,-0.432323,-0.701959,14.042679,17.795837,-21.704346,,,,,,
1478386035.99,2.232309,0.638171,-0.155249,-5.888332,3.138869,3.436390,0.633765,-0.595728,0.493407,-0.446113,-0.489890,-0.551589,14.042679,17.795837,-21.704346,,,,,,
1478386036.01,2.252779,0.776896,-0.090604,-6.446112,3.026023,4.168047,0.553592,-0.701069,0.449486,-0.043613,-0.319973,-0.188668,17.194687,19.073349,-19.201660,,,,,,
1478386036.03,2.241947,0.935656,-0.015496,-7.182156,1.750307,4.978464,0.464609,-0.804989,0.368960,0.185888,-0.313755,0.195005,19.067673,19.751740,-15.809937,,,,,,
1478386036.05,2.182423,1.116308,0.075056,-7.206437,0.391856,6.411713,0.359418,-0.898486,0.252075,0.493396,-0.591123,0.810348,21.836899,19.605133,-12.406799,,,,,,
1478386036.07,2.103724,1.310332,0.150794,-5.756917,-0.763820,7.922873,0.221816,-0.966270,0.130840,0.708924,-0.805428,1.489949,25.780777,14.209686,-7.851196,,,,,,
1478386036.09,2.116764,1.498307,0.132964,-4.211286,0.313993,8.068489,0.061897,-0.997374,0.037607,1.068215,-0.791567,2.320441,25.780777,14.209686,-7.851196,,,,,,
1478386036.11,-0.896258,1.488872,-3.107421,-4.586230,2.403292,4.875797,-0.063911,-0.996646,-0.051108,2.174095,-1.098264,3.358862,27.337357,10.159805,-7.748474,,,,,,
1478386036.13,-0.669800,1.397409,3.014202,-3.346992,3.072484,1.643542,-0.107106,-0.985006,-0.135246,2.732655,-0.842020,3.941872,27.621292,6.785400,-7.135498,,,,,,
1478386036.15,-0.642826,1.322439,3.016475,-2.947510,0.903034,3.301803,-0.147355,-0.969317,-0.196749,2.648194,1.192798,3.816607,27.836014,4.761169,-6.377258,,,,,,
1478386036.17,-0.884242,1.262835,-2.983838,3.586137,1.204042,4.840773,-0.234440,-0.952954,-0.192138,3.574711,1.501812,3.252670,27.595169,1.537079,-5.470093,,,,,,
1478386036.19,-1.059725,1.285598,-2.722369,0.338882,7.746554,-1.635407,-0.245397,-0.959606,-0.137610,3.207784,1.779247,2.234565,27.595169,1.537079,-5.470093,,,,,,
1478386036.21,-1.243539,1.405992,-2.513464,7.182735,-6.738608,-5.575910,-0.155352,-0.986450,-0.052736,-0.075300,-0.961654,-3.441465,27.812393,0.338654,-3.889282,,,,,,
1478386036.23,-2.486593,1.477652,-1.329596,1.902315,0.080350,-2.846135,-0.056658,-0.995665,0.073761,1.851778,-3.225755,4.162109,28.270065,2.515076,-2.466248,,,,,,
1478386036.25,-2.662672,1.468369,-1.093708,1.239661,3.603317,-0.281931,-0.047118,-0.994759,0.090745,0.368774,-0.599662,1.075561,28.061600,5.663498,-4.052734,,,,,,
1478386036.27,-2.791541,1.434327,-0.890943,2.269975,3.065534,-0.600007,-0.046656,-0.990703,0.127795,0.029811,0.395381,0.183881,27.684372,5.364090,-3.455627,,,,,,
1478386036.29,-2.971896,1.397589,-0.707638,2.119752,-1.676972,-0.933841,-0.029106,-0.985037,0.169867,0.151741,0.765967,0.158319,27.684372,5.364090,-3.455627,,,,,,
1478386036.31,-3.102341,1.367852,-0.614732,0.990363,-1.755371,-0.534295,-0.007909,-0.979477,0.201399,0.373830,0.105973,0.633074,28.285385,6.266113,-1.427307,,,,,,
1478386036.33,-3.114457,1.352040,-0.611160,0.935492,0.482396,0.378856,-0.005888,-0.976168,0.216936,0.371000,-0.815611,-0.015062,28.514664,6.940292,-2.252075,,,,,,
,,,,,,,,,,,,,,,,37.354314,-122.033640,33.250427,2.890000,85.078125,1478386254.00
1478386036.35,-3.070632,1.330849,-0.649242,1.010001,-0.165323,0.356904,-0.016850,-0.971351,0.237053,0.138905,-0.305276,-0.141945,27.614456,6.865219,-2.335876,,,,,,
1478386036.37,-3.070406,1.313156,-0.661614,0.852086,-0.817670,0.198845,-0.018123,-0.966994,0.254154,0.110027,-0.015382,0.022396,28.289993,6.940063,-2.479370,,,,,,
1478386036.39,-3.100815,1.290277,-0.666276,1.338220,-2.325775,0.023526,-0.011286,-0.960912,0.276624,0.002467,-0.198954,-0.433454,28.289993,6.940063,-2.479370,,,,,,
1478386036.41,3.100316,1.260483,-0.636644,1.517875,-2.572248,-0.743967,0.012601,-0.952238,0.305097,-0.011685,-0.201403,-0.205991,28.216324,6.788712,-3.829590,,,,,,
1478386036.43,3.003421,1.227233,-0.574657,1.574538,-1.632271,-1.398362,0.046394,-0.941560,0.333634,-0.110329,-0.216749,0.043930,27.617722,6.712585,-4.960327,,,,,,
1478386036.45,2.879975,1.180788,-0.484430,2.251850,-2.378210,-2.415305,0.098335,-0.924906,0.367259,-0.398689,-0.187292,-0.497493,27.471756,7.386902,-5.638855,,,,,,
1478386036.47,2.746852,1.116813,-0.402205,2.592498,-3.074517,-2.657023,0.168652,-0.898707,0.404823,-0.590649,-0.137380,-0.283225,27.702469,8.210556,-6.989014,,,,,,
1478386036.49,2.634801,1.041394,-0.353502,3.072044,-3.789991,-2.670978,0.245123,-0.863109,0.441540,-0.773642,-0.360905,-0.353665,27.702469,8.210556,-6.989014,,,,,,
1478386036.51,2.527606,0.956803,-0.335646,3.480986,-5.081175,-2.708008,0.331930,-0.817354,0.470909,-0.996404,-1.064696,-0.771401,26.958450,9.034042,-8.498901,,,,,,
1478386036.53,2.420403,0.864144,-0.320975,3.219774,-4.181925,-3.724195,0.428713,-0.760540,0.487631,-1.140856,-1.706089,-1.031058,25.320816,10.379822,-12.719299,,,,,,
1478386036.55,2.344732,0.751590,-0.288216,3.348800,-1.968888,-5.204058,0.522503,-0.682801,0.510660,-1.388134,-1.648726,-0.592111,24.652603,11.127563,-14.978210,,,,,,
1478386036.57,2.288754,0.623032,-0.265661,4.235400,-2.052941,-5.192063,0.611644,-0.583500,0.534247,-1.689616,-2.050014,-0.780860,23.383896,12.101273,-16.268860,,,,,,
1478386036.59,2.252082,0.490965,-0.270516,4.327257,-1.639843,-4.853145,0.685011,-0.471477,0.555400,-1.338331,-2.725270,-0.692821,23.383896,12.101273,-16.268860,,,,,,
1478386036.61,2.237638,0.388001,-0.273198,2.471533,-0.172950,-3.146068,0.727370,-0.378339,0.572532,-1.207640,-3.414157,-0.174430,22.715805,13.225067,-17.478882,,,,,,
1478386036.63,2.239572,0.326180,-0.257892,-0.274604,-0.447761,-2.247716,0.743213,-0.320427,0.587334,-1.142947,-2.016991,-0.258385,21.070419,13.748550,-18.996948,,,,,,
1478386036.65,2.189895,0.342288,-0.228806,-1.916154,-2.613181,0.830143,0.767158,-0.335643,0.546638,-1.784553,-1.892842,-1.273048,20.399918,14.798691,-18.856750,,,,,,
1478386036.67,2.162873,0.384342,-0.203867,-2.319318,0.311939,1.149468,0.769247,-0.374949,0.517371,-1.431005,-0.745672,-0.959265,20.027054,15.248611,-18.936890,,,,,,
1478386036.69,2.181764,0.446892,-0.167602,-3.846371,2.164148,1.958565,0.738654,-0.432165,0.517324,-1.330985,-0.483790,-0.652364,20.027054,15.248611,-18.936890,,,,,,
1478386036.71,2.199410,0.546089,-0.107646,-5.592781,2.379358,2.831156,0.691207,-0.519349,0.502503,-0.820571,-0.466765,-0.389130,20.403091,16.000183,-17.360291,,,,,,
1478386036.73,2.209383,0.672441,-0.037198,-6.262140,2.576171,3.703434,0.628142,-0.622897,0.466301,-0.353041,-0.383054,-0.180717,20.699417,15.927444,-15.107178,,,,,,
1478386036.75,2.211268,0.818473,0.034895,-6.697190,2.482002,4.620193,0.547909,-0.730104,0.408344,-0.169247,-0.351638,0.282620,23.309158,14.433090,-9.451599,,,,,,
1478386036.77,2.182974,0.987509,0.124322,-7.459562,1.858326,5.620400,0.450750,-0.834657,0.316501,-0.044790,-0.465331,0.709012,24.272903,12.710434,-7.111755,,,,,,
1478386036.79,2.110290,1.173041,0.241875,-7.145345,1.350495,6.602498,0.332334,-0.921933,0.198982,0.107531,-0.727909,1.075325,24.272903,12.710434,-7.111755,,,,,,
1478386036.81,1.963219,1.356028,0.411841,-5.937351,0.330279,7.202247,0.196921,-0.977026,0.081504,0.381097,-0.942835,1.911859,24.032608,10.162979,-4.556519,,,,,,
1478386036.83,1.264562,1.512331,1.109491,-4.426753,-0.475383,6.909911,0.055713,-0.998291,-0.017615,0.798077,-0.999343,2.799857,25.142990,7.163757,-3.786438,,,,,,
1478386036.85,-0.497406,1.453080,2.873893,-4.257932,0.618169,4.696236,-0.056038,-0.993079,-0.103213,1.850029,-0.965356,3.317446,24.514694,0.713257,-4.298401,,,,,,
1478386036.87,-0.607271,1.360015,3.028162,-2.641030,2.533085,3.076041,-0.119389,-0.977868,-0.171816,2.534108,-0.455802,3.855578,23.380142,-1.537125,-4.677979,,,,,,
1478386036.89,-0.656266,1.274459,3.114028,-2.875607,1.368737,3.941057,-0.178180,-0.956412,-0.231360,2.842608,1.082084,3.546393,23.380142,-1.537125,-4.677979,,,,,,
1478386036.91,-0.885075,1.218199,-2.897402,3.477586,0.479259,4.767006,-0.267278,-0.938479,-0.218678,3.759801,1.372912,2.993382,22.623520,-2.886765,-4.306458,,,,,,
1478386036.93,-1.011381,1.248633,-2.707920,0.782808,5.271042,-2.205572,-0.268356,-0.948553,-0.168027,3.298080,1.880025,1.965192,22.241074,-4.611984,-4.530090,,,,,,
1478386036.95,-1.056731,1.358416,-2.662336,6.265750,-7.555631,-5.079731,-0.183544,-0.977532,-0.103649,-0.231907,-1.370567,-5.555531,21.859482,-5.134140,-1.682373,,,,,,
1478386036.97,-2.103494,1.469021,-1.695727,4.782907,-0.604429,-3.540687,-0.087522,-0.994825,0.051599,2.000852,-3.125078,5.137687,23.075150,-1.985107,-2.654663,,,,,,
1478386036.99,-2.362283,1.466580,-1.376038,0.965903,4.457416,-0.523792,-0.073110,-0.994574,0.074005,0.400044,-0.986962,1.606643,23.075150,-1.985107,-2.654663,,,,,,
1478386037.01,-2.551630,1.458125,-1.080745,1.702790,4.867918,-1.227608,-0.062550,-0.993659,0.093428,0.018452,0.348106,0.245058,23.527115,-1.459869,-2.426758,,,,,,
1478386037.03,-2.849905,1.431490,-0.745150,2.149522,-0.492524,-1.219139,-0.039931,-0.990313,0.132991,0.157485,0.816240,0.013341,22.925919,-0.857269,0.190491,,,,,,
1478386037.05,-3.023019,1.400907,-0.611525,1.347540,-2.148862,-0.449417,-0.020001,-0.985604,0.167886,0.510540,0.377205,0.914603,22.476608,-0.331146,1.309326,,,,,,
1478386037.07,-3.063747,1.380834,-0.600457,1.256354,-0.863032,0.468531,-0.014684,-0.982011,0.188251,0.538015,-0.746398,-0.346560,22.629776,0.118103,0.559570,,,,,,
1478386037.09,-2.989471,1.354629,-0.680653,1.032619,0.043984,0.982412,-0.032503,-0.976727,0.212011,0.224473,-0.593327,0.094980,22.629776,0.118103,0.559570,,,,,,
1478386037.11,-2.961745,1.336712,-0.712101,0.835548,-0.345391,0.161518,-0.041492,-0.972727,0.228211,0.085620,0.030726,-0.012360,23.155533,0.268036,0.489380,,,,,,
1478386037.13,-3.013412,1.316909,-0.685273,1.210985,-2.019605,-0.306130,-0.032107,-0.967943,0.249108,-0.108335,0.042254,-0.301934,23.005661,0.192734,0.188110,,,,,,
1478386037.15,-3.119806,1.287169,-0.631218,1.615308,-2.770154,-0.820334,-0.006096,-0.960047,0.279774,-0.145622,0.073725,-0.233738,22.856888,0.342361,-0.188843,,,,,,
1478386037.17,3.053385,1.253799,-0.556113,1.668802,-1.446542,-1.339058,0.027460,-0.950176,0.310503,-0.186304,-0.014546,0.031919,23.087296,1.166229,-1.314026,,,,,,
1478386037.19,2.949417,1.208768,-0.479468,2.390634,-1.829507,-1.732035,0.067645,-0.935180,0.347652,-0.512866,-0.322693,-0.568431,23.087296,1.166229,-1.314026,,,,,,
1478386037.21,2.859344,1.149723,-0.420089,2.577171,-1.567070,-1.796163,0.113841,-0.912651,0.392567,-0.598368,-0.396370,-0.330006,23.089218,1.616302,-1.240356,,,,,,
1478386037.23,2.790638,1.088714,-0.371125,2.605256,-1.196615,-2.147674,0.159392,-0.886031,0.435365,-0.613402,-0.498277,-0.208833,23.770462,2.665253,-2.286682,,,,,,
1478386037.25,2.706883,1.015748,-0.313866,3.025126,-1.999828,-3.055175,0.221938,-0.849875,0.477971,-0.578841,-0.800363,-0.772328,22.872787,3.115097,-2.447021,,,,,,
1478386037.27,2.618552,0.924074,-0.257684,3.467583,-2.146033,-3.818729,0.300996,-0.798063,0.522012,-0.618974,-1.013689,-0.984995,22.729294,4.389572,-2.977173,,,,,,
1478386037.29,2.532120,0.814771,-0.209050,3.958728,-2.785535,-4.443593,0.392711,-0.727568,0.562515,-0.738597,-1.239686,-1.052169,22.729294,4.389572,-2.977173,,,,,,
,,,,,,,,,,,,,,,,37.354317,-122.033604,33.272034,2.890000,84.375000,1478386255.00
1478386037.31,2.446944,0.686008,-0.187509,4.959979,-4.091840,-4.502071,0.495309,-0.633453,0.594479,-0.849786,-1.549988,-0.814923,23.120499,7.387756,-4.782349,,,,,,
1478386037.33,2.375705,0.540302,-0.198036,6.376099,-3.321836,-4.713310,0.594436,-0.514395,0.618097,-0.741287,-2.161173,-0.439386,22.680832,9.186249,-6.292114,,,,,,
1478386037.35,2.334872,0.397961,-0.215248,3.985463,-2.084773,-3.586881,0.665599,-0.387540,0.637802,-0.499736,-3.894031,0.233185,21.412369,10.084595,-7.957520,,,,,,
1478386037.37,2.293765,0.339180,-0.224725,1.395769,-2.973170,-1.309543,0.707124,-0.332714,0.623920,-1.248537,-3.162968,0.361813,21.119339,11.208313,-9.238831,,,,,,
1478386037.39,2.204682,0.340609,-0.213129,-1.053822,-4.694400,0.258452,0.759444,-0.334061,0.558254,-1.896437,-2.139266,-1.320843,21.119339,11.208313,-9.238831,,,,,,
1478386037.41,2.139719,0.353245,-0.200100,-0.692891,-1.145809,0.006009,0.790463,-0.345944,0.505461,-2.249951,-0.919330,-1.485960,19.621811,11.056198,-11.353333,,,,,,
1478386037.43,2.167211,0.380760,-0.181726,-2.254771,2.515457,1.387355,0.768102,-0.371626,0.521454,-2.131963,-0.648912,-0.803192,18.496170,10.830963,-11.588928,,,,,,
1478386037.45,2.204403,0.461950,-0.147754,-4.299348,2.588933,2.725939,0.721428,-0.445695,0.529999,-1.360633,-0.537780,-0.543304,18.496170,11.056641,-10.914551,,,,,,
1478386037.47,2.230032,0.569692,-0.096788,-5.370980,2.464435,3.178880,0.665621,-0.539372,0.515777,-0.368624,-0.561015,-0.487762,19.320145,11.282990,-9.557007,,,,,,
1478386037.49,2.239145,0.703177,-0.039920,-6.280158,1.845096,4.319874,0.598674,-0.646644,0.472695,-0.104732,-0.438622,-0.114480,19.320145,11.282990,-9.557007,,,,,,
1478386037.51,2.222448,0.869362,0.019068,-6.992865,0.944199,5.858958,0.513078,-0.763917,0.391383,-0.027055,-0.320281,0.395818,19.392258,11.059265,-8.280640,,,,,,
1478386037.53,2.184761,1.060417,0.078492,-6.940075,0.394426,7.163150,0.399292,-0.872559,0.281436,0.120392,-0.383117,0.772108,19.305069,9.337189,-5.351318,,,,,,
1478386037.55,2.143455,1.260897,0.129400,-6.082684,0.192352,8.023097,0.256310,-0.952364,0.165250,0.337852,-0.640531,1.451831,20.195969,7.688339,-4.212463,,,,,,
1478386037.57,2.144793,1.456816,0.136041,-4.913314,0.704836,8.216721,0.095506,-0.993511,0.061756,0.646849,-0.957477,2.400173,20.256912,4.989609,-2.928772,,,,,,
1478386037.59,-0.968331,1.511618,-3.008412,-5.011334,1.661573,6.067379,-0.048731,-0.998250,-0.033515,1.617212,-1.311946,3.028800,20.256912,4.989609,-2.928772,,,,,,
1478386037.61,-0.752657,1.401814,3.117200,-3.519396,3.421699,2.518039,-0.114964,-0.985756,-0.122750,2.437214,-1.267234,3.721108,19.415787,1.464767,-2.776550,,,,,,
1478386037.63,-0.722564,1.285355,3.117832,-4.608729,0.256094,5.130412,-0.186212,-0.959537,-0.211218,2.102670,-0.371197,3.681799,17.750198,-1.909927,-2.483154,,,,,,
1478386037.65,-0.914481,1.186834,-2.931541,3.279836,2.762341,7.099833,-0.296773,-0.927188,-0.228580,4.002187,1.058276,3.921924,16.468552,-3.635712,-3.240784,,,,,,
1478386037.67,-1.100359,1.182852,-2.617647,3.115762,7.728447,-0.451222,-0.337193,-0.925689,-0.171468,4.897023,2.835814,2.811742,14.886276,-4.834442,-1.978027,,,,,,
1478386037.69,-0.995876,1.273965,-2.639302,4.545250,-2.857989,-4.885098,-0.245469,-0.956268,-0.159048,-0.057418,-0.706040,-7.563349,14.886276,-4.834442,-1.978027,,,,,,
1478386037.71,-1.534681,1.425705,-2.213171,7.547629,-3.277423,-6.183436,-0.144489,-0.989493,-0.005221,1.916477,-2.042856,4.541521,13.225479,-6.256531,0.934631,,,,,,
1478386037.73,-2.194988,1.483777,-1.532733,2.450435,2.214944,-2.097959,-0.070521,-0.996216,0.050793,1.342463,-2.868331,2.172443,14.591599,-2.731674,0.787659,,,,,,
1478386037.75,-2.664664,1.454117,-1.008289,3.175634,2.905435,-0.800938,-0.053440,-0.993201,0.103424,0.131794,-0.413919,0.258911,15.727127,-0.181061,1.391418,,,,,,
1478386037.77,-2.854850,1.410571,-0.775632,2.256991,1.092099,-0.719914,-0.045123,-0.987191,0.153026,-0.168958,0.640924,0.056233,15.502823,0.269836,2.287842,,,,,,
1478386037.79,-3.030313,1.381662,-0.624911,1.396675,-2.501221,-1.107380,-0.020878,-0.982167,0.186845,-0.153041,0.970464,0.500410,15.502823,0.269836,2.287842,,,,,,
1478386037.81,3.079612,1.344614,-0.493426,2.369114,-1.632019,-1.451603,0.013891,-0.974530,0.223828,0.051600,0.441677,0.800036,14.829453,0.720123,2.579773,,,,,,
1478386037.83,2.972773,1.317117,-0.401767,0.208442,-0.310618,-0.929268,0.042167,-0.967996,0.247399,0.373528,-0.938071,-0.475244,15.507553,1.169388,1.835205,,,,,,
1478386037.85,2.992524,1.305524,-0.396356,0.548209,1.523939,0.141587,0.038937,-0.965021,0.259264,0.442127,-0.840719,-0.024859,16.186386,2.069534,1.989258,,,,,,
1478386037.87,3.016891,1.295346,-0.409997,0.584862,-0.314059,0.004110,0.033829,-0.962303,0.269868,0.058258,0.096962,-0.127061,16.260727,2.069977,2.440002,,,,,,
1478386037.89,2.983804,1.271953,-0.414543,1.510571,-2.641014,-0.072265,0.046263,-0.955678,0.290758,-0.073118,0.148701,-0.481447,16.260727,2.069977,2.440002,,,,,,
1478386037.91,2.938742,1.240976,-0.420790,1.464876,-2.167942,-0.386228,0.065248,-0.946101,0.317232,-0.058092,-0.079092,-0.035158,15.209915,1.920044,2.505005,,,,,,
1478386037.93,2.880740,1.207476,-0.388234,1.575876,-0.993156,-1.232199,0.091654,-0.934722,0.343357,-0.198649,-0.244737,-0.121937,16.337967,2.294159,1.615112,,,,,,
1478386037.95,2.817062,1.162910,-0.337627,2.012582,-0.865792,-1.693715,0.126484,-0.917961,0.375964,-0.379459,-0.395378,-0.456653,16.265976,2.893936,1.387573,,,,,,
1478386037.97,2.756090,1.110203,-0.292418,2.233700,-1.146944,-1.893899,0.167136,-0.895789,0.411859,-0.451361,-0.310830,-0.332910,15.968826,3.569092,1.532593,,,,,,
1478386037.99,2.689642,1.043757,-0.253268,2.956983,-2.046846,-2.418760,0.219661,-0.864300,0.452476,-0.561442,-0.447300,-0.558983,15.968826,3.569092,1.532593,,,,,,
1478386038.01,2.609388,0.956935,-0.221318,3.626434,-2.819277,-3.060774,0.292296,-0.817430,0.496358,-0.659667,-0.753218,-0.850301,16.347427,4.243698,1.159302,,,,,,
1478386038.03,2.533438,0.855985,-0.192263,3.861967,-2.515956,-3.736909,0.374508,-0.755217,0.537951,-0.722027,-1.132387,-0.853091,16.652237,5.067963,0.409973,,,,,,
1478386038.05,2.458935,0.742261,-0.169420,4.200570,-3.356110,-4.227969,0.464906,-0.675956,0.571793,-0.885087,-1.569757,-0.921982,16.957870,6.117355,-0.190125,,,,,,
1478386038.07,2.382608,0.613240,-0.167053,5.411685,-3.701775,-4.331518,0.562789,-0.575520,0.593334,-1.008880,-2.073741,-0.593853,16.221390,8.590775,-1.779968,,,,,,
1478386038.09,2.332441,0.466885,-0.195252,5.867208,-2.904740,-4.302891,0.646247,-0.450107,0.616253,-1.005759,-3.103497,-0.050564,16.221390,8.590775,-1.779968,,,,,,
1478386038.11,2.294399,0.378629,-0.206820,1.943018,-1.896035,-1.984193,0.696345,-0.369647,0.615195,-1.554576,-3.750577,0.327142,16.528366,9.714493,-3.055176,,,,,,
1478386038.13,2.246046,0.339670,-0.195607,-0.265159,-3.029825,-1.517842,0.735954,-0.333176,0.589378,-1.558997,-1.835891,-0.873557,16.233047,10.463593,-3.960449,,,,,,
1478386038.15,2.168824,0.349246,-0.180092,-0.925265,-3.394975,0.723692,0.776556,-0.342189,0.529025,-1.928182,-1.477406,-1.526278,15.861008,10.988205,-4.340698,,,,,,
1478386038.17,2.155122,0.384270,-0.179197,-1.397216,1.076000,1.835644,0.773256,-0.374883,0.511408,-1.647860,-0.613948,-1.159509,15.782181,10.163284,-4.264038,,,,,,
1478386038.19,2.188384,0.454863,-0.163543,-3.303382,2.045705,2.940813,0.732381,-0.439340,0.520191,-1.401235,-0.456778,-0.856525,15.782181,10.163284,-4.264038,,,,,,
1478386038.21,2.221324,0.562113,-0.135335,-4.573687,2.634641,3.863340,0.673321,-0.532975,0.512422,-0.764919,-0.439819,-0.531343,15.403824,9.714188,-3.366455,,,,,,
1478386038.23,2.256095,0.689088,-0.100010,-5.376443,2.685613,4.271289,0.597571,-0.635833,0.488492,-0.246970,-0.450181,-0.387250,15.775101,9.265305,-2.236450,,,,,,
1478386038.25,2.267304,0.840346,-0.054657,-6.549261,1.749962,5.100044,0.511805,-0.744874,0.428041,0.026419,-0.574676,-0.052156,14.642715,8.367554,0.004944,,,,,,
1478386038.27,2.237089,1.015358,0.008069,-7.052034,0.488080,5.923726,0.414533,-0.849669,0.325921,0.295337,-0.633470,0.279533,14.559250,7.019119,1.583130,,,,,,
1478386038.29,2.175962,1.203898,0.072110,-6.499984,-0.596274,7.254025,0.295015,-0.933445,0.204076,0.537031,-1.005673,0.650950,14.559250,7.019119,1.583130,,,,,,
1478386038.31,2.119916,1.394705,0.102572,-4.950079,-1.840208,8.046070,0.149428,-0.984536,0.091434,0.901094,-1.337699,1.395932,14.757919,1.921387,3.850464,,,,,,
1478386038.33,-2.821642,1.538822,-1.252996,-1.631620,0.543560,7.623552,-0.010055,-0.999489,0.030347,1.224288,-1.221107,2.936282,14.220322,-0.928757,3.703674,,,,,,
,,,,,,,,,,,,,,,,37.354321,-122.033590,33.501221,2.890000,64.687500,1478386256.00
1478386038.35,-1.242444,1.448156,-2.793258,-5.840189,3.547768,3.785654,-0.115798,-0.992489,-0.039450,2.581252,-0.847660,3.314917,12.932632,-3.703613,3.849060,,,,,,
1478386038.37,-0.755350,1.343772,3.124581,-4.656564,5.908082,2.602915,-0.154302,-0.974340,-0.163865,1.771245,0.106863,2.228898,12.098160,-6.029282,3.172729,,,,,,
1478386038.39,-0.709067,1.242446,3.127687,-3.132160,1.697383,4.099391,-0.209976,-0.946576,-0.244754,2.655731,0.635647,3.585529,12.098160,-6.029282,3.172729,,,,,,
1478386038.41,-0.860722,1.179341,-2.897767,3.283489,5.146900,4.828405,-0.289322,-0.924355,-0.248718,4.275589,1.431221,3.841034,9.240311,-8.506485,0.976562,,,,,,
1478386038.43,-0.940180,1.229921,-2.700707,3.175552,7.238945,-2.768921,-0.270012,-0.942462,-0.197125,2.422646,1.853000,1.909695,6.611740,-8.880234,2.226379,,,,,,
1478386038.45,-0.984430,1.385217,-2.633009,7.425287,-6.326216,-6.958211,-0.153694,-0.982830,-0.102100,0.870933,-0.757191,-0.708646,4.277802,-10.378754,3.707520,,,,,,
1478386038.47,-2.151785,1.520652,-1.566243,2.833162,-2.644018,-3.149282,-0.041899,-0.998743,0.027510,2.009962,-3.609045,3.402498,7.966019,-7.077667,4.784546,,,,,,
1478386038.49,-2.698108,1.492768,-1.008244,1.972316,1.207324,0.076834,-0.033447,-0.996957,0.070408,0.247955,-1.019293,0.443676,7.966019,-7.077667,4.784546,,,,,,
1478386038.51,-2.863764,1.443546,-0.800375,2.594962,2.178318,-0.301907,-0.034807,-0.991915,0.122040,-0.096434,0.574694,0.281127,9.394608,-6.102142,5.320862,,,,,,
1478386038.53,-2.986387,1.408951,-0.643112,1.753327,1.273033,-0.874262,-0.024909,-0.986932,0.159202,0.230216,0.888970,0.664879,8.418411,-5.950867,6.585693,,,,,,
1478386038.55,-3.074632,1.392499,-0.547948,0.190075,-0.416709,-0.608114,-0.011867,-0.984147,0.176957,0.457515,0.007447,0.387222,8.570450,-5.350418,7.035461,,,,,,
1478386038.57,-3.103717,1.380774,-0.532942,1.160004,-0.753026,0.412992,-0.007152,-0.982000,0.188745,0.419445,-1.043314,-0.380762,8.571121,-5.200424,7.034973,,,,,,
1478386038.59,-3.049161,1.353592,-0.609223,1.074008,-1.241986,0.956393,-0.019891,-0.976504,0.214581,0.348672,-0.163709,0.141544,8.571121,-5.200424,7.034973,,,,,,
1478386038.61,-3.017730,1.338598,-0.673891,0.603953,-1.643594,0.625396,-0.028430,-0.973163,0.228354,0.022372,0.168628,0.107614,8.721573,-5.050262,7.186035,,,,,,
1478386038.63,-3.037969,1.323588,-0.682054,0.869175,-1.313905,-0.085873,-0.025311,-0.969599,0.243386,-0.262241,0.173396,-0.228631,9.020950,-5.200333,7.114441,,,,,,
1478386038.65,-3.096678,1.300374,-0.652991,1.261747,-1.599218,-0.330644,-0.011994,-0.963658,0.266869,-0.496749,0.116322,-0.169473,9.320541,-5.275253,7.192688,,,,,,
1478386038.67,3.130921,1.273049,-0.619303,1.451225,-1.014506,-0.573375,0.003131,-0.956000,0.293350,-0.551196,0.056647,-0.007630,9.848099,-4.675186,7.271179,,,,,,
1478386038.69,3.047116,1.236755,-0.562670,2.083094,-1.729241,-1.286879,0.030929,-0.944725,0.326401,-0.656189,-0.167519,-0.520585,9.848099,-4.675186,7.271179,,,,,,
1478386038.71,2.946880,1.184510,-0.482147,2.469126,-0.900277,-2.046781,0.072895,-0.926315,0.369631,-0.280674,-0.301514,-0.295535,10.073776,-4.449951,7.497681,,,,,,
1478386038.73,2.855557,1.126095,-0.396211,2.441889,-0.596236,-2.491524,0.121378,-0.902739,0.412710,-0.086924,-0.332200,-0.190023,10.074600,-4.149582,7.871765,,,,,,
1478386038.75,2.775234,1.058995,-0.333170,2.972871,-1.724271,-2.487293,0.175437,-0.871864,0.457248,-0.163779,-0.763543,-0.617603,11.882645,-2.349579,7.884460,,,,,,
1478386038.77,2.684296,0.975223,-0.285649,3.585882,-2.821069,-3.108928,0.247688,-0.827827,0.503342,-0.476448,-0.936272,-0.965149,12.861038,-1.599564,7.891968,,,,,,
1478386038.79,2.588907,0.874213,-0.239724,3.794821,-2.955720,-3.993589,0.336824,-0.767039,0.546077,-0.586031,-1.336721,-1.102001,12.861038,-1.599564,7.891968,,,,,,
1478386038.81,2.487404,0.756578,-0.195944,4.090807,-3.990956,-4.900875,0.442506,-0.686437,0.577055,-0.708772,-1.801356,-1.345335,13.315750,-0.624786,7.668640,,,,,,
1478386038.83,2.383972,0.612752,-0.177244,5.683321,-4.819085,-5.312794,0.562172,-0.575121,0.594305,-0.797768,-2.395887,-0.830374,15.048141,0.724335,6.781921,,,,,,
1478386038.85,2.305292,0.455345,-0.205739,6.147665,-4.567757,-4.161673,0.666548,-0.439772,0.601925,-0.903701,-3.606447,-0.052471,17.541855,4.021713,4.171936,,,,,,
1478386038.87,2.241766,0.376791,-0.236140,1.888558,-3.319782,-0.915508,0.728276,-0.367938,0.578130,-1.713994,-3.723523,0.540095,17.999313,5.145142,2.598206,,,,,,
1478386038.89,2.181952,0.359659,-0.232230,-0.997031,-3.600660,-0.659537,0.766584,-0.351955,0.537100,-2.078550,-1.501301,-0.546118,17.999313,5.145142,2.598206,,,,,,
1478386038.91,2.076891,0.384264,-0.196844,-1.846242,-4.560205,0.657984,0.810861,-0.374877,0.449413,-2.603890,-1.090135,-1.543178,17.622391,4.093262,0.722595,,,,,,
1478386038.93,2.064686,0.423094,-0.194491,-1.297480,2.188234,2.544036,0.802856,-0.410583,0.432253,-2.290009,-0.258301,-0.861132,17.622940,3.340652,-1.900146,,,,,,
1478386038.95,2.130693,0.517864,-0.184237,-3.502688,3.433985,4.428324,0.736209,-0.495025,0.461461,-1.772251,-0.234757,-0.537648,17.920883,2.213623,-3.918823,,,,,,
1478386038.97,2.172110,0.642665,-0.160405,-4.745233,2.410990,4.756695,0.660088,-0.599331,0.452865,-0.672478,-0.679523,-0.524749,16.865402,0.637573,-4.974609,,,,,,
1478386038.99,2.196247,0.784773,-0.120156,-5.611660,2.663176,5.056108,0.573610,-0.706665,0.414243,0.038405,-0.811661,-0.130933,16.865402,0.637573,-4.974609,,,,,,
1478386039.01,2.212555,0.942038,-0.068553,-6.256906,2.828742,5.624810,0.471127,-0.808758,0.352064,0.240863,-0.878788,0.402971,17.986862,-0.488464,-6.010071,,,,,,
1478386039.03,2.217758,1.121843,-0.014563,-6.573135,2.326636,6.746859,0.346315,-0.900902,0.261614,0.213759,-1.038582,1.037733,17.757797,-1.614136,-6.683960,,,,,,
1478386039.05,2.218574,1.309951,0.016956,-5.737856,0.937939,7.346014,0.205654,-0.966172,0.155619,0.430881,-1.234496,1.811940,17.602524,-3.115112,-7.656006,,,,,,
1478386039.07,2.426445,1.487582,-0.185441,-3.974633,0.411478,7.746154,0.054503,-0.996540,0.062754,0.828706,-1.313900,2.496785,14.668655,-5.817307,-9.852173,,,,,,
1478386039.09,-1.586880,1.495836,-2.443204,-3.679944,0.719172,5.364932,-0.074880,-0.997192,0.001204,1.913763,-1.234192,3.166856,14.668655,-5.817307,-9.852173,,,,,,
1478386039.11,-1.044065,1.388400,-2.944766,-3.857417,2.594897,4.060966,-0.156801,-0.983412,-0.091185,2.563936,-0.769564,3.318495,13.689835,-6.943130,-10.683655,,,,,,
1478386039.13,-1.008014,1.264460,-2.940348,-2.198277,3.290421,6.558395,-0.255058,-0.953445,-0.160899,3.577522,0.615295,3.441050,12.865524,-7.244492,-12.040955,,,,,,
1478386039.15,-1.121481,1.175515,-2.711699,2.692849,4.731609,3.655143,-0.346848,-0.922888,-0.167254,5.060822,2.186179,3.084429,11.815659,-7.620712,-13.250305,,,,,,
1478386039.17,-1.142863,1.223860,-2.584034,3.400259,3.617630,-3.519009,-0.309357,-0.940419,-0.141105,2.881562,1.897221,1.286338,10.310287,-8.595047,-12.587524,,,,,,
1478386039.19,-1.034680,1.336213,-2.612874,3.756716,4.751396,-5.551682,-0.199826,-0.972611,-0.118729,0.438657,-0.779342,-2.915298,10.310287,-8.595047,-12.587524,,,,,,
1478386039.21,-1.833417,1.479306,-1.873234,7.772943,-5.470942,-4.884752,-0.088231,-0.995818,0.023719,1.161397,-2.950685,2.311898,13.458755,-8.293137,-10.681885,,,,,,
1478386039.23,-2.501951,1.441838,-1.233293,2.100407,1.223268,0.296027,-0.076763,-0.991696,0.103178,1.045574,-1.842990,2.443514,15.411301,-7.467377,-9.914856,,,,,,
1478386039.25,-2.637455,1.435754,-1.051562,0.782919,2.659466,-1.356232,-0.065034,-0.990896,0.117883,0.282991,0.489599,0.432624,14.059097,-7.766785,-9.327515,,,,,,
1478386039.27,-2.844680,1.421514,-0.787287,1.414794,2.268846,-1.379713,-0.043513,-0.988878,0.142221,0.186656,0.747560,0.005942,14.508408,-7.841553,-9.097778,,,,,,
1478386039.29,-2.972005,1.397081,-0.640815,1.403116,0.068788,-0.457326,-0.029172,-0.984949,0.170363,0.421964,0.315714,0.341264,14.508408,-7.841553,-9.097778,,,,,,
1478386039.31,-2.996137,1.379897,-0.629556,0.737976,-0.744870,0.330979,-0.027502,-0.981834,0.187738,0.584646,-0.601738,-0.016519,15.858871,-7.390488,-8.035645,,,,,,
1478386039.33,-2.947988,1.354404,-0.694412,1.292833,-0.997340,1.086625,-0.041309,-0.976678,0.210696,0.319370,-0.530234,-0.223895,15.859543,-7.240494,-8.036072,,,,,,
1478386039.35,-2.915457,1.328629,-0.758056,1.084799,-1.713788,0.759491,-0.053768,-0.970820,0.233702,0.093258,0.044444,-0.113569,15.031143,-7.915268,-7.817322,,,,,,
,,,,,,,,,,,,,,,,37.354327,-122.033574,34.065582,2.690000,78.046875,1478386257.00
1478386039.37,-2.953881,1.303923,-0.752968,1.328106,-1.622498,-0.159746,-0.049213,-0.964600,0.259084,-0.102536,0.222046,-0.095556,15.030136,-8.140274,-7.816650,,,,,,
1478386039.39,-3.036948,1.274615,-0.701574,1.683238,-1.636341,-0.624998,-0.030487,-0.956458,0.290273,-0.368454,0.178763,-0.009527,15.030136,-8.140274,-7.816650,,,,,,
1478386039.41,-3.111353,1.242359,-0.649118,1.604448,-1.040251,-0.724995,-0.009753,-0.946548,0.322417,-0.564054,0.145248,-0.037596,14.581497,-7.840271,-7.822083,,,,,,
1478386039.43,3.095174,1.200644,-0.591528,2.442755,-1.253237,-1.217734,0.016786,-0.932272,0.361368,-0.788667,0.042441,-0.449045,14.131271,-7.764908,-7.451782,,,,,,
1478386039.45,3.008468,1.146239,-0.518367,2.622450,-0.539602,-2.009296,0.054675,-0.911221,0.408273,-0.425311,-0.449665,-0.106058,14.432083,-7.690201,-7.748962,,,,,,
1478386039.47,2.919704,1.089793,-0.427125,2.346268,-0.390438,-2.567083,0.101821,-0.886531,0.451326,-0.119033,-0.600926,-0.152910,15.334183,-7.089813,-7.366760,,,,,,
1478386039.49,2.840915,1.023438,-0.362794,3.211533,-1.703068,-2.398241,0.154135,-0.853902,0.497085,-0.267798,-0.687083,-0.770934,15.334183,-7.089813,-7.366760,,,,,,
1478386039.51,2.753861,0.939147,-0.309558,3.515967,-2.262385,-3.041372,0.223253,-0.807055,0.546645,-0.324251,-0.914640,-0.781508,16.386429,-6.564728,-7.282776,,,,,,
1478386039.53,2.667739,0.840984,-0.262390,4.003721,-2.811494,-3.601887,0.304241,-0.745299,0.593267,-0.530606,-1.320451,-0.992208,16.615952,-5.439362,-6.908875,,,,,,
1478386039.55,2.565519,0.727873,-0.227142,4.554738,-4.431807,-4.078696,0.406695,-0.665283,0.626097,-0.682971,-1.912140,-1.156569,17.897659,-4.089798,-7.350159,,,,,,
1478386039.57,2.465302,0.592834,-0.221114,5.933580,-4.925189,-4.183429,0.519101,-0.558714,0.646818,-0.704266,-2.255083,-0.428907,18.204086,-2.815247,-7.800903,,,,,,
1478386039.59,2.386534,0.451712,-0.236053,5.588375,-3.262720,-4.171977,0.616594,-0.436506,0.655190,-0.602632,-2.828264,0.215369,18.204086,-2.815247,-7.800903,,,,,,
1478386039.61,2.339467,0.366305,-0.237619,1.431834,-2.213166,-1.845024,0.671146,-0.358168,0.649060,-1.117740,-3.165315,0.040515,18.583725,-2.066071,-8.624329,,,,,,
1478386039.63,2.262330,0.359119,-0.233473,-0.876463,-5.429554,0.470205,0.721131,-0.351450,0.597037,-1.809678,-2.080023,-1.590506,19.637619,-1.090775,-8.316711,,,,,,
1478386039.65,2.145132,0.389270,-0.226685,-0.887310,-4.769630,1.046813,0.776743,-0.379513,0.502633,-2.220209,-0.944385,-1.607003,18.216599,-1.018188,-10.731140,,,,,,
1478386039.67,2.132802,0.422794,-0.220392,-1.682218,1.861551,1.756009,0.771678,-0.410310,0.485962,-2.239314,-0.432097,-0.784012,17.392105,-1.319458,-12.013489,,,,,,
1478386039.69,2.176443,0.503882,-0.205555,-3.312190,2.484881,3.703690,0.719955,-0.482828,0.498539,-1.870269,-0.629263,-0.819035,17.392105,-1.319458,-12.013489,,,,,,
1478386039.71,2.221852,0.614953,-0.186167,-4.253870,2.971090,4.053832,0.649719,-0.576920,0.495003,-0.638367,-0.745681,-0.620140,17.989426,-1.769012,-11.556213,,,,,,
1478386039.73,2.263213,0.736317,-0.157308,-4.983286,2.877609,4.049100,0.570311,-0.671563,0.473020,-0.018553,-0.963675,-0.308469,16.859634,-2.743713,-11.264526,,,,,,
1478386039.75,2.279080,0.873894,-0.111210,-6.080001,2.225651,4.394773,0.487469,-0.766834,0.417540,0.318211,-1.077633,0.133363,16.933487,-3.194321,-11.862488,,,,,,
1478386039.77,2.260393,1.031841,-0.048984,-6.585491,1.141908,5.213597,0.395966,-0.858245,0.326536,0.413101,-0.955429,0.432146,16.108475,-3.570450,-12.994568,,,,,,
1478386039.79,2.217518,1.206179,0.012385,-6.277732,0.449353,6.455872,0.284583,-0.934260,0.214873,0.593972,-1.293416,0.830888,16.108475,-3.570450,-12.994568,,,,,,
1478386039.81,2.195261,1.378330,0.054100,-5.029939,1.345607,6.503245,0.155181,-0.981535,0.111835,0.808762,-1.167970,1.562833,14.608841,-3.946808,-14.358398,,,,,,
1478386039.83,2.077702,1.523314,0.215372,-4.757693,2.692106,4.885557,0.041495,-0.998873,0.023043,1.052743,-0.722196,2.377836,14.686630,-3.873459,-16.007935,,,,,,
1478386039.85,-0.370809,1.488274,2.724889,-4.987041,2.890890,3.019171,-0.029870,-0.996597,-0.076826,1.410531,-0.564438,3.224379,13.638992,-3.649384,-16.919006,,,,,,
1478386039.87,-0.465231,1.385068,2.858941,-3.987911,1.363262,3.192997,-0.082845,-0.982802,-0.165036,1.980352,0.276854,3.733655,15.147659,-2.075409,-17.958679,,,,,,
1478386039.89,-0.641979,1.272201,3.055599,-2.512902,1.017235,6.367826,-0.176148,-0.955751,-0.235611,3.084001,0.959748,3.472702,15.147659,-2.075409,-17.958679,,,,,,
1478386039.91,-0.926589,1.207817,-2.897062,2.875932,1.048594,4.097273,-0.283899,-0.934843,-0.213237,4.587808,2.106321,3.314952,14.248703,-2.076096,-18.642700,,,,,,
1478386039.93,-1.007783,1.252070,-2.790509,2.571975,-0.628187,-3.154976,-0.264991,-0.949635,-0.167250,2.218070,1.798009,0.887343,14.242722,-3.350952,-18.488892,,,,,,
1478386039.95,-0.959176,1.373333,-2.828695,5.466022,-1.017331,-6.259052,-0.160618,-0.980567,-0.112647,-0.101100,-0.848733,-3.281228,14.839249,-3.875183,-17.731323,,,,,,
1478386039.97,-2.432288,1.491458,-1.413288,7.621517,-2.407742,-3.359429,-0.051619,-0.996854,0.060140,1.231490,-4.327441,4.259013,15.965134,-3.123535,-16.072388,,,,,,
1478386039.99,-2.758413,1.446557,-1.077087,1.634768,1.827855,-0.579226,-0.046330,-0.992292,0.114933,0.524403,-0.571215,1.867519,15.965134,-3.123535,-16.072388,,,,,,
1478386040.01,-3.016403,1.437889,-0.767492,0.842739,2.771205,-2.384798,-0.016546,-0.991181,0.131479,-0.258905,0.428116,0.291403,16.333725,-4.322845,-15.390076,,,,,,
1478386040.03,2.940959,1.409032,-0.395699,1.487237,1.293650,-2.731773,0.032098,-0.986945,0.157829,-0.194955,0.832907,-0.000877,16.783127,-4.322464,-15.010559,,,,,,
1478386040.05,2.787174,1.368630,-0.234598,1.486971,-0.293277,-1.404885,0.069684,-0.979634,0.188313,0.137271,0.595402,0.507717,17.682663,-4.096481,-14.027222,,,,,,
1478386040.07,2.735085,1.342482,-0.198809,0.788088,-0.887282,-0.620308,0.089494,-0.974049,0.207891,0.668364,-0.232494,-0.021292,18.807083,-4.096100,-13.640991,,,,,,
1478386040.09,2.757998,1.322601,-0.221138,1.243382,0.408259,0.314644,0.091938,-0.969357,0.227802,0.889050,-1.055713,-0.185413,18.807083,-4.096100,-13.640991,,,,,,
1478386040.11,2.841087,1.306466,-0.312735,0.972492,-0.836899,0.947527,0.077335,-0.965268,0.249555,0.213071,0.047543,0.089800,18.208908,-3.645950,-13.498291,,,,,,
1478386040.13,2.880957,1.292559,-0.384871,0.986792,-1.815771,0.558091,0.070779,-0.961541,0.265385,-0.137658,0.222878,-0.029606,18.057083,-4.020889,-13.423767,,,,,,
1478386040.15,2.884205,1.272237,-0.430979,1.165016,-2.047898,0.276767,0.074876,-0.955761,0.284454,-0.361360,0.102947,-0.122025,17.679031,-4.695877,-13.425476,,,,,,
1478386040.17,2.878491,1.248548,-0.454010,1.262904,-0.885886,-0.116251,0.082366,-0.948526,0.305802,-0.379379,-0.079901,-0.035706,16.777512,-5.146194,-13.733154,,,,,,
1478386040.19,2.861492,1.222711,-0.444918,1.322008,-0.350928,-0.731156,0.094298,-0.940028,0.327805,-0.413206,-0.318670,-0.199692,16.777512,-5.146194,-13.733154,,,,,,
1478386040.21,2.813378,1.181880,-0.405498,1.950864,-0.506473,-1.530738,0.122232,-0.925320,0.358945,-0.130502,-0.172763,-0.462827,17.075943,-5.446030,-13.579224,,,,,,
1478386040.23,2.764236,1.132115,-0.361962,2.025448,-0.615552,-1.752072,0.156504,-0.905313,0.394862,-0.221827,-0.363791,-0.141703,17.151138,-5.370956,-13.503723,,,,,,
1478386040.25,2.699324,1.072572,-0.315966,2.663265,-1.817118,-2.397458,0.204522,-0.878433,0.431888,-0.511331,-0.763978,-0.603427,16.775589,-5.295364,-12.907776,,,,,,
1478386040.27,2.608804,0.986363,-0.275379,3.538008,-2.927561,-3.260139,0.280243,-0.834025,0.475254,-0.649292,-0.908819,-0.923420,17.073563,-5.745361,-12.903442,,,,,,
1478386040.29,2.531691,0.884937,-0.235642,3.682874,-1.978013,-4.034018,0.362767,-0.773875,0.519150,-0.670308,-1.228200,-0.821961,17.073563,-5.745361,-12.903442,,,,,,
1478386040.31,2.455879,0.771151,-0.200832,4.091366,-3.010891,-4.511597,0.454092,-0.696961,0.555019,-0.818060,-1.681701,-0.745815,17.824539,-5.520355,-12.896606,,,,,,
1478386040.33,2.378003,0.636360,-0.197527,5.479263,-3.980856,-4.584503,0.556164,-0.594272,0.580967,-0.950573,-2.045529,-0.436436,18.501694,-4.919968,-12.516602,,,,,,
,,,,,,,,,,,,,,,,37.354336,-122.033559,31.981323,0.680000,71.718750,1478386258.00
1478386040.35,2.327453,0.491938,-0.221341,5.451429,-2.758407,-4.167709,0.640911,-0.472335,0.605089,-0.972957,-3.016023,0.252806,18.653366,-4.544968,-12.516235,,,,,,
1478386040.37,2.272543,0.415426,-0.232491,1.602162,-3.642071,-1.458770,0.698758,-0.403580,0.590645,-1.677395,-3.075393,0.180260,19.628708,-4.394745,-12.281921,,,,,,
1478386040.39,2.152672,0.411315,-0.232412,-0.366437,-6.996105,0.483791,0.765755,-0.399815,0.503754,-2.178520,-1.713359,-1.461761,19.628708,-4.394745,-12.281921,,,,,,
1478386040.41,2.049377,0.427171,-0.239781,0.039135,-3.380508,1.001943,0.807887,-0.414298,0.419138,-2.552317,-0.949716,-1.133051,19.255600,-4.245560,-13.111023,,,,,,
1478386040.43,2.057549,0.469668,-0.243012,-1.586520,2.009383,2.663586,0.788151,-0.452591,0.417109,-2.462940,-0.786682,-0.468928,15.129318,-5.448303,-15.848755,,,,,,
1478386040.45,2.108687,0.557641,-0.227958,-3.251299,3.441011,3.771513,0.728689,-0.529186,0.434712,-1.721182,-0.676533,-0.507069,14.377731,-5.823380,-15.930176,,,,,,
1478386040.47,2.179401,0.662004,-0.198353,-4.167946,4.875174,3.698006,0.647137,-0.614699,0.450953,-0.708249,-0.838319,-0.444514,14.377975,-5.823532,-16.080200,,,,,,
1478386040.49,2.254493,0.777422,-0.155028,-5.208800,5.179527,3.595532,0.552534,-0.701445,0.450201,-0.128187,-0.766512,-0.117148,14.377975,-5.823532,-16.080200,,,,,,
1478386040.51,2.301412,0.911685,-0.089999,-6.520028,4.563023,3.760366,0.456104,-0.790537,0.408682,0.167705,-0.709525,0.370539,13.706039,-5.148544,-16.088928,,,,,,
1478386040.53,2.296704,1.064387,0.000609,-7.117919,2.926922,4.284763,0.362761,-0.874492,0.321977,0.427599,-0.846410,0.561324,12.136551,-4.099075,-16.632690,,,,,,
1478386040.55,2.238014,1.232495,0.105009,-6.814188,1.188846,5.548728,0.260711,-0.943320,0.205372,0.577668,-1.114069,1.025128,11.923050,-2.075668,-18.215942,,,,,,
1478386040.57,2.158832,1.401312,0.197533,-5.311235,0.322050,6.393011,0.140342,-0.985672,0.093568,0.866768,-1.062363,1.893462,10.809097,0.098480,-19.058594,,,,,,
1478386040.59,1.655918,1.556730,0.708303,-4.570196,0.306427,6.104714,0.014015,-0.999901,0.001196,1.256600,-0.687233,2.503305,10.809097,0.098480,-19.058594,,,,,,
1478386040.61,-0.814241,1.445132,-3.093199,-3.865822,0.917336,4.768888,-0.091144,-0.992115,-0.086032,1.790317,-0.724286,2.912601,10.218887,2.198257,-19.295776,,,,,,
1478386040.63,-0.854732,1.351352,-3.029190,-2.585347,0.925030,3.406761,-0.164222,-0.976019,-0.142894,2.323631,-0.102579,3.278621,10.449173,3.623993,-18.547729,,,,,,
1478386040.65,-0.832718,1.260986,-3.032820,-2.705004,1.434419,3.565012,-0.225537,-0.952391,-0.205143,2.883191,0.477736,3.168064,10.680527,5.349976,-17.575623,,,,,,
1478386040.67,-0.962119,1.202193,-2.857992,2.253389,1.158008,4.068626,-0.295603,-0.932831,-0.206021,3.558771,1.227540,2.709836,10.756882,5.800430,-17.126160,,,,,,
1478386040.69,-1.116859,1.219878,-2.658392,3.585575,2.227241,-1.612258,-0.308947,-0.939057,-0.150742,4.088564,2.552919,2.376099,10.756882,5.800430,-17.126160,,,,,,
1478386040.71,-1.008908,1.294168,-2.705387,1.092254,2.772401,-3.611978,-0.231123,-0.961982,-0.145511,-0.439791,-1.211511,-4.251996,11.428696,5.351181,-16.368164,,,,,,
1478386040.73,-1.534338,1.394100,-2.278199,8.781075,-7.131785,-3.274336,-0.175662,-0.984430,-0.006407,0.521975,-1.636725,1.786162,10.524673,4.827301,-15.250610,,,,,,
1478386040.75,-2.270279,1.384343,-1.572179,2.663780,0.835756,-0.609099,-0.141844,-0.982668,0.119348,1.267256,-3.090559,3.008322,9.849869,4.977585,-14.957825,,,,,,
1478386040.77,-2.374275,1.392366,-1.403202,0.255515,3.626838,-2.128113,-0.123211,-0.984124,0.127749,-0.092395,0.316170,0.520429,9.772202,4.452820,-14.731995,,,,,,
1478386040.78,-2.639280,1.421881,-1.066515,1.044883,3.020043,-3.412652,-0.071431,-0.988933,0.130038,-0.209941,0.585597,-0.037097,9.772202,4.452820,-14.731995,,,,,,
1478386040.80,-3.032460,1.402863,-0.640721,2.059346,0.183017,-2.266932,-0.018205,-0.985932,0.166151,-0.024489,0.535417,0.137835,9.472977,4.753174,-14.360840,,,,,,
1478386040.82,3.105288,1.372714,-0.513275,0.944066,-1.299353,-0.504712,0.007143,-0.980446,0.196660,0.614821,0.154640,0.724193,10.746750,4.678802,-13.747925,,,,,,
1478386040.84,3.099977,1.359743,-0.518407,0.963088,0.123491,0.325126,0.008716,-0.977811,0.209308,0.995938,-0.724811,-0.471790,10.373337,4.903412,-14.127319,,,,,,
1478386040.86,-3.104266,1.332613,-0.604705,1.352420,-0.645726,1.110046,-0.008805,-0.971768,0.235773,0.261857,-0.254337,-0.133982,10.220840,4.528946,-13.602722,,,,,,
1478386040.88,-3.067792,1.307102,-0.664025,1.195605,-1.186976,0.515310,-0.019218,-0.965434,0.259939,0.061256,0.130152,0.080835,10.220840,4.528946,-13.602722,,,,,,
1478386040.90,-3.106995,1.284085,-0.654954,1.090081,-1.912885,-0.367250,-0.009782,-0.959179,0.282630,-0.164153,0.211300,0.111093,9.391800,3.553711,-13.833130,,,,,,
1478386040.92,3.085688,1.259954,-0.610249,1.293845,-2.520889,-0.767090,0.017090,-0.952076,0.305383,-0.378998,0.106602,-0.050668,10.139786,3.103714,-13.824280,,,,,,
1478386040.94,3.012370,1.229765,-0.574805,1.569844,-1.523176,-0.677323,0.043100,-0.942410,0.331671,-0.484704,-0.179736,-0.262396,9.314529,2.953415,-14.132080,,,,,,
1478386040.96,2.956276,1.188853,-0.538793,2.086443,-1.094201,-1.195566,0.068677,-0.927942,0.366343,-0.586408,-0.255926,-0.389597,7.887527,2.729065,-13.470703,,,,,,
1478386040.98,2.876489,1.137461,-0.475507,2.267664,-0.955180,-2.208801,0.110018,-0.907570,0.405231,-0.406740,-0.449943,-0.208301,7.887527,2.729065,-13.470703,,,,,,
1478386041.00,2.787206,1.077802,-0.392518,2.366452,-0.871430,-2.910352,0.164230,-0.880920,0.443857,-0.350876,-0.642518,-0.227914,8.411179,2.429077,-13.464539,,,,,,
1478386041.02,2.691908,1.000543,-0.328769,3.270781,-2.591872,-3.127269,0.234661,-0.841764,0.486176,-0.547039,-0.950930,-0.950287,8.111191,2.429077,-13.467529,,,,,,
1478386041.04,2.602064,0.905663,-0.275213,3.517957,-1.979030,-3.891212,0.317057,-0.786835,0.529496,-0.483438,-1.150269,-0.867082,8.559280,2.054230,-13.311890,,,,,,
1478386041.06,2.525325,0.793470,-0.232741,4.260939,-2.700601,-4.407952,0.405391,-0.712791,0.572352,-0.692042,-1.496483,-0.857142,7.807358,1.754593,-12.943604,,,,,,
1478386041.08,2.439612,0.661695,-0.212961,5.175956,-3.833585,-4.758852,0.509451,-0.614455,0.602416,-0.768682,-2.040437,-0.453139,7.807358,1.754593,-12.943604,,,,,,
1478386041.10,2.377454,0.513919,-0.224001,6.147249,-2.907256,-4.341134,0.602537,-0.491594,0.628717,-0.920759,-3.015944,0.169364,7.130234,1.530334,-12.199646,,,,,,
1478386041.12,2.323175,0.416506,-0.247265,2.433613,-3.840229,-1.514568,0.667651,-0.404568,0.624954,-1.520892,-3.556019,0.360306,7.575699,0.705887,-11.667786,,,,,,
1478386041.14,2.205675,0.399685,-0.250984,0.055182,-7.148300,0.026748,0.741685,-0.389128,0.546336,-1.883897,-1.873461,-1.441783,7.726059,0.780884,-11.666504,,,,,,
1478386041.16,2.085628,0.406343,-0.256178,0.128696,-4.624875,0.515676,0.799503,-0.395253,0.452294,-2.349338,-1.144267,-1.422814,6.749741,0.480865,-11.675354,,,,,,
1478386041.18,2.076807,0.433116,-0.257833,-1.215894,1.648993,1.856508,0.793919,-0.419701,0.439936,-2.469105,-0.936164,-0.684703,6.749741,0.480865,-11.675354,,,,,,
1478386041.20,2.124433,0.510693,-0.246099,-3.076396,2.995441,3.665813,0.742085,-0.488782,0.458697,-1.991306,-0.626529,-0.723529,6.228928,1.155121,-12.432617,,,,,,
1478386041.22,2.182315,0.615447,-0.216417,-4.349572,3.971971,3.538074,0.668544,-0.577324,0.468771,-0.605678,-0.725319,-0.721105,6.456711,1.830261,-12.282288,,,,,,
1478386041.24,2.228312,0.732202,-0.167866,-5.384591,3.588008,3.698686,0.588652,-0.668509,0.454517,-0.062666,-0.733347,-0.432788,6.983170,2.205414,-12.128174,,,,,,
1478386041.26,2.247465,0.871036,-0.110210,-6.169750,2.701199,4.564577,0.502130,-0.764997,0.403294,0.196479,-0.617526,0.068370,7.061966,3.030334,-12.204834,,,,,,
1478386041.28,2.230167,1.032200,-0.040778,-6.780873,1.325309,5.347156,0.405410,-0.858429,0.314232,0.427171,-0.647552,0.430382,7.061966,3.030334,-12.204834,,,,,,
1478386041.30,2.167728,1.206360,0.034844,-6.114818,-0.132008,6.596497,0.294785,-0.934325,0.200348,0.591675,-0.998003,1.021759,7.892166,4.004822,-12.724487,,,,,,
1478386041.32,2.135759,1.388398,0.069047,-4.948294,0.373172,7.697185,0.153202,-0.983412,0.097113,0.819851,-0.934099,1.922281,8.873001,4.978851,-13.692566,,,,,,
1478386041.34,-3.034962,1.559695,-1.011564,-4.198092,2.506965,7.517386,-0.001181,-0.999938,0.011038,1.060309,-0.762894,2.605036,8.576157,5.352875,-14.671692,,,,,,
,,,,,,,,,,,,,,,,37.354342,-122.033552,33.823334,0.990000,75.585938,1478386259.00
1478386041.36,-0.969048,1.425719,-3.011415,-4.394158,3.926584,4.932163,-0.119175,-0.989495,-0.081839,1.719487,-1.044151,3.011450,10.533340,6.702148,-15.406189,,,,,,
1478386041.38,-0.791792,1.326914,-3.116674,-3.865681,3.016569,2.377050,-0.171835,-0.970408,-0.169651,1.888571,-0.569082,3.185948,10.533340,6.702148,-15.406189,,,,,,
1478386041.40,-0.711551,1.234803,3.107816,-3.795220,0.329194,3.035407,-0.215302,-0.944083,-0.249703,2.495605,0.684440,3.500237,12.112228,7.677460,-15.093262,,,,,,
1478386041.42,-0.890865,1.173847,-2.945015,4.542112,2.538137,5.256938,-0.300631,-0.922245,-0.243075,3.891711,1.675510,3.494189,14.439468,8.804352,-13.198364,,,,,,
1478386041.44,-1.071132,1.216428,-2.666487,4.203371,5.010132,-1.995713,-0.304575,-0.937866,-0.166258,2.854884,1.736892,1.363020,15.184830,7.979965,-12.588501,,,,,,
1478386041.46,-0.965093,1.321991,-2.705563,5.201125,-1.374660,-5.365318,-0.202440,-0.969207,-0.140198,0.319581,-0.964692,-4.820022,15.701523,6.631454,-11.079224,,,,,,
1478386041.48,-1.844977,1.483410,-1.948313,8.201269,-4.627223,-6.481273,-0.084015,-0.996184,0.023631,2.169236,-2.447938,4.641576,15.701523,6.631454,-11.079224,,,,,,
1478386041.50,-2.712125,1.485836,-1.087655,1.823748,1.931192,-0.746515,-0.035334,-0.996393,0.077152,0.809870,-1.832846,1.860958,15.640121,9.480927,-11.613464,,,,,,
1478386041.52,-2.906765,1.441948,-0.842048,2.952046,2.628202,-0.547114,-0.029897,-0.991710,0.124966,0.007787,0.110424,0.458317,14.670883,10.379791,-12.750854,,,,,,
1478386041.54,-2.986900,1.403289,-0.712198,1.544140,2.103442,-0.711270,-0.025688,-0.986003,0.164734,0.092003,0.821163,0.427154,14.890823,9.480469,-12.070923,,,,,,
1478386041.56,-3.085045,1.377639,-0.605755,1.309091,-0.638913,-0.718154,-0.010849,-0.981403,0.191651,0.170303,0.422519,0.586898,14.966293,9.630615,-11.920654,,,,,,
1478386041.58,3.109758,1.363355,-0.545356,0.457139,-1.592152,-0.478658,0.006556,-0.978561,0.205853,0.304831,-0.534516,-0.088634,14.966293,9.630615,-11.920654,,,,,,
1478386041.60,3.100608,1.345137,-0.546598,1.140937,0.098781,0.253710,0.009168,-0.974647,0.223561,0.316012,-0.689873,-0.169468,14.741745,9.705551,-11.998108,,,,,,
1478386041.62,3.122222,1.324942,-0.569994,0.873965,-0.408281,0.142872,0.004714,-0.969930,0.243340,0.030396,0.009603,0.079445,13.766983,9.705383,-12.157837,,,,,,
1478386041.64,3.094824,1.309898,-0.560277,0.775378,-1.105717,-0.323982,0.012060,-0.966159,0.257666,-0.210775,0.160296,-0.078223,14.664932,9.180176,-12.372314,,,,,,
1478386041.66,3.031972,1.285410,-0.524398,1.483428,-1.492580,-0.681736,0.030800,-0.959553,0.279839,-0.417732,0.126087,-0.401848,14.591141,9.254562,-12.973267,,,,,,
1478386041.68,2.985974,1.251421,-0.497547,1.593698,-0.632006,-0.586224,0.048663,-0.949432,0.310180,-0.363589,-0.126450,0.011567,14.591141,9.254562,-12.973267,,,,,,
1478386041.70,2.935652,1.220440,-0.448645,1.352977,-0.025428,-1.364923,0.070187,-0.939251,0.335980,-0.099179,-0.349247,-0.096310,13.840714,9.179642,-12.905518,,,,,,
1478386041.72,2.883547,1.181335,-0.395307,1.987643,-0.317457,-1.443685,0.096893,-0.925114,0.367119,0.000412,-0.297222,-0.535667,13.239792,8.879333,-13.210571,,,,,,
1478386041.74,2.828396,1.129870,-0.351510,2.338863,-0.957441,-1.618987,0.131491,-0.904357,0.406016,-0.043875,-0.091752,-0.360880,13.764725,8.804199,-13.355103,,,,,,
1478386041.76,2.770776,1.071685,-0.312433,2.516092,-1.239363,-1.959213,0.173450,-0.878008,0.446112,-0.327564,-0.379514,-0.246619,13.467392,9.328964,-13.584656,,,,,,
1478386041.78,2.700001,1.002286,-0.270386,2.979189,-2.096603,-2.579382,0.230091,-0.842704,0.486732,-0.460819,-0.809579,-0.678047,13.467392,9.328964,-13.584656,,,,,,
1478386041.80,2.621637,0.918655,-0.232279,3.297736,-2.354620,-3.106270,0.301528,-0.794786,0.526684,-0.492095,-1.111861,-0.882153,12.417557,9.253647,-13.894958,,,,,,
1478386041.82,2.543673,0.820783,-0.198589,3.865579,-3.019018,-3.784489,0.383717,-0.731680,0.563389,-0.662098,-1.328761,-1.022098,12.116531,8.878204,-14.346802,,,,,,
1478386041.84,2.444586,0.701996,-0.179034,4.810098,-4.820637,-4.375434,0.490145,-0.645743,0.585468,-0.715273,-1.919473,-0.767017,11.968887,9.252731,-14.799438,,,,,,
1478386041.86,2.347221,0.555970,-0.191921,5.769954,-5.538585,-4.478308,0.605974,-0.527767,0.595195,-0.811418,-3.098072,-0.477412,10.395493,9.101227,-16.314758,,,,,,
1478386041.88,2.271688,0.440345,-0.219484,3.668457,-3.665957,-2.407279,0.691360,-0.426252,0.583379,-1.249786,-4.223086,0.645671,10.395493,9.101227,-16.314758,,,,,,
1478386041.90,2.212799,0.400473,-0.228306,0.956681,-2.952390,-1.321311,0.737528,-0.389854,0.551421,-1.979884,-1.795311,0.069505,9.043686,8.575851,-16.701599,,,,,,
1478386041.92,2.112705,0.394826,-0.199649,-1.593048,-5.001377,-0.448866,0.790812,-0.384648,0.476091,-2.504267,-1.383129,-1.306779,9.117416,8.200546,-16.999756,,,,,,
1478386041.94,2.038395,0.417597,-0.182826,-0.987533,-1.362944,1.291972,0.815944,-0.405565,0.412010,-2.439846,-0.577833,-1.035606,8.520767,8.800171,-17.382507,,,,,,
1478386041.96,2.074165,0.478932,-0.172854,-2.468650,3.218277,3.103357,0.777406,-0.460832,0.428106,-1.824937,-0.161620,-0.591359,7.847427,9.250381,-17.165649,,,,,,
1478386041.98,2.128935,0.575452,-0.147386,-3.881385,3.285632,3.822270,0.711630,-0.544214,0.444313,-1.021994,-0.295691,-0.465110,7.847427,9.250381,-17.165649,,,,,,
1478386042.00,2.168109,0.695469,-0.113830,-4.674481,2.841882,4.618849,0.634817,-0.640745,0.431802,-0.354055,-0.578142,-0.366250,10.474411,10.377426,-15.117737,,,,,,
1478386042.02,2.203077,0.837123,-0.081556,-5.329586,2.842883,5.351656,0.540156,-0.742719,0.395726,0.060308,-0.517809,0.057826,11.675308,11.053864,-13.682739,,,,,,
1478386042.04,2.217092,1.000539,-0.034536,-6.461405,2.291909,5.943283,0.430972,-0.841762,0.325115,0.330762,-0.753834,0.357060,12.420944,10.755890,-11.649475,,,,,,
1478386042.06,2.197017,1.183690,0.028572,-6.517875,1.418076,6.863898,0.305877,-0.926005,0.221254,0.519303,-1.105336,0.677290,13.093460,10.832779,-9.767944,,,,,,
1478386042.08,2.182997,1.366875,0.057447,-5.010414,0.282858,7.301451,0.165732,-0.979280,0.116377,0.874734,-1.347975,1.437456,13.093460,10.832779,-9.767944,,,,,,
1478386042.10,2.574839,1.526777,-0.334290,-3.540066,0.054151,6.992469,0.023626,-0.999031,0.037124,1.245234,-1.267692,2.379914,13.981522,8.734451,-8.102783,,,,,,
1478386042.12,-1.182395,1.468290,-2.854518,-4.106306,1.050321,5.252696,-0.094705,-0.994751,-0.038752,2.018869,-0.963852,2.761271,13.827774,8.059891,-7.652283,,,,,,
1478386042.14,-0.974181,1.358595,-3.000347,-3.086809,3.950722,3.775204,-0.174227,-0.977570,-0.118332,2.478305,-0.436706,3.257110,14.648300,7.160202,-7.341370,,,,,,
1478386042.16,-0.869811,1.267542,-3.036551,-3.329845,3.156529,3.382622,-0.228213,-0.954370,-0.192606,2.953234,0.683999,3.365259,13.970352,6.861252,-6.297241,,,,,,
1478386042.18,-0.888397,1.188988,-2.924588,1.115512,4.683752,4.511058,-0.289160,-0.927992,-0.234983,4.039069,1.100035,2.778134,13.970352,6.861252,-6.297241,,,,,,
1478386042.20,-1.032456,1.196591,-2.718422,4.201580,2.056533,-0.377763,-0.313833,-0.930798,-0.187413,3.980962,2.545544,2.471608,15.167984,6.486710,-5.834167,,,,,,
1478386042.22,-0.923559,1.267379,-2.760005,0.238915,3.260039,-3.976587,-0.238355,-0.954321,-0.180162,0.362440,-0.749582,-4.081130,14.862289,5.738281,-4.259949,,,,,,
1478386042.24,-1.239086,1.365593,-2.563258,6.615793,-10.147069,-3.108105,-0.192658,-0.979020,-0.066359,0.577836,-1.163604,1.202009,13.433456,5.439926,-2.623413,,,,,,
1478386042.26,-2.150206,1.398411,-1.737237,4.561226,-1.466597,-1.165709,-0.143536,-0.985178,0.093919,1.227185,-3.538396,2.749190,13.070541,7.613419,-4.133545,,,,,,
1478386042.28,-2.333982,1.387651,-1.516748,1.067863,2.764089,-1.447554,-0.131609,-0.983276,0.125888,0.081514,-0.166703,1.051114,13.070541,7.613419,-4.133545,,,,,,
1478386042.30,-2.569827,1.411509,-1.204459,0.667472,3.758224,-3.409276,-0.085829,-0.987341,0.133386,-0.230348,0.409048,0.252035,13.297073,7.687592,-4.956421,,,,,,
1478386042.32,-2.991916,1.423981,-0.730399,0.769756,1.166475,-3.330754,-0.021814,-0.989242,0.144653,-0.296347,0.573715,0.030213,12.625046,8.588333,-4.215881,,,,,,
,,,,,,,,,,,,,,,,37.354348,-122.033528,35.096558,0.990000,77.343750,1478386260.00
1478386042.34,3.008409,1.400280,-0.451536,1.472427,-1.087484,-1.427529,0.022533,-0.985497,0.168188,-0.023495,0.277703,0.284418,11.876846,9.038467,-4.074707,,,,,,
1478386042.36,2.946363,1.373978,-0.417230,0.952767,-1.173798,-0.095280,0.037935,-0.980694,0.191836,0.677641,-0.340122,-0.233233,12.253983,9.413177,-4.372070,,,,,,
1478386042.38,2.995436,1.353563,-0.462178,1.233725,0.755368,0.338953,0.031389,-0.976497,0.213231,0.817366,-0.572132,-0.272801,12.253983,9.413177,-4.372070,,,,,,
1478386042.40,3.040761,1.326809,-0.513990,1.562375,-1.002880,0.443667,0.024317,-0.970382,0.240347,0.029348,0.030182,0.028345,12.030685,9.712936,-4.600159,,,,,,
1478386042.42,3.026185,1.297371,-0.538180,1.543334,-2.298881,-0.130469,0.031095,-0.962852,0.268235,-0.195615,0.268943,0.065627,11.952042,8.963104,-4.448730,,,,,,
1478386042.44,2.955973,1.262171,-0.518182,1.737666,-2.374199,-0.689122,0.056059,-0.952752,0.298532,-0.351850,0.128274,0.113791,11.425705,8.512650,-4.902710,,,,,,
1478386042.46,2.906743,1.230314,-0.498455,1.390106,-0.943686,-0.620618,0.077707,-0.942594,0.324775,-0.377070,-0.252292,0.022240,12.179092,9.036972,-5.571716,,,,,,
1478386042.48,2.868186,1.197894,-0.467985,1.551329,-0.378862,-1.268385,0.098371,-0.931274,0.350788,-0.279737,-0.395096,-0.424121,12.179092,9.036972,-5.571716,,,,,,
1478386042.50,2.820916,1.152081,-0.416880,2.040955,0.181934,-1.730754,0.128160,-0.913612,0.385860,-0.182267,-0.232262,-0.312343,11.729752,9.111740,-5.801392,,,,,,
1478386042.52,2.774946,1.101450,-0.363926,1.959383,-0.085163,-1.999805,0.162145,-0.891864,0.422241,-0.179570,-0.410840,-0.027435,11.503983,8.811371,-6.177795,,,,,,
1478386042.54,2.712752,1.044774,-0.318955,2.541198,-1.880443,-2.215279,0.208781,-0.864811,0.456631,-0.429682,-0.712642,-0.681775,11.431442,9.336288,-6.255066,,,,,,
1478386042.56,2.628692,0.964968,-0.284727,3.324215,-2.900171,-2.959275,0.279430,-0.822030,0.496170,-0.432613,-0.931830,-0.893784,10.983505,9.635834,-6.710449,,,,,,
1478386042.58,2.548379,0.869975,-0.244462,3.452655,-2.230404,-3.923063,0.360487,-0.764313,0.534673,-0.619917,-1.044113,-0.897634,10.983505,9.635834,-6.710449,,,,,,
1478386042.60,2.465412,0.755520,-0.206981,4.131671,-3.365608,-4.653668,0.455543,-0.685668,0.567751,-0.781867,-1.648271,-0.943544,10.835281,9.785080,-7.462402,,,,,,
1478386042.62,2.370055,0.624494,-0.196387,5.180230,-4.722984,-4.535915,0.565641,-0.584687,0.581542,-0.826475,-2.400924,-0.531875,9.711197,9.859695,-7.848877,,,,,,
1478386042.64,2.294670,0.488172,-0.228166,5.497619,-4.313899,-3.710484,0.661728,-0.469012,0.584931,-0.760116,-3.379025,-0.056931,9.264023,9.933044,-9.503540,,,,,,
1478386042.66,2.244406,0.397736,-0.255816,2.280558,-2.765059,-1.775839,0.720566,-0.387332,0.575117,-1.515930,-3.048719,0.345416,9.263229,9.707901,-9.652832,,,,,,
1478386042.68,2.185769,0.367198,-0.252131,-0.264026,-3.557649,-1.138187,0.762340,-0.359001,0.538476,-1.828242,-1.502754,-0.748773,9.263229,9.707901,-9.652832,,,,,,
1478386042.70,2.084666,0.383694,-0.224566,-1.728248,-4.474388,0.738236,0.807528,-0.374348,0.455809,-2.194094,-1.205669,-1.253417,9.261642,9.257584,-9.951477,,,,,,
1478386042.72,2.049664,0.422418,-0.212850,-1.432907,0.890503,1.851845,0.809505,-0.409967,0.420273,-2.150722,-0.350058,-0.775528,8.435196,8.882446,-10.108643,,,,,,
1478386042.74,2.104801,0.493591,-0.192803,-3.203278,3.753685,3.129133,0.758031,-0.473791,0.448231,-1.683522,-0.263392,-0.495198,9.034958,8.732147,-10.402222,,,,,,
1478386042.76,2.163747,0.596862,-0.156713,-4.511018,3.899822,3.710618,0.685913,-0.562050,0.462194,-0.901489,-0.428597,-0.331045,10.455978,8.358658,-8.886902,,,,,,
1478386042.78,2.209488,0.716284,-0.109203,-5.267369,3.633880,3.837850,0.605570,-0.656587,0.449643,-0.221674,-0.526046,-0.137921,10.455978,8.358658,-8.886902,,,,,,
1478386042.80,2.231490,0.854456,-0.047508,-6.408577,3.036288,4.460316,0.518452,-0.754214,0.402950,0.001461,-0.467847,0.302006,9.927078,7.909927,-7.615784,,,,,,
1478386042.82,2.212767,1.023719,0.037657,-7.443765,2.202467,5.641102,0.416632,-0.854048,0.311479,0.203027,-0.525819,0.559264,10.074265,7.385223,-7.312744,,,,,,
1478386042.84,2.153784,1.208229,0.145258,-6.921788,1.611379,6.467342,0.296091,-0.934989,0.195257,0.391195,-0.794335,0.811000,10.298019,7.160385,-7.159912,,,,,,
1478386042.86,2.060842,1.390010,0.264008,-5.481932,0.798221,7.265722,0.158642,-0.983703,0.084627,0.543140,-1.257188,1.865049,10.820419,6.710770,-6.778320,,,,,,
1478386042.88,1.068563,1.556828,1.266381,-4.175248,0.266298,7.262259,0.012243,-0.999902,-0.006724,0.874964,-1.265097,3.093440,10.820419,6.710770,-6.778320,,,,,,
1478386042.90,-0.882662,1.429605,-3.053497,-4.123487,1.386632,5.183075,-0.108699,-0.990049,-0.089373,1.774623,-1.009478,3.206713,10.517960,6.261078,-6.479919,,,,,,
1478386042.92,-0.828832,1.329189,-3.043698,-3.013837,3.220429,3.273301,-0.176371,-0.970955,-0.161679,2.098872,-0.285561,3.333066,11.793015,6.035324,-7.216492,,,,,,
1478386042.94,-0.771295,1.235540,-3.067300,-3.571547,1.138446,3.353146,-0.229342,-0.944326,-0.235904,2.725771,0.562872,3.596652,12.318680,6.185333,-7.211731,,,,,,
1478386042.96,-0.942198,1.176374,-2.848140,4.527987,1.598189,5.184818,-0.310822,-0.923219,-0.225958,4.124192,1.762589,2.874228,13.071396,6.785339,-7.205994,,,,,,
1478386042.98,-1.048445,1.199810,-2.638456,0.658404,8.067920,-2.275593,-0.314190,-0.931970,-0.180876,2.673901,1.007257,-0.512240,13.071396,6.785339,-7.205994,,,,,,
1478386043.00,-0.979778,1.303113,-2.655936,4.834806,-5.083642,-4.783245,-0.219632,-0.964386,-0.147380,0.132779,-0.940323,-2.574956,12.315903,6.036758,-5.786316,,,,,,
1478386043.02,-1.600797,1.448426,-2.143306,6.016390,-2.736004,-5.240564,-0.122010,-0.992522,0.003662,2.255555,-3.171403,3.684785,12.472763,7.687134,-5.414734,,,,,,
1478386043.04,-2.108510,1.469246,-1.612755,2.365514,2.559690,-0.384966,-0.087070,-0.994848,0.051922,0.530475,-1.029978,1.303272,12.181778,9.260849,-6.697327,,,,,,
1478386043.06,-2.327825,1.444361,-1.327257,1.742606,3.303400,-0.017535,-0.091659,-0.992018,0.086600,-0.022752,0.210432,0.317834,11.578842,8.660995,-6.551514,,,,,,
1478386043.08,-2.503629,1.425404,-1.117281,1.696532,0.116265,-0.690941,-0.086285,-0.989449,0.116384,-0.158405,0.876229,0.135249,11.578842,8.660995,-6.551514,,,,,,
1478386043.10,-2.758859,1.404612,-0.902327,1.822083,-2.935716,-1.002550,-0.061778,-0.986223,0.153452,-0.006261,0.652025,0.487814,11.651932,8.361374,-6.174927,,,,,,
1478386043.12,-2.972518,1.379857,-0.744269,1.136020,-2.584682,-0.970725,-0.031934,-0.981826,0.187075,0.271497,-0.246292,-0.013750,11.579300,8.660690,-6.851501,,,,,,
1478386043.14,-3.025438,1.362105,-0.699227,1.051007,0.852202,0.193546,-0.024011,-0.978303,0.205784,0.217599,-1.100005,0.047405,11.729507,8.585327,-7.224792,,,,,,
1478386043.16,-2.989697,1.343356,-0.713542,0.778989,0.912776,0.078918,-0.034119,-0.974247,0.222888,-0.019653,0.025013,0.023465,10.529129,8.510391,-7.161621,,,,,,
1478386043.18,-3.026946,1.328045,-0.673464,1.007295,-0.464953,-0.535612,-0.027498,-0.970680,0.238797,-0.205962,0.338371,-0.255123,10.529129,8.510391,-7.161621,,,,,,
1478386043.20,-3.094159,1.300772,-0.631153,1.571892,-1.657102,-0.281488,-0.012648,-0.963764,0.266455,-0.211335,0.199803,-0.210989,11.353134,8.285324,-7.227661,,,,,,
1478386043.22,3.140399,1.270308,-0.602641,1.411060,-0.474149,-0.538141,0.000353,-0.955192,0.295987,-0.038424,-0.130349,0.125278,11.279160,8.359863,-7.678650,,,,,,
1478386043.24,3.097723,1.243631,-0.554393,1.335434,0.338718,-0.893957,0.014093,-0.946957,0.321051,-0.145975,-0.281452,-0.161154,11.279770,8.509933,-7.604065,,,,,,
1478386043.26,3.047649,1.206782,-0.499982,2.060322,-0.271134,-1.164685,0.033397,-0.934475,0.354458,-0.035610,-0.062519,-0.592404,10.528854,8.284866,-7.685913,,,,,,
1478386043.28,2.986422,1.160610,-0.443551,2.147880,-0.435567,-1.378669,0.061631,-0.917047,0.393989,0.047668,-0.276282,0.010232,10.528854,8.284866,-7.685913,,,,,,
1478386043.30,2.922531,1.110232,-0.392889,2.480646,-1.361076,-1.688342,0.096586,-0.895802,0.433832,-0.280821,-0.671260,-0.504404,11.055801,8.584488,-8.056580,,,,,,
1478386043.32,2.828915,1.044085,-0.341459,3.033288,-2.885807,-2.293097,0.154632,-0.864465,0.478319,-0.430114,-0.849585,-0.616365,10.831589,8.583969,-8.583862,,,,,,
,,,,,,,,,,,,,,,,37.354353,-122.033505,34.807312,1.000000,80.156250,1478386261.00
1478386043.34,2.723926,0.963997,-0.282686,3.243867,-2.615763,-3.334767,0.231306,-0.821477,0.521222,-0.471297,-0.887522,-0.625745,10.004105,7.908585,-8.965088,,,,,,
1478386043.36,2.612061,0.865558,-0.210840,3.530550,-2.948450,-4.652549,0.327433,-0.761457,0.559438,-0.556726,-1.140917,-0.898687,10.533279,8.507614,-9.936523,,,,,,
1478386043.38,2.492478,0.749983,-0.154966,4.040465,-4.534719,-4.768209,0.442299,-0.681626,0.582886,-0.683404,-1.702025,-1.083741,10.533279,8.507614,-9.936523,,,,,,
1478386043.40,2.388408,0.617350,-0.152492,5.637589,-5.274881,-4.071924,0.557716,-0.578877,0.594857,-0.711372,-2.278637,-0.719216,9.934616,8.581940,-10.617737,,,,,,
1478386043.42,2.316531,0.479421,-0.200381,6.407240,-4.322439,-3.103180,0.651774,-0.461266,0.602017,-0.745951,-3.263374,0.370456,9.409378,8.205948,-11.596924,,,,,,
1478386043.44,2.265667,0.395024,-0.237907,2.093981,-2.875472,-1.403638,0.708980,-0.384831,0.590976,-1.566173,-2.869854,0.656476,7.533493,7.379059,-13.488159,,,,,,
1478386043.46,2.203044,0.370937,-0.228859,-0.698500,-3.852641,-0.953899,0.751836,-0.362489,0.550767,-2.124868,-1.812347,-0.991411,8.057358,6.928467,-14.081543,,,,,,
1478386043.48,2.093626,0.388051,-0.205048,-1.179060,-5.004264,0.694946,0.801991,-0.378385,0.462208,-2.481464,-1.205096,-1.329410,8.057358,6.928467,-14.081543,,,,,,
1478386043.50,2.061263,0.419718,-0.205674,-0.952286,0.873153,1.945536,0.805549,-0.407503,0.430153,-2.330940,-0.393416,-0.671273,6.783615,6.927628,-14.919312,,,,,,
1478386043.52,2.115082,0.495593,-0.200356,-2.739103,3.209584,3.885904,0.752570,-0.475553,0.455508,-1.874900,-0.354693,-0.572589,5.586441,7.377090,-15.457703,,,,,,
1478386043.54,2.174142,0.610516,-0.188136,-3.937428,3.272420,4.784673,0.674689,-0.573290,0.464901,-0.824027,-0.598707,-0.509136,5.595444,9.552612,-14.939087,,,,,,
1478386043.56,2.226214,0.730816,-0.167284,-4.425940,3.192266,4.213065,0.590338,-0.667477,0.453845,0.035196,-0.643222,-0.277941,6.277451,11.278137,-14.412415,,,,,,
1478386043.58,2.263748,0.866893,-0.137363,-5.509742,2.755982,5.099975,0.497931,-0.762322,0.413437,0.148523,-0.666618,0.154617,6.277451,11.278137,-14.412415,,,,,,
1478386043.60,2.284349,1.040163,-0.107104,-6.707621,1.974268,6.584053,0.382617,-0.862487,0.331241,0.404584,-0.756806,0.552090,7.633926,13.003967,-13.579041,,,,,,
1478386043.62,2.298209,1.239651,-0.087751,-6.818228,1.371324,7.508524,0.242836,-0.945670,0.216190,0.677315,-1.086281,0.813168,8.762985,14.355316,-12.221802,,,,,,
1478386043.64,2.414756,1.430394,-0.181627,-5.354417,1.284855,7.406127,0.092993,-0.990160,0.104576,0.951044,-1.146055,1.531151,10.713211,14.881760,-10.778870,,,,,,
1478386043.66,-1.735671,1.523079,-2.283432,-4.883112,2.051056,6.546838,-0.047052,-0.998862,0.007829,1.513071,-1.174936,2.471099,16.325516,13.009598,-7.942139,,,,,,
1478386043.68,-1.009502,1.397316,-2.939375,-4.221564,4.843997,4.136764,-0.146128,-0.984990,-0.091878,2.337122,-1.264293,3.460363,16.325516,13.009598,-7.942139,,,,,,
1478386043.70,-0.762040,1.298946,-3.088706,-4.660669,4.692214,2.289349,-0.185382,-0.963276,-0.194251,2.218021,-0.192059,3.401603,17.817947,11.735825,-6.723389,,,,,,
1478386043.72,-0.656621,1.208794,3.135016,-3.327319,0.848604,2.239427,-0.216187,-0.935189,-0.280506,2.724595,0.899850,3.594944,18.183823,10.387863,-4.690674,,,,,,
1478386043.74,-0.823369,1.162896,-2.957096,4.282672,0.365634,5.167062,-0.290943,-0.917956,-0.269647,3.292194,1.664690,3.120889,19.604294,9.713837,-3.699463,,,,,,
1478386043.76,-1.073726,1.202688,-2.638186,5.182188,5.115549,-1.162599,-0.316304,-0.933010,-0.171596,3.188572,1.495021,1.277660,19.743423,7.464386,-3.166321,,,,,,
1478386043.78,-0.945841,1.276942,-2.693826,3.753310,-2.794696,-3.554468,-0.234898,-0.957135,-0.169459,-0.238750,-1.194843,-6.056569,19.743423,7.464386,-3.166321,,,,,,
1478386043.80,-1.487759,1.387592,-2.320269,7.746566,-7.702464,-3.830264,-0.181553,-0.983265,-0.015110,1.591099,-1.836925,4.060185,17.865982,7.691681,-0.860779,,,,,,
1478386043.82,-2.201379,1.401561,-1.631942,1.830071,-0.015916,-0.720988,-0.136037,-0.985714,0.099308,0.812459,-2.527348,1.631802,18.254471,9.713760,-3.787903,,,,,,
1478386043.84,-2.355822,1.389011,-1.426195,2.001120,3.286546,-0.972301,-0.127883,-0.983522,0.127787,-0.237199,-0.195631,0.544835,18.485397,10.537262,-5.288147,,,,,,
1478386043.86,-2.531041,1.383951,-1.182102,1.186444,2.762179,-1.913235,-0.106500,-0.982595,0.152200,-0.370032,0.514623,0.080589,17.806473,9.862854,-4.692871,,,,,,
1478386043.88,-2.775126,1.386195,-0.912767,1.196351,-0.111072,-2.234169,-0.065771,-0.983009,0.171367,-0.193369,0.636620,0.277974,17.806473,9.862854,-4.692871,,,,,,
1478386043.90,-3.020528,1.368245,-0.687807,1.302329,-1.621883,-1.624867,-0.024295,-0.979556,0.199697,0.314426,0.127414,0.103846,17.134109,10.763809,-3.727356,,,,,,
1478386043.92,3.131145,1.353969,-0.569240,0.782824,0.286216,-0.828821,0.002248,-0.976585,0.215121,0.930659,-0.867760,-0.035830,17.738205,11.513306,-4.248535,,,,,,
1478386043.94,-3.113457,1.333469,-0.586894,1.188185,0.852768,0.733339,-0.006614,-0.971970,0.235012,0.379493,-0.177749,-0.075009,17.514481,11.662918,-4.626221,,,,,,
1478386043.96,-3.060653,1.309692,-0.651054,1.155337,-1.135600,0.803671,-0.020871,-0.966106,0.257302,0.020246,0.184123,0.056663,17.514267,11.663071,-4.476257,,,,,,
1478386043.98,-3.073224,1.286476,-0.673419,1.109038,-2.017147,0.005190,-0.019163,-0.959853,0.279849,-0.123919,0.274901,0.002911,17.514267,11.663071,-4.476257,,,,,,
1478386044.00,3.134820,1.263077,-0.634698,1.233323,-1.602973,-0.736008,0.002051,-0.953027,0.302879,-0.221961,0.022302,-0.130302,16.987350,10.987320,-5.229492,,,,,,
1478386044.02,3.077647,1.235855,-0.589943,1.369712,-0.302760,-0.738604,0.021006,-0.944430,0.328042,-0.311914,-0.214155,-0.121530,17.363449,11.061798,-5.750916,,,,,,
1478386044.04,3.031938,1.204484,-0.549025,1.682459,-0.599748,-0.953671,0.039197,-0.933655,0.356023,-0.422772,-0.181488,-0.386785,16.914841,11.286560,-5.981140,,,,,,
1478386044.06,2.967695,1.160002,-0.499225,2.232269,-0.884554,-1.472751,0.069095,-0.916804,0.393315,-0.192264,-0.240286,-0.207494,16.690170,11.286346,-6.208313,,,,,,
1478386044.08,2.898282,1.109509,-0.442243,2.240789,-1.038912,-1.801166,0.107232,-0.895480,0.431991,-0.252435,-0.526318,-0.175399,16.690170,11.286346,-6.208313,,,,,,
1478386044.10,2.818952,1.049754,-0.390630,2.845560,-2.098449,-2.159882,0.157834,-0.867301,0.472100,-0.385998,-0.765939,-0.724175,16.392197,11.360214,-7.336548,,,,,,
1478386044.12,2.730728,0.971613,-0.338925,3.224529,-2.090150,-3.011801,0.225250,-0.825797,0.517032,-0.378723,-0.832971,-0.671436,16.243179,11.284317,-8.237793,,,,,,
1478386044.14,2.649623,0.880316,-0.280648,3.421107,-1.684529,-3.866149,0.300852,-0.770940,0.561373,-0.510996,-0.965113,-0.802218,16.170883,11.508179,-9.364258,,,,,,
1478386044.16,2.567475,0.774917,-0.232589,3.889190,-2.912810,-4.104835,0.388029,-0.699657,0.599928,-0.610487,-1.461308,-0.993666,14.896591,11.507721,-9.826904,,,,,,
1478386044.18,2.480123,0.655006,-0.218864,5.436906,-4.329098,-3.714996,0.487149,-0.609164,0.625783,-0.643323,-2.255826,-0.660253,14.896591,11.507721,-9.826904,,,,,,
1478386044.20,2.401816,0.517874,-0.254884,6.184311,-4.877722,-3.066673,0.585727,-0.495034,0.641767,-0.490024,-3.122672,-0.096662,14.749863,11.731216,-11.329041,,,,,,
1478386044.22,2.339174,0.415201,-0.289866,3.540541,-3.399501,-1.862025,0.657946,-0.403374,0.635922,-1.038348,-2.739952,0.418369,13.548935,10.452988,-14.562256,,,,,,
1478386044.24,2.279024,0.372332,-0.299524,1.279732,-3.276096,-1.099560,0.707475,-0.363788,0.605919,-1.514085,-1.361553,-0.312370,13.545425,9.251709,-15.833679,,,,,,
1478386044.26,2.175468,0.376963,-0.292811,-1.073452,-5.630375,0.863246,0.764925,-0.368099,0.528577,-2.111467,-1.348286,-1.163296,12.642868,8.350739,-16.815002,,,,,,
1478386044.28,2.087852,0.423929,-0.292017,-1.213645,-2.768346,2.338887,0.792330,-0.411345,0.450565,-2.376329,-0.596895,-1.032123,12.642868,8.350739,-16.815002,,,,,,
1478386044.30,2.112368,0.485245,-0.286420,-2.250127,3.328251,2.769471,0.757980,-0.466425,0.455976,-2.027633,-0.303670,-0.607267,11.968643,7.898849,-18.695435,,,,,,
1478386044.32,2.187552,0.576344,-0.267273,-3.717689,4.580023,3.588773,0.683982,-0.544962,0.484959,-1.252891,-0.516821,-0.415837,12.945114,7.897888,-19.660645,,,,,,
,,,,,,,,,,,,,,,,37.354353,-122.033505,33.897369,0.000000,71.718750,1478386262.00
1478386044.34,2.261969,0.682745,-0.233455,-4.621768,4.669290,3.304314,0.597787,-0.630925,0.494555,-0.512109,-0.600108,-0.261736,13.920395,8.349030,-18.527222,,,,,,
1478386044.36,2.315390,0.805240,-0.187211,-5.822548,3.921052,3.662361,0.509561,-0.720997,0.469585,-0.109079,-0.526989,0.120976,16.472733,9.250153,-17.379395,,,,,,
1478386044.38,2.323429,0.959426,-0.118820,-7.490109,2.480137,4.512372,0.418951,-0.818862,0.392358,0.277384,-0.539491,0.376196,16.472733,9.250153,-17.379395,,,,,,
1478386044.40,2.274147,1.143543,-0.021926,-7.967150,1.332445,5.685786,0.316033,-0.910107,0.268007,0.631431,-0.728519,0.396163,18.048752,9.926529,-16.015686,,,,,,
1478386044.42,2.186690,1.335958,0.084510,-6.724933,0.304433,7.050562,0.189932,-0.972552,0.134420,0.725672,-1.208036,0.945551,19.322586,10.152969,-14.578613,,,,,,
1478386044.44,2.064977,1.520801,0.217442,-5.016590,0.885325,7.353222,0.043995,-0.998751,0.023703,1.012355,-1.362669,2.036721,20.136459,8.355011,-12.540100,,,,,,
1478386044.46,-0.891928,1.457165,-3.066443,-4.678185,3.278164,5.941528,-0.088247,-0.993551,-0.071197,1.523412,-1.251902,3.194885,20.654831,6.930161,-12.380615,,,,,,
1478386044.48,-0.710655,1.335193,-3.131630,-4.649788,6.894074,2.944985,-0.152273,-0.972374,-0.176925,1.459372,-0.519570,3.237166,20.654831,6.930161,-12.380615,,,,,,
1478386044.50,-0.509530,1.237826,3.050410,-4.800715,3.213498,0.929169,-0.159427,-0.945076,-0.285333,1.695713,0.236458,3.778863,21.323044,5.881531,-11.020752,,,,,,
1478386044.52,-0.487489,1.158877,3.034590,-1.917797,-0.138528,3.043645,-0.187536,-0.916354,-0.353731,2.485723,0.846759,3.688051,22.517899,5.584091,-8.457947,,,,,,
1478386044.54,-0.779164,1.195234,-2.914719,7.556381,0.891743,2.898424,-0.257742,-0.930301,-0.260976,3.218756,2.279911,3.316854,22.435898,4.159454,-8.079529,,,,,,
1478386044.56,-0.739459,1.256455,-2.848821,1.379817,6.001473,-3.706457,-0.208360,-0.951000,-0.228440,0.556184,-0.913441,-6.282409,22.353012,3.036346,-6.201904,,,,,,
1478386044.58,-0.962080,1.404467,-2.748330,7.061015,-10.194083,-5.306364,-0.135825,-0.986199,-0.094671,1.625113,-1.374610,3.570883,22.353012,3.036346,-6.201904,,,,,,
1478386044.60,-2.300383,1.500707,-1.490353,3.280022,-1.584174,-2.569054,-0.052206,-0.997545,0.046681,1.282522,-2.716429,1.280880,22.438828,5.285889,-6.657837,,,,,,
1478386044.62,-2.731074,1.477331,-1.040474,2.662061,2.072386,-0.447799,-0.037246,-0.995635,0.085575,-0.280442,-0.452515,0.390637,22.224838,6.933487,-9.064941,,,,,,
1478386044.64,-2.901433,1.420967,-0.815382,2.645280,2.646408,-0.449455,-0.035505,-0.988797,0.144985,-0.434466,0.483105,0.228061,20.724991,6.858170,-9.379700,,,,,,
1478386044.66,-3.007231,1.394002,-0.666637,1.186587,1.367450,-1.291017,-0.023560,-0.984412,0.174290,-0.295303,0.793891,0.576153,21.696243,6.559753,-7.794128,,,,,,
1478386044.68,3.104477,1.368188,-0.496084,1.539735,-0.903355,-1.579781,0.007467,-0.979545,0.201087,0.046595,0.096824,0.349496,21.696243,6.559753,-7.794128,,,,,,
1478386044.70,2.955538,1.348250,-0.365016,0.471584,-0.564157,-1.347790,0.040828,-0.975339,0.216905,0.565113,-0.801883,0.046721,21.324844,7.309601,-7.950012,,,,,,
1478386044.72,2.913318,1.332056,-0.305058,0.761783,1.378456,-0.416688,0.053514,-0.971637,0.230344,0.610609,-0.371076,-0.005994,20.876053,7.534515,-8.030212,,,,,,
1478386044.74,2.969208,1.319819,-0.340701,0.626424,0.556406,0.575517,0.042600,-0.968670,0.244670,0.186129,0.136654,-0.063121,21.329025,8.134293,-8.252441,,,,,,
1478386044.76,3.014108,1.304113,-0.399259,1.061447,-1.190637,0.602452,0.033506,-0.964650,0.261395,-0.085630,0.207479,-0.204937,21.251236,7.609604,-7.951660,,,,,,
1478386044.78,3.031828,1.281307,-0.449707,1.277759,-1.571651,0.530196,0.031271,-0.958390,0.283745,-0.082662,-0.056564,-0.183784,21.251236,7.609604,-7.951660,,,,,,
1478386044.80,3.039638,1.255643,-0.480428,1.308625,-0.752098,0.164967,0.031548,-0.950749,0.308353,-0.092354,-0.137417,-0.050220,20.499435,7.159439,-8.107849,,,,,,
1478386044.82,3.031891,1.231053,-0.480908,1.199950,-0.306573,-0.291282,0.036484,-0.942840,0.331242,-0.211091,-0.218888,-0.093586,20.198196,6.708908,-8.634521,,,,,,
1478386044.84,3.000831,1.201990,-0.457956,1.722261,-0.615081,-0.731412,0.050578,-0.932758,0.356937,-0.241236,-0.135189,-0.521412,21.023666,6.633392,-9.151062,,,,,,
1478386044.86,2.953979,1.156136,-0.425057,2.277590,-0.900518,-1.126547,0.075143,-0.915253,0.395809,-0.168832,-0.061752,-0.183392,20.650681,7.008163,-9.380920,,,,,,
1478386044.88,2.901216,1.107263,-0.386195,2.210026,-0.915340,-1.452574,0.106443,-0.894478,0.434256,-0.247419,-0.450935,-0.229834,20.650681,7.008163,-9.380920,,,,,,
1478386044.90,2.834424,1.047743,-0.342217,2.851046,-1.796905,-2.109895,0.151038,-0.866298,0.476147,-0.417822,-0.642888,-0.678234,19.675430,6.857849,-9.690186,,,,,,
1478386044.92,2.750920,0.971221,-0.291878,3.213879,-1.995986,-2.808560,0.214888,-0.825575,0.521774,-0.464888,-0.748628,-0.585205,20.128128,7.232178,-10.361755,,,,,,
1478386044.94,2.672286,0.885167,-0.240221,3.413884,-1.888718,-3.448970,0.286358,-0.774021,0.564704,-0.522274,-1.116070,-0.940406,19.532089,7.831345,-11.194580,,,,,,
1478386044.96,2.587539,0.782738,-0.195325,3.861258,-3.120833,-4.001819,0.373025,-0.705224,0.602920,-0.551629,-1.542091,-1.144897,19.161972,8.580383,-12.175537,,,,,,
1478386044.98,2.498411,0.663815,-0.170972,5.000994,-3.800987,-4.123507,0.472387,-0.616126,0.630269,-0.525244,-2.007073,-0.693501,19.161972,8.580383,-12.175537,,,,,,
1478386045.00,2.432097,0.522316,-0.187963,6.227378,-3.682594,-3.707568,0.564591,-0.498888,0.657531,-0.440308,-3.022489,-0.085541,17.067581,9.178391,-14.148254,,,,,,
1478386045.02,2.374950,0.411955,-0.208789,3.152178,-3.076000,-2.262469,0.635684,-0.400401,0.659988,-0.847354,-3.451573,0.137787,16.543839,9.027115,-15.427979,,,,,,
1478386045.04,2.322081,0.375551,-0.211796,0.899660,-2.914142,-0.874857,0.679879,-0.366786,0.635006,-1.468300,-1.764135,-0.957364,16.018723,8.726303,-16.257385,,,,,,
1478386045.06,2.208323,0.385856,-0.201066,-1.204960,-6.541821,0.714104,0.744489,-0.376352,0.551448,-2.109434,-1.251471,-1.549220,14.817947,8.350677,-16.868225,,,,,,
1478386045.08,2.095822,0.421035,-0.200899,-0.818065,-4.091455,1.866867,0.789740,-0.408705,0.457461,-2.466361,-0.516862,-1.362017,14.817947,8.350677,-16.868225,,,,,,
1478386045.10,2.089555,0.495399,-0.195638,-2.867912,1.551296,3.924851,0.764031,-0.475383,0.436196,-2.133385,-0.480168,-0.785699,12.644089,8.274673,-17.864746,,,,,,
1478386045.12,2.129298,0.610253,-0.173960,-4.204762,3.102353,4.477030,0.694980,-0.573075,0.434268,-1.036364,-0.734497,-0.563907,10.996811,8.874664,-17.882996,,,,,,
1478386045.14,2.175220,0.734645,-0.130983,-5.121510,3.831250,4.232772,0.610596,-0.670324,0.421709,-0.521530,-0.891657,-0.233827,11.974075,9.700638,-16.900757,,,,,,
1478386045.16,2.208846,0.873107,-0.068763,-6.294471,3.979292,4.485423,0.516052,-0.766329,0.382662,-0.174957,-0.824796,0.254286,12.200211,10.602600,-14.951172,,,,,,
1478386045.18,2.207539,1.033753,0.029907,-7.443989,3.889654,4.932982,0.411343,-0.859225,0.304186,0.081928,-0.992063,0.679823,12.200211,10.602600,-14.951172,,,,,,
1478386045.20,2.135871,1.206461,0.182568,-7.617798,2.842218,5.382810,0.300937,-0.934361,0.190806,0.349668,-1.368236,1.143819,13.104355,12.104324,-13.221619,,,,,,
1478386045.22,1.915924,1.372421,0.446929,-6.338902,0.996659,6.010326,0.185456,-0.980388,0.066674,0.560852,-1.500874,2.105872,15.950394,12.633545,-8.994812,,,,,,
1478386045.24,1.022635,1.502497,1.348861,-4.591706,-0.066099,6.632265,0.058247,-0.997669,-0.035564,0.950725,-1.322568,3.423488,17.519424,11.734848,-7.701355,,,,,,
1478386045.26,-0.453482,1.428982,2.844700,-4.751724,1.752762,5.475615,-0.061921,-0.989961,-0.127054,1.758805,-0.806792,3.167353,18.112503,10.385376,-7.166382,,,,,,
1478386045.28,-0.569699,1.313419,3.025071,-3.840847,2.971292,3.933475,-0.137296,-0.967061,-0.214343,1.987287,-0.403468,3.351916,18.112503,10.385376,-7.166382,,,,,,
1478386045.30,-0.621130,1.213618,3.096224,-3.378883,-0.620245,3.728878,-0.203470,-0.936887,-0.284328,2.449198,0.504529,3.576092,19.980850,9.111008,-6.543884,,,,,,
1478386045.32,-0.806432,1.154547,-2.992157,3.695627,0.638056,5.018206,-0.291857,-0.914612,-0.279830,3.680941,1.950256,3.264571,21.176010,8.286758,-5.779480,,,,,,
,,,,,,,,,,,,,,,,37.354356,-122.033499,33.892120,0.300000,41.132812,1478386263.00
1478386045.34,-1.030157,1.196394,-2.712453,5.330033,2.774320,-1.387881,-0.313558,-0.930726,-0.188228,3.331090,2.145296,1.920650,21.610367,4.912079,-5.465027,,,,,,
1478386045.36,-0.838579,1.294755,-2.814461,0.687897,5.929286,-5.601136,-0.202693,-0.962142,-0.182204,0.680659,-1.643937,-4.964829,22.287827,5.888367,-4.186157,,,,,,
1478386045.38,-0.981080,1.400343,-2.729639,5.749413,-7.019058,-2.902404,-0.140979,-0.985508,-0.094335,0.705600,-1.439144,1.850973,22.287827,5.888367,-4.186157,,,,,,
1478386045.40,-2.096129,1.463358,-1.674106,4.659038,-1.017967,-1.696502,-0.092772,-0.994234,0.053777,1.687392,-2.814207,3.919994,22.219925,7.839478,-3.067627,,,,,,
1478386045.42,-2.394325,1.444869,-1.330452,1.715454,3.512063,-0.586549,-0.085359,-0.992082,0.092130,0.522950,-0.939330,2.058765,22.981308,9.562073,-5.465271,,,,,,
1478386045.44,-2.622808,1.440152,-1.027317,1.416907,3.314120,-1.876131,-0.064593,-0.991478,0.113132,-0.162885,0.141487,0.225842,21.556625,9.937958,-4.580627,,,,,,
1478386045.46,-2.950413,1.423746,-0.672898,1.590949,-0.412523,-1.866848,-0.027841,-0.989208,0.143852,-0.256506,0.754741,0.017358,21.633682,10.613647,-3.906860,,,,,,
1478386045.48,3.127656,1.392435,-0.504009,1.817753,-2.204173,-0.864928,0.002473,-0.984136,0.177400,0.021438,0.594594,0.523085,21.633682,10.613647,-3.906860,,,,,,
1478386045.50,3.036693,1.366784,-0.440951,0.610651,-0.699232,-0.550909,0.021214,-0.979262,0.201486,0.565716,-0.076326,0.202124,22.012375,11.212967,-4.579895,,,,,,
1478386045.52,3.072281,1.349028,-0.461631,1.124774,0.936985,0.566714,0.015233,-0.975510,0.219427,0.649852,-1.217788,-0.199499,21.790787,11.737289,-5.258667,,,,,,
1478386045.54,3.117863,1.328796,-0.506377,0.974362,-0.452268,0.266678,0.005686,-0.970861,0.239577,0.148840,-0.015101,-0.056228,21.190567,11.737427,-5.114685,,,,,,
1478386045.56,3.096471,1.305972,-0.511660,1.282009,-1.857350,-0.072136,0.011806,-0.965139,0.261473,-0.092189,0.259557,-0.111418,21.790512,11.586990,-5.558289,,,,,,
1478386045.58,3.045667,1.275525,-0.505967,1.591719,-2.180561,-0.247708,0.027871,-0.956723,0.289661,-0.266092,0.138776,-0.193455,21.790512,11.586990,-5.558289,,,,,,
1478386045.60,3.009750,1.244719,-0.494595,1.514937,-0.611428,-0.450799,0.042111,-0.947306,0.317550,-0.270657,-0.144155,0.032334,21.791092,11.436172,-6.382690,,,,,,
1478386045.62,2.975502,1.214830,-0.462148,1.495375,-0.096262,-1.000722,0.057616,-0.937310,0.343700,-0.321746,-0.353324,-0.225795,21.342178,11.510635,-6.912476,,,,,,
1478386045.64,2.927090,1.172711,-0.415409,2.097544,-0.371920,-1.395749,0.082516,-0.921805,0.378770,-0.216794,-0.342630,-0.533372,20.441788,11.285248,-7.295776,,,,,,
1478386045.66,2.872028,1.124977,-0.367708,2.102760,-0.727750,-1.527066,0.114833,-0.902258,0.415625,-0.048991,-0.140772,-0.160437,20.819717,11.734650,-7.893372,,,,,,
1478386045.68,2.808076,1.070182,-0.322868,2.545618,-1.537978,-2.046709,0.157125,-0.877288,0.453517,-0.268300,-0.486360,-0.440013,20.819717,11.734650,-7.893372,,,,,,
1478386045.70,2.709193,0.990733,-0.265464,3.403695,-2.982670,-3.370829,0.229672,-0.836428,0.497634,-0.462644,-0.693067,-1.068267,20.673325,12.334045,-8.496643,,,,,,
1478386045.72,2.606189,0.892097,-0.205382,3.572392,-2.442860,-4.060319,0.320286,-0.778390,0.539931,-0.450551,-0.923728,-0.843734,19.175583,12.633438,-9.112549,,,,,,
1478386045.74,2.518251,0.783418,-0.161041,3.876339,-3.307632,-4.279059,0.413591,-0.705705,0.575258,-0.639711,-1.349104,-1.246630,19.330154,13.081711,-10.837341,,,,,,
1478386045.76,2.428206,0.657644,-0.149624,5.260532,-4.372778,-4.189834,0.517913,-0.611254,0.598444,-0.669326,-1.973204,-0.909235,18.510025,13.905945,-11.598022,,,,,,
1478386045.78,2.360703,0.518259,-0.174009,5.711890,-3.789814,-3.857303,0.611476,-0.495369,0.617015,-0.743357,-2.529503,-0.323878,18.510025,13.905945,-11.598022,,,,,,
1478386045.80,2.317110,0.406250,-0.196065,3.301152,-2.246019,-2.685190,0.674440,-0.395167,0.623678,-0.779115,-3.536840,0.752329,15.589676,13.978073,-14.477417,,,,,,
1478386045.82,2.268738,0.367276,-0.194598,0.884954,-2.474007,-1.186751,0.715070,-0.359074,0.599784,-1.676847,-2.617091,0.115320,15.515213,13.902466,-15.077881,,,,,,
1478386045.84,2.182344,0.369664,-0.178741,-1.097673,-4.393004,0.206291,0.763452,-0.361302,0.535352,-2.188730,-1.804225,-1.093503,15.814651,13.752396,-15.149475,,,,,,
1478386045.86,2.119476,0.396720,-0.171165,-1.154393,-1.493425,1.315712,0.786947,-0.386395,0.481054,-2.380270,-1.039249,-0.957052,15.736832,13.152466,-15.073425,,,,,,
1478386045.88,2.139391,0.451128,-0.158054,-2.410674,2.439684,2.489995,0.758355,-0.435981,0.484580,-2.169870,-0.351709,-0.633094,15.736832,13.152466,-15.073425,,,,,,
1478386045.90,2.191311,0.542235,-0.141177,-3.665743,3.118839,3.813455,0.696878,-0.516051,0.498049,-1.525048,-0.242768,-0.542070,17.004410,12.179504,-13.032837,,,,,,
1478386045.92,2.232360,0.661383,-0.118828,-4.606482,2.388938,4.285258,0.622660,-0.614209,0.484811,-0.578821,-0.507465,-0.536310,19.095840,10.981644,-10.908325,,,,,,
1478386045.94,2.252923,0.796545,-0.089101,-5.418749,1.867406,4.919190,0.542728,-0.714944,0.440795,-0.040973,-0.551520,-0.227462,20.059464,9.108597,-8.943176,,,,,,
1478386045.96,2.265087,0.961080,-0.055919,-6.392579,1.866230,6.195326,0.440075,-0.819810,0.366395,0.144215,-0.456328,0.211715,21.096939,6.860199,-7.351013,,,,,,
1478386045.98,2.278882,1.155623,-0.030875,-6.931271,1.717491,7.488907,0.306387,-0.915047,0.262330,0.392344,-0.679665,0.418700,21.096939,6.860199,-7.351013,,,,,,
1478386046.00,2.320749,1.365224,-0.043826,-6.616896,1.326120,8.126225,0.149364,-0.978944,0.139134,0.737309,-1.289564,0.952144,19.341812,1.012741,-4.801025,,,,,,
1478386046.02,-2.841384,1.546264,-1.144568,-5.648633,0.973436,7.333102,-0.007254,-0.999699,0.023433,1.176581,-1.574871,1.735142,18.427963,-2.062256,-4.800964,,,,,,
1478386046.04,-0.997572,1.422977,-2.959872,-4.566162,2.102672,4.962989,-0.123740,-0.989095,-0.079877,1.916220,-1.636729,2.939252,15.942642,-4.537796,-5.343323,,,,,,
1478386046.06,-0.835168,1.312609,-3.066947,-4.346187,3.088029,3.234146,-0.189303,-0.966854,-0.171339,2.279238,-0.914829,3.194563,13.837051,-5.963348,-5.885132,,,,,,
1478386046.08,-0.743173,1.209135,-3.103200,-3.663601,2.273337,3.426477,-0.239411,-0.935310,-0.260533,2.521012,0.185142,3.564778,13.837051,-5.963348,-5.885132,,,,,,
1478386046.10,-0.833109,1.130286,-2.977650,2.150891,1.477232,5.357562,-0.315548,-0.904534,-0.286788,3.116207,0.837808,3.629348,11.658554,-6.863739,-6.279175,,,,,,
1478386046.12,-1.055386,1.152126,-2.673180,6.239817,4.761913,0.077542,-0.353732,-0.913630,-0.200383,4.588092,3.027980,3.914357,9.556381,-7.614502,-7.047974,,,,,,
1478386046.14,-0.955720,1.232367,-2.677962,4.898930,-1.489734,-4.635567,-0.271159,-0.943277,-0.191574,-0.100286,-0.534475,-6.652878,8.499527,-8.362183,-4.731323,,,,,,
1478386046.16,-1.526301,1.386023,-2.256755,9.465019,-6.140912,-5.941757,-0.183542,-0.982978,-0.008172,1.076425,-1.426446,3.001504,8.950058,-7.835983,-3.528320,,,,,,
1478386046.18,-2.137804,1.431801,-1.652547,1.993155,1.775377,-1.696684,-0.116867,-0.990356,0.074416,1.590195,-3.762376,2.612672,8.950058,-7.835983,-3.528320,,,,,,
1478386046.20,-2.397519,1.425311,-1.325576,2.205135,3.924506,-1.318593,-0.098189,-0.989436,0.106659,0.033125,-0.408834,0.512390,10.754135,-6.484619,-2.164429,,,,,,
1478386046.22,-2.610787,1.415438,-1.030240,1.476157,3.561923,-1.607196,-0.078331,-0.987956,0.133443,-0.097344,0.506984,0.144313,10.900955,-6.632965,-0.512451,,,,,,
1478386046.24,-2.864842,1.402472,-0.745822,1.503076,-0.239556,-1.831290,-0.045775,-0.985867,0.161156,0.210158,0.654782,0.264045,10.900558,-6.482224,0.237122,,,,,,
1478386046.26,-3.062231,1.387410,-0.578155,0.671387,-1.881909,-0.953670,-0.014457,-0.983232,0.181786,0.602653,0.005372,0.280616,11.351212,-6.181763,0.690674,,,,,,
1478386046.28,-3.084208,1.367254,-0.572619,1.326037,-0.317265,0.649064,-0.011593,-0.979357,0.201807,0.859417,-0.788557,-0.308481,11.351212,-6.181763,0.690674,,,,,,
1478386046.30,-3.004158,1.338721,-0.665019,1.139246,-0.563365,1.276295,-0.031510,-0.973191,0.227829,0.310975,-0.124145,0.040100,12.028214,-5.806976,0.471375,,,,,,
1478386046.32,-2.939674,1.318715,-0.746208,0.740347,-0.911694,0.916721,-0.050021,-0.968395,0.244353,-0.016782,0.087490,0.097688,11.502304,-5.881622,0.841248,,,,,,
,,,,,,,,,,,,,,,,37.354358,-122.033484,33.191895,1.790000,85.078125,1478386264.00
1478386046.34,-2.960414,1.302602,-0.753719,0.797815,-1.750811,-0.203057,-0.047748,-0.964251,0.260653,-0.235958,0.113986,-0.140948,10.525986,-6.031174,1.281982,,,,,,
1478386046.36,-3.052231,1.280306,-0.694535,1.406768,-1.582703,-0.791304,-0.025561,-0.958104,0.285279,-0.192548,-0.018245,-0.318955,11.427536,-5.731323,1.140076,,,,,,
1478386046.38,-3.131228,1.251406,-0.633075,1.491213,-0.751664,-0.926698,-0.003254,-0.949427,0.313971,-0.193615,-0.074453,-0.058050,11.427536,-5.731323,1.140076,,,,,,
1478386046.40,3.070939,1.219875,-0.566905,1.737975,-1.141580,-1.306631,0.024268,-0.939056,0.342906,-0.353354,-0.158844,-0.274623,11.428207,-5.581314,1.139587,,,,,,
1478386046.42,2.974933,1.169886,-0.492470,2.534544,-1.300426,-1.809977,0.064739,-0.920706,0.384850,-0.483578,-0.103555,-0.536736,12.102982,-5.505936,1.521118,,,,,,
1478386046.44,2.898987,1.110872,-0.428470,2.609217,-0.776601,-2.022091,0.106635,-0.896086,0.430882,-0.453238,-0.234026,-0.157368,12.254471,-4.829880,2.570679,,,,,,
1478386046.46,2.818352,1.044458,-0.365520,2.974711,-1.701060,-2.521883,0.159574,-0.864652,0.476354,-0.413388,-0.711077,-0.413839,13.381912,-4.154495,2.954956,,,,,,
1478386046.48,2.727285,0.960244,-0.309857,3.583470,-2.202837,-3.266894,0.230793,-0.819332,0.524814,-0.383992,-0.944355,-0.959629,13.381912,-4.154495,2.954956,,,,,,
1478386046.50,2.645468,0.861725,-0.253482,3.712297,-1.817056,-3.885294,0.309951,-0.758967,0.572625,-0.344985,-1.006277,-1.010858,14.133377,-3.779343,3.111328,,,,,,
1478386046.52,2.566317,0.751699,-0.212069,4.301415,-2.930981,-4.146960,0.397456,-0.682881,0.612946,-0.527171,-1.366710,-1.390823,14.662430,-2.728897,3.563477,,,,,,
1478386046.54,2.487050,0.622518,-0.201391,5.695865,-3.835021,-3.973937,0.494594,-0.583083,0.644508,-0.493663,-1.841981,-0.975822,15.341690,-1.528137,4.316589,,,,,,
1478386046.56,2.421419,0.479107,-0.225022,5.976423,-3.796888,-3.638927,0.585259,-0.460987,0.667056,-0.374062,-2.714947,-0.420672,18.504959,1.622482,4.938782,,,,,,
1478386046.58,2.361037,0.378209,-0.247648,2.834768,-3.533677,-1.797435,0.653944,-0.369256,0.660308,-0.574934,-3.746512,0.679688,18.504959,1.622482,4.938782,,,,,,
1478386046.60,2.300616,0.344281,-0.253797,0.895592,-3.298008,-0.849265,0.701560,-0.337520,0.627610,-1.198615,-2.068959,0.095550,19.938034,3.572952,5.397278,,,,,,
1478386046.62,2.203057,0.353424,-0.242749,-1.161307,-4.924547,0.661979,0.756834,-0.346112,0.554444,-1.867613,-1.580203,-0.978699,21.287216,3.648712,6.160522,,,,,,
1478386046.64,2.130399,0.392796,-0.236258,-1.535273,-2.069425,1.811326,0.782925,-0.382773,0.490421,-2.300747,-0.927468,-0.865910,22.183029,2.748795,6.247192,,,,,,
1478386046.66,2.145331,0.458309,-0.213428,-3.377348,2.907721,2.488508,0.752816,-0.442433,0.487362,-2.164971,-0.247310,-0.442348,25.089005,-0.849289,8.162048,,,,,,
1478386046.68,2.202722,0.557192,-0.172296,-4.741688,4.220331,3.365852,0.684843,-0.528805,0.501353,-1.583754,-0.211444,-0.444178,25.089005,-0.849289,8.162048,,,,,,
1478386046.70,2.260240,0.682134,-0.125112,-5.685555,4.180079,3.952800,0.598938,-0.630451,0.493766,-0.773804,-0.383251,-0.285270,24.318619,-4.521729,10.715393,,,,,,
1478386046.72,2.297733,0.821576,-0.067506,-6.445356,3.513327,3.759465,0.508903,-0.732220,0.452627,-0.156608,-0.403705,0.154734,21.069046,-9.244507,12.947021,,,,,,
1478386046.74,2.280851,0.974424,0.025526,-7.744322,2.475092,4.080217,0.425910,-0.827379,0.366122,0.104593,-0.405150,0.543897,18.647812,-13.969528,12.937012,,,,,,
1478386046.76,2.199321,1.152514,0.162374,-8.126714,1.452393,5.414404,0.328566,-0.913788,0.238821,0.344957,-0.526886,0.773569,15.331131,-18.321487,10.966858,,,,,,
1478386046.78,2.026986,1.336814,0.350304,-6.740007,-0.436146,6.786681,0.208143,-0.972751,0.102138,0.531557,-0.920605,1.168019,15.331131,-18.321487,10.966858,,,,,,
1478386046.80,1.377797,1.506914,0.980367,-5.014973,-1.399871,7.755022,0.062653,-0.997960,-0.012244,0.716064,-1.165629,2.019386,6.988327,-25.079880,2.578796,,,,,,
1478386046.82,-0.749328,1.432946,3.091570,-4.061887,-0.192541,7.315537,-0.093600,-0.990514,-0.100608,1.198458,-1.602824,2.760062,0.919250,-25.159058,-1.606689,,,,,,
1478386046.84,-0.787083,1.305184,-3.107246,-4.030892,3.704588,3.830433,-0.185928,-0.964932,-0.185303,2.079452,-1.244892,3.041107,-3.270004,-23.812180,-4.727600,,,,,,
1478386046.86,-0.705615,1.213378,-3.114923,-3.216314,2.652243,2.758397,-0.226883,-0.936803,-0.266316,1.624893,-0.232402,3.224705,-5.581131,-21.790344,-7.906799,,,,,,
1478386046.88,-0.726332,1.138628,-3.079563,-0.935476,0.684908,3.509122,-0.278165,-0.908060,-0.313131,2.387006,0.755991,3.946280,-5.581131,-21.790344,-7.906799,,,,,,
1478386046.90,-0.942244,1.148206,-2.781785,6.742275,3.375268,2.468936,-0.331741,-0.912030,-0.241143,3.833710,1.966046,3.103752,-8.413208,-19.094223,-11.768250,,,,,,
1478386046.92,-0.778565,1.215171,-2.780122,2.797330,7.634755,-4.633355,-0.244510,-0.937429,-0.247875,1.745120,0.224126,-3.150502,-9.235382,-17.967728,-10.279846,,,,,,
1478386046.94,-0.913809,1.366776,-2.745600,6.528269,-8.391024,-5.705181,-0.160432,-0.979260,-0.123740,0.681474,-0.909229,0.288733,-6.617081,-19.843903,-11.447998,,,,,,
1478386046.96,-1.353517,1.504816,-2.365205,2.305959,-0.316382,-3.598344,-0.064382,-0.997824,-0.014213,2.332434,-2.935388,3.282280,-3.847275,-19.840424,-7.970337,,,,,,
1478386046.98,-2.404773,1.522232,-1.261502,2.803640,3.218508,-0.845114,-0.032619,-0.998821,0.035953,0.292217,-0.982746,0.482770,-3.847275,-19.840424,-7.970337,,,,,,
1478386047.00,-2.828342,1.470157,-0.762131,3.068283,3.750008,-0.117733,-0.030960,-0.994940,0.095580,-0.095551,0.244254,0.544282,-2.430267,-20.587326,-4.878906,,,,,,
1478386047.02,-2.928959,1.433081,-0.622895,1.562935,0.580405,-0.654734,-0.028971,-0.990532,0.134189,-0.159765,0.978035,0.324032,-0.704956,-20.060959,-3.513184,,,,,,
1478386047.04,-3.140359,1.399069,-0.430282,2.043284,-1.789121,-1.564302,-0.000211,-0.985291,0.170884,0.020063,0.425278,0.511260,-0.181763,-20.210205,-2.757568,,,,,,
1478386047.06,2.980681,1.371011,-0.314315,1.004717,-2.122509,-0.831951,0.031797,-0.980109,0.195895,0.270129,-0.584207,-0.107043,0.717789,-19.984222,-1.774231,,,,,,
