timestamp(unix),attitude_roll(radians),attitude_pitch(radians),attitude_yaw(radians),rotation_rate_x(radians/s),rotation_rate_y(radians/s),rotation_rate_z(radians/s),gravity_x(G),gravity_y(G),gravity_z(G),user_acc_x(G),user_acc_y(G),user_acc_z(G),magnetic_field_x(microteslas),magnetic_field_y(microteslas),magnetic_field_z(microteslas),latitude(degree),longitude(degree),altitude(meter),speed(m/s),course(degree),timestamp(unix)
1478385458.87,-1.840384,1.460580,1.729674,0.005709,0.014078,0.007320,-0.106020,-0.993932,0.029295,0.002962,0.003454,0.004366,-10.962219,-44.972427,-18.279541,,,,,,
1478385458.89,-1.841080,1.460597,1.730417,0.001505,-0.004092,0.006194,-0.105984,-0.993934,0.029364,0.005108,0.017265,-0.001532,-9.911560,-44.822418,-18.269470,,,,,,
,,,,,,,,,,,,,,,,37.354439,-122.033393,36.759735,0.000000,189.843750,1478385548.48
1478385458.91,-1.840208,1.460393,1.729490,0.001489,0.001257,0.007277,-0.106204,-0.993912,0.029326,-0.002103,0.014175,-0.000960,-10.211990,-44.972565,-18.421997,,,,,,
,,,,,,,,,,,,,,,,37.354439,-122.033393,36.759735,0.000000,189.843750,1478385548.00
1478385458.93,-1.838765,1.460218,1.728246,0.002528,0.008718,0.006231,-0.106415,-0.993892,0.029219,0.000915,0.016948,-0.006498,-10.061798,-44.897491,-18.345703,,,,,,
1478385458.95,-1.839478,1.460290,1.728770,0.004737,-0.018016,0.000819,-0.106325,-0.993900,0.029275,0.009783,0.013767,0.002112,-10.061798,-44.897491,-18.345703,,,,,,
1478385458.97,-1.840945,1.460418,1.729690,-0.000555,-0.028707,0.000779,-0.106160,-0.993914,0.029398,0.000416,0.010638,-0.001947,-10.813583,-45.197189,-18.052307,,,,,,
1478385458.99,-1.841064,1.460308,1.729692,-0.000657,0.008795,0.013703,-0.106261,-0.993902,0.029439,0.005187,0.009497,0.001155,-10.285980,-44.822784,-18.648132,,,,,,
1478385459.01,-1.840644,1.459883,1.729817,0.002512,0.038852,0.014808,-0.106680,-0.993855,0.029507,-0.004160,0.015996,0.001941,-10.211884,-45.047867,-18.721680,,,,,,
1478385459.03,-1.837625,1.459138,1.727846,-0.002885,0.061255,0.015931,-0.107483,-0.993773,0.029380,-0.014435,0.020369,0.001977,-10.210876,-44.747635,-18.497681,,,,,,
1478385459.05,-1.834084,1.458386,1.726158,-0.009453,0.112364,0.008584,-0.108308,-0.993689,0.029194,-0.010970,0.005636,0.003277,-10.210876,-44.747635,-18.497681,,,,,,
1478385459.07,-1.828214,1.458372,1.722575,-0.014760,0.105941,0.008557,-0.108492,-0.993687,0.028561,0.005006,0.015065,-0.005337,-11.187912,-45.122421,-18.281311,,,,,,
1478385459.09,-1.821103,1.458004,1.717333,-0.023230,0.094286,0.018127,-0.109045,-0.993646,0.027880,-0.006677,0.016091,-0.000460,-10.435883,-44.747635,-18.499939,,,,,,
1478385459.11,-1.814892,1.458037,1.713178,-0.012593,0.104058,0.028854,-0.109185,-0.993649,0.027194,0.023995,-0.001529,-0.004519,-10.285645,-44.747787,-18.648376,,,,,,
1478385459.13,-1.811752,1.459500,1.711276,-0.013383,0.021961,0.035027,-0.107858,-0.993813,0.026504,0.064477,-0.000496,-0.005325,-9.913025,-45.122330,-18.193542,,,,,,
1478385459.15,-1.808352,1.459463,1.707322,-0.029116,-0.044005,0.056182,-0.107983,-0.993809,0.026146,0.034695,0.005375,0.015282,-9.913025,-45.122330,-18.193542,,,,,,
1478385459.17,-1.800328,1.458381,1.698489,-0.037609,-0.020252,0.067913,-0.109237,-0.993688,0.025523,0.002532,0.008840,0.026189,-11.037445,-44.972275,-18.130249,,,,,,
1478385459.19,-1.794467,1.457130,1.693056,-0.038902,0.051255,0.069175,-0.110596,-0.993547,0.025158,0.010667,0.011293,0.014866,-10.436661,-44.972794,-18.649231,,,,,,
1478385459.21,-1.784117,1.455791,1.683574,-0.038804,0.027957,0.084069,-0.112151,-0.993394,0.024294,0.036056,0.006440,-0.011919,-10.660980,-44.822800,-18.651917,,,,,,
1478385459.23,-1.773628,1.454593,1.672849,-0.039667,-0.024068,0.106359,-0.113565,-0.993256,0.023356,0.019693,-0.010055,-0.004847,-11.412201,-44.972427,-18.283997,,,,,,
1478385459.25,-1.764434,1.452556,1.663135,-0.033295,-0.014350,0.113875,-0.115760,-0.993018,0.022700,0.004905,0.017157,0.004476,-11.412201,-44.972427,-18.283997,,,,,,
1478385459.27,-1.755649,1.450111,1.654454,-0.033407,0.026354,0.126809,-0.118341,-0.992726,0.022128,-0.012152,0.025746,0.008771,-10.735886,-44.822876,-18.727600,,,,,,
1478385459.29,-1.745450,1.447780,1.645326,-0.034592,0.060434,0.121559,-0.120840,-0.992443,0.021322,0.004812,0.017147,-0.000952,-10.511780,-44.972717,-18.574951,,,,,,
1478385459.31,-1.734891,1.445889,1.635030,-0.039675,-0.016457,0.118131,-0.122909,-0.992209,0.020352,0.010345,0.010108,-0.012997,-11.486435,-44.822495,-18.360168,,,,,,
1478385459.33,-1.725735,1.443649,1.625310,-0.042857,-0.009873,0.120194,-0.125287,-0.991928,0.019569,-0.019199,0.011428,0.002084,-11.786530,-44.897659,-18.513000,,,,,,
1478385459.35,-1.716160,1.440987,1.616404,-0.032444,0.063787,0.119348,-0.128080,-0.991587,0.018750,0.000440,0.012567,-0.003095,-11.786530,-44.897659,-18.513000,,,,,,
1478385459.37,-1.709415,1.439121,1.611044,0.000552,0.070275,0.116216,-0.130036,-0.991343,0.018142,0.041688,0.020625,-0.028213,-11.185425,-44.747940,-18.807312,,,,,,
1478385459.39,-1.707837,1.435841,1.609886,0.025426,-0.005482,0.198320,-0.133284,-0.990907,0.018381,0.038100,0.005480,-0.060617,-11.110214,-44.748093,-18.956604,,,,,,
1478385459.41,-1.702634,1.431641,1.604300,0.071446,-0.027636,0.294492,-0.137503,-0.990334,0.018234,0.051687,-0.015373,-0.045471,-12.235855,-44.747665,-18.517883,,,,,,
1478385459.43,-1.711337,1.424394,1.613026,0.135349,0.018484,0.383410,-0.144442,-0.989302,0.020435,0.094545,-0.012849,-0.033771,-11.633606,-44.297806,-18.663208,,,,,,
1478385459.45,-1.723087,1.417336,1.625581,0.214318,0.026499,0.493605,-0.151089,-0.988248,0.023189,0.119381,0.003171,-0.037456,-11.633606,-44.297806,-18.663208,,,,,,
1478385459.47,-1.743910,1.405412,1.647152,0.298672,0.015262,0.598426,-0.162171,-0.986355,0.028358,0.128006,-0.038974,-0.019096,-12.084610,-44.522812,-18.667053,,,,,,
,,,,,,,,,,,,,,,,37.354439,-122.033393,36.617310,0.000000,189.843750,1478385549.00
1478385459.49,-1.768540,1.391721,1.671918,0.359769,-0.023556,0.714783,-0.174649,-0.984009,0.034993,0.128399,-0.068054,-0.005101,-12.009613,-44.522812,-18.666321,,,,,,
1478385459.51,-1.793313,1.373575,1.696473,0.450682,-0.037810,0.922176,-0.191114,-0.980615,0.043242,0.173796,-0.164634,0.032029,-13.136856,-44.746994,-17.851929,,,,,,
1478385459.53,-1.819680,1.350383,1.722782,0.603297,-0.014177,1.155422,-0.211896,-0.975807,0.053854,0.282682,-0.233787,0.064814,-14.112625,-44.746475,-17.336670,,,,,,
1478385459.55,-1.849987,1.321442,1.755236,0.835417,0.124878,1.378441,-0.237223,-0.969072,0.068007,0.347376,-0.295622,0.075228,-14.112625,-44.746475,-17.336670,,,,,,
1478385459.57,-1.883523,1.287976,1.795392,1.093710,0.346854,1.477795,-0.265530,-0.960272,0.085855,0.414028,-0.304300,0.089026,-14.787949,-44.746262,-17.118408,,,,,,
1478385459.59,-1.920895,1.250716,1.843356,1.390888,0.402462,1.573555,-0.295556,-0.949210,0.107919,0.527428,-0.335122,0.108908,-16.213379,-44.670746,-16.607849,,,,,,
1478385459.61,-1.966081,1.209812,1.891094,1.511661,-0.354193,1.618694,-0.325960,-0.935549,0.136005,0.621828,-0.366224,-0.003773,-17.792374,-45.044189,-15.047546,,,,,,
1478385459.63,-2.022497,1.170198,1.932037,1.501295,-1.215140,1.371639,-0.350858,-0.920828,0.170220,0.615491,-0.235788,-0.112877,-19.895828,-45.041885,-12.743591,,,,,,
1478385459.65,-2.090088,1.142387,1.968447,1.079491,-1.939219,0.562255,-0.360659,-0.909628,0.206160,0.741671,-0.058863,-0.215941,-19.895828,-45.041885,-12.743591,,,,,,
1478385459.67,-2.153148,1.133048,1.997956,0.594940,-1.701821,-0.226431,-0.354030,-0.905708,0.233141,0.675121,0.093743,-0.310885,-21.248978,-45.190247,-11.106689,,,,,,
1478385459.69,-2.207541,1.143021,2.029522,0.046894,-0.991138,-1.127178,-0.333552,-0.909891,0.246661,0.709407,0.217218,-0.291445,-22.677292,-45.338470,-9.320496,,,,,,
1478385459.71,-2.253259,1.172402,2.069807,-0.433478,-0.093727,-1.961051,-0.301049,-0.921685,0.244675,0.542626,0.215859,-0.235840,-22.229568,-45.713074,-8.939941,,,,,,
1478385459.73,-2.297447,1.217749,2.126678,-0.813091,0.684248,-2.641225,-0.258421,-0.938323,0.229712,0.500166,0.021957,-0.187079,-20.881165,-46.088135,-9.000305,,,,,,
1478385459.75,-2.358787,1.273918,2.206654,-1.093782,0.649426,-3.056357,-0.206317,-0.956254,0.207390,0.421817,-0.083678,-0.247078,-20.881165,-46.088135,-9.000305,,,,,,
1478385459.77,-2.467737,1.334275,2.325202,-1.268720,-0.009388,-3.214463,-0.146218,-0.972159,0.183104,0.341744,-0.146341,-0.247572,-16.533142,-46.989517,-10.379150,,,,,,
1478385459.78,-2.659929,1.391717,2.511964,-1.379288,-0.693885,-3.131065,-0.082517,-0.984008,0.157858,0.129834,-0.244477,-0.144201,-14.208878,-47.440399,-11.254517,,,,,,
1478385459.80,-2.983131,1.437868,2.820071,-1.425586,-1.051516,-2.883333,-0.020914,-0.991178,0.130877,-0.089773,-0.256472,-0.027148,-10.606339,-47.442093,-12.943481,,,,,,
1478385459.82,2.816673,1.462028,-2.999486,-1.373411,-1.200644,-2.520389,0.034654,-0.994091,0.102874,-0.216691,-0.201558,0.003556,-8.277771,-47.068344,-14.196350,,,,,,
1478385459.84,2.322023,1.458905,-2.529157,-1.185349,-1.490081,-2.064641,0.081605,-0.993747,0.076210,-0.281236,-0.071958,0.014473,-8.277771,-47.068344,-14.196350,,,,,,
1478385459.86,1.984791,1.441261,-2.224436,-0.943609,-1.875635,-1.542823,0.118261,-0.991622,0.051963,-0.333944,-0.011033,0.050058,-5.945389,-46.020111,-15.976196,,,,,,
1478385459.88,1.784026,1.422516,-2.064295,-0.649785,-2.235624,-1.041144,0.144392,-0.989027,0.031264,-0.421522,0.052641,0.130647,-5.043945,-46.021072,-16.942139,,,,,,
1478385459.90,1.667193,1.410779,-1.994001,-0.327627,-2.413908,-0.434210,0.158596,-0.987224,0.015336,-0.547115,0.111019,0.258361,-4.964005,-45.272141,-17.993591,,,,,,
1478385459.92,1.605672,1.409318,-1.978957,0.012708,-2.306693,0.126530,0.160680,-0.986991,0.005606,-0.614110,0.164603,0.309656,-5.489563,-45.497437,-18.298157,,,,,,
1478385459.94,1.589920,1.418827,-2.007868,0.329418,-2.139767,0.690599,0.151357,-0.988475,0.002895,-0.700689,0.234019,0.417164,-5.489563,-45.497437,-18.298157,,,,,,
1478385459.96,1.626045,1.437402,-2.082594,0.613159,-1.742373,1.084297,0.132796,-0.991116,0.007344,-0.701903,0.228894,0.427379,-8.567215,-45.796570,-17.428101,,,,,,
1478385459.98,1.747968,1.462206,-2.240478,0.903776,-1.807722,1.507718,0.106681,-0.994110,0.019101,-0.822120,0.176223,0.573413,-10.292953,-45.871292,-17.145142,,,,,,
1478385460.00,2.041308,1.488590,-2.569324,1.181452,-1.554446,1.809124,0.073191,-0.996623,0.037226,-0.797129,0.308894,0.717749,-12.621979,-46.545639,-16.491333,,,,,,
1478385460.02,2.574446,1.497393,-3.129051,1.335141,-1.041967,1.694343,0.039399,-0.997307,0.061855,-0.712525,0.495324,0.655567,-15.251343,-46.994080,-14.941345,,,,,,
1478385460.04,3.003177,1.483712,2.720087,1.144275,0.671787,1.038441,0.012000,-0.996211,0.086143,0.138772,-0.098791,0.294198,-15.251343,-46.994080,-14.941345,,,,,,
1478385460.06,3.134119,1.457350,2.627927,1.463598,1.429277,0.390411,0.000846,-0.993572,0.113200,1.499703,-2.159611,-1.243418,-18.106232,-47.442169,-13.018494,,,,,,
1478385460.08,-3.010106,1.435519,2.455026,1.024989,-2.697704,1.557833,-0.017682,-0.990864,0.133701,-0.838626,0.595707,0.033169,-17.434250,-47.741028,-11.885864,,,,,,
1478385460.10,-2.861473,1.403738,2.255270,1.191312,-1.800751,1.465500,-0.045972,-0.986078,0.159801,-0.460147,-0.005209,0.573292,-19.912384,-47.889404,-10.260193,,,,,,
1478385460.12,-2.843105,1.381053,2.211791,0.835998,-1.065907,0.561950,-0.055465,-0.982053,0.180267,-0.478395,-0.097858,0.213745,-21.638016,-47.437622,-8.478882,,,,,,
1478385460.14,-2.803790,1.358597,2.170683,1.022288,0.698712,0.740213,-0.069800,-0.977570,0.198708,-0.454462,0.345398,0.502708,-21.638016,-47.437622,-8.478882,,,,,,
1478385460.16,-2.777166,1.338339,2.165799,0.829017,0.924479,0.226586,-0.082107,-0.973103,0.215240,-0.078172,-0.171642,0.036331,-23.068390,-48.111069,-6.916138,,,,,,
1478385460.18,-2.784873,1.324595,2.173125,0.588831,-0.590306,0.165375,-0.085108,-0.969845,0.228379,-0.096670,-0.015140,-0.122895,-23.296097,-48.485382,-6.242249,,,,,,
1478385460.20,-2.803807,1.314421,2.175138,0.446391,-0.708826,0.114585,-0.084035,-0.967315,0.239247,-0.319819,-0.008484,0.237819,-24.122421,-48.484497,-5.350464,,,,,,
1478385460.22,-2.816909,1.306527,2.189207,0.432705,0.432006,-0.140858,-0.083326,-0.965284,0.247557,-0.205065,0.015378,0.213991,-24.800903,-48.858292,-4.156250,,,,,,
1478385460.24,-2.826558,1.299654,2.211617,0.407695,0.577830,-0.164006,-0.082988,-0.963466,0.254651,0.010798,-0.002568,-0.006543,-24.800903,-48.858292,-4.156250,,,,,,
1478385460.26,-2.840059,1.293595,2.233284,0.358707,0.219515,-0.218498,-0.081274,-0.961825,0.261317,0.132178,-0.004499,-0.143855,-24.201569,-49.083511,-4.374573,,,,,,
1478385460.28,-2.864989,1.288817,2.259189,0.321124,-0.053680,-0.297310,-0.075989,-0.960506,0.267681,0.028107,0.023769,-0.098659,-23.902374,-49.082993,-3.846558,,,,,,
1478385460.30,-2.883805,1.283097,2.286604,0.434652,0.745006,-0.291710,-0.072339,-0.958899,0.274371,-0.146548,-0.012262,0.046979,-24.356186,-49.682251,-3.099243,,,,,,
1478385460.32,-2.881989,1.273549,2.313645,0.629610,1.765854,-0.205226,-0.075184,-0.956146,0.283076,-0.033550,-0.057144,-0.056559,-24.508759,-50.207092,-2.949219,,,,,,
1478385460.34,-2.861353,1.260375,2.333034,0.745710,1.853769,-0.028492,-0.084486,-0.952205,0.293543,0.363676,-0.076848,-0.176829,-24.508759,-50.207092,-2.949219,,,,,,
1478385460.36,-2.836631,1.244709,2.333972,0.755646,0.950448,0.368630,-0.096184,-0.947303,0.305558,0.280800,-0.164071,0.005263,-23.384567,-50.432236,-3.087280,,,,,,
1478385460.38,-2.794239,1.225804,2.312143,0.833609,1.422256,0.802775,-0.115124,-0.941078,0.317992,-0.074192,-0.182427,0.082933,-24.210571,-50.657242,-3.094849,,,,,,
1478385460.40,-2.715170,1.198640,2.273938,1.109245,2.435436,1.382989,-0.150401,-0.931546,0.331062,0.573710,-0.325077,-0.113411,-27.064697,-51.105835,-1.697144,,,,,,
1478385460.42,-2.614612,1.159568,2.212980,1.237289,2.118539,2.238147,-0.201037,-0.916631,0.345503,0.864551,-0.564830,-0.036802,-28.266129,-51.481003,-1.857971,,,,,,
1478385460.44,-2.504394,1.109172,2.153133,1.518649,3.181150,2.488365,-0.264990,-0.895330,0.357999,0.722403,-0.514383,-0.000837,-28.266129,-51.481003,-1.857971,,,,,,
,,,,,,,,,,,,,,,,37.354439,-122.033393,36.559296,0.000000,189.843750,1478385550.00
1478385460.46,-2.402751,1.047786,2.109602,1.837007,2.820415,3.009316,-0.336373,-0.866319,0.369248,1.176644,-0.927275,-0.283341,-30.289093,-50.805344,-1.205261,,,,,,
1478385460.48,-2.317673,0.967453,2.068512,2.248092,2.630124,3.923009,-0.416365,-0.823443,0.385462,0.791212,-1.499387,-0.531855,-31.935226,-49.980438,-1.299194,,,,,,
1478385460.50,-2.235881,0.870040,2.039732,2.649529,2.940122,4.467319,-0.507367,-0.764355,0.397920,1.556134,-2.747547,-1.248338,-34.555115,-48.780243,-1.104004,,,,,,
1478385460.52,-2.187441,0.765565,2.032309,2.941241,1.538616,4.164812,-0.588201,-0.692945,0.416949,2.174704,-1.991092,-1.533588,-36.782669,-43.755127,-0.991333,,,,,,
1478385460.54,-2.195509,0.669629,2.028794,2.495690,-2.050133,4.030228,-0.635969,-0.620695,0.458564,1.915327,-1.301027,-0.439307,-36.782669,-43.755127,-0.991333,,,,,,
1478385460.56,-2.267374,0.574571,2.002298,1.470857,-5.427979,4.490327,-0.643875,-0.543474,0.538573,0.325256,-1.030012,0.257936,-36.689651,-39.479324,-0.178223,,,,,,
1478385460.58,-2.319176,0.532527,1.971264,0.233952,-1.634924,0.639469,-0.631321,-0.507712,0.586228,0.894077,-1.035303,-0.621994,-38.704453,-35.950531,3.616028,,,,,,
1478385460.60,-2.328975,0.548801,1.991546,-0.433586,0.721058,-1.755957,-0.619464,-0.521665,0.586626,1.411044,-0.014849,0.021864,-41.400223,-33.771805,7.332520,,,,,,
1478385460.62,-2.301149,0.601305,1.999563,-2.010475,1.740676,-2.558280,-0.614275,-0.565719,0.550116,1.042071,0.154250,-0.906867,-38.855026,-35.498810,5.338196,,,,,,
1478385460.64,-2.278889,0.690962,2.013084,-2.867357,1.649272,-4.401982,-0.585376,-0.637279,0.501210,1.081790,0.327861,-0.512577,-38.855026,-35.498810,5.338196,,,,,,
1478385460.66,-2.251857,0.809534,2.028299,-3.628155,1.689957,-5.135064,-0.535937,-0.723966,0.434333,0.802203,0.402493,-0.569450,-36.762039,-37.901321,2.816284,,,,,,
1478385460.68,-2.245822,0.945530,2.043516,-3.981378,0.515865,-5.940225,-0.456949,-0.810807,0.365772,0.582864,0.513536,-0.261173,-34.145889,-40.979660,-0.523315,,,,,,
1478385460.70,-2.272693,1.096918,2.078394,-4.183963,-0.130366,-6.732987,-0.348471,-0.889805,0.294644,0.333395,0.203175,-0.049573,-29.651154,-43.383362,-4.221191,,,,,,
1478385460.72,-2.376117,1.261410,2.174344,-4.288775,-1.039993,-7.541262,-0.210964,-0.952521,0.219542,0.019176,-0.153238,0.113344,-23.804749,-45.336823,-7.681824,,,,,,
1478385460.74,-2.777136,1.418920,2.548384,-4.247754,-2.316083,-7.807533,-0.053927,-0.988489,0.141356,-0.169049,-0.569540,0.286241,-23.804749,-45.336823,-7.681824,,,,,,
1478385460.76,2.051847,1.455590,-2.334427,-4.405252,-3.421026,-7.263814,0.101906,-0.993371,0.053189,-0.951088,-1.351325,0.971408,-11.575577,-46.693680,-14.530518,,,,,,
1478385460.78,1.408246,1.338194,-1.744681,-3.650590,-2.839777,-5.741606,0.227472,-0.973070,-0.037305,-2.187616,-2.051573,1.538068,-7.064423,-45.347076,-17.939392,,,,,,
1478385460.80,1.221292,1.238464,-1.619596,-2.460388,-3.808732,-3.437614,0.306524,-0.945284,-0.111718,-2.181112,-0.556989,1.715294,-3.151428,-43.625565,-21.430420,,,,,,
1478385460.82,1.117423,1.200561,-1.595902,-0.246100,-3.925689,-0.542001,0.325280,-0.932242,-0.158484,-2.315515,0.276343,2.140188,-2.543350,-42.577820,-23.677490,,,,,,
1478385460.84,1.081558,1.227550,-1.615214,1.642412,-1.715618,1.910845,0.297066,-0.941667,-0.158161,-2.595376,-0.082320,2.430240,-2.543350,-42.577820,-23.677490,,,,,,
1478385460.86,1.147912,1.309606,-1.689344,3.427966,0.522472,3.972547,0.235483,-0.966083,-0.105976,-2.344339,-0.153896,2.147693,-6.897217,-43.327484,-23.343750,,,,,,
1478385460.88,1.383610,1.420071,-1.919459,3.654135,0.276126,4.361169,0.147532,-0.988662,-0.027943,-1.085703,-0.633499,0.663960,-9.305161,-44.375336,-21.189697,,,,,,
1478385460.90,1.716173,1.445683,-2.189837,2.102261,4.258483,-0.248297,0.123471,-0.992184,0.018077,3.508976,-2.449406,-3.433986,-12.016159,-45.722061,-17.912781,,,,,,
1478385460.92,1.999515,1.462881,-2.551605,1.584404,-7.927789,2.329572,0.097958,-0.994183,0.044774,-0.604214,1.085202,1.424449,-11.872574,-46.846146,-17.007935,,,,,,
1478385460.94,2.699351,1.488908,2.881169,1.979337,-3.589301,3.692679,0.035006,-0.996649,0.073928,-2.511981,-0.044565,1.505815,-11.872574,-46.846146,-17.007935,,,,,,
1478385460.96,2.999973,1.449873,2.589843,2.151627,1.292436,-0.042686,0.017026,-0.992698,0.119421,-0.711103,-0.406838,0.576166,-15.701874,-46.918488,-14.346008,,,,,,
1478385460.98,-3.116900,1.415522,2.451979,1.647151,1.522799,1.442177,-0.003818,-0.987969,0.154604,-0.305309,0.187234,0.342192,-20.359222,-47.064041,-9.892151,,,,,,
1478385461.00,-2.959487,1.383376,2.325018,1.301008,1.587973,0.932117,-0.033744,-0.982488,0.183244,0.062156,-0.104609,0.492659,-21.338806,-47.662766,-8.625183,,,,,,
1478385461.02,-2.903627,1.360496,2.283810,0.917445,0.112493,0.543827,-0.049209,-0.977968,0.202871,-0.064042,-0.043745,-0.264730,-21.488464,-47.437317,-8.177368,,,,,,
1478385461.04,-2.887817,1.343169,2.249938,0.687522,-1.217056,0.620970,-0.056656,-0.974204,0.218439,-0.154495,0.051673,-0.036005,-21.488464,-47.437317,-8.177368,,,,,,
1478385461.06,-2.875350,1.328239,2.223384,0.611286,-0.176974,0.348045,-0.063195,-0.970727,0.231723,-0.402870,-0.133430,0.236310,-22.993057,-48.036057,-6.915588,,,,,,
1478385461.08,-2.870725,1.314769,2.234629,0.729995,1.431457,-0.109951,-0.067759,-0.967404,0.244006,-0.400274,-0.103885,0.096479,-23.445389,-47.959259,-5.120300,,,,,,
1478385461.10,-2.848137,1.298820,2.262638,0.938300,2.899660,-0.097002,-0.077706,-0.963242,0.257152,0.044152,-0.106170,-0.168300,-23.825012,-48.858887,-4.746460,,,,,,
1478385461.12,-2.810236,1.279395,2.276192,0.977822,2.077731,0.315353,-0.093464,-0.957842,0.271666,0.819050,-0.144117,-0.246764,-23.526245,-49.309418,-5.267090,,,,,,
1478385461.14,-2.759264,1.257090,2.251305,0.877958,1.312425,0.955196,-0.115128,-0.951196,0.286306,0.465607,-0.272864,0.379588,-23.526245,-49.309418,-5.267090,,,,,,
1478385461.16,-2.675671,1.229077,2.213338,1.160272,3.080791,1.238342,-0.150546,-0.942180,0.299388,0.426074,-0.127370,0.255086,-25.180511,-49.908371,-4.231812,,,,,,
1478385461.18,-2.567784,1.189887,2.167136,1.345745,3.086558,2.019697,-0.201807,-0.928327,0.312223,1.049540,-0.724551,-0.177610,-25.707169,-50.283371,-4.235962,,,,,,
1478385461.20,-2.453806,1.134550,2.104974,1.636764,2.824932,2.984269,-0.268240,-0.906344,0.326477,0.968939,-0.899457,-0.213058,-29.082687,-50.283035,-3.894714,,,,,,
1478385461.22,-2.339852,1.059469,2.048351,2.007928,3.412623,3.826311,-0.351621,-0.872096,0.340312,0.777982,-1.173757,-0.484721,-31.780624,-49.607391,-3.248718,,,,,,
1478385461.24,-2.228487,0.965492,1.998975,2.125304,3.454909,4.737996,-0.450320,-0.822329,0.347832,1.073305,-2.016553,-0.885384,-31.780624,-49.607391,-3.248718,,,,,,
1478385461.26,-2.135657,0.855399,1.976140,2.939683,3.987003,4.808187,-0.554029,-0.754833,0.351111,2.238066,-2.043110,-1.135550,-33.496933,-47.807785,-3.646301,,,,,,
1478385461.28,-2.065115,0.753060,1.987072,2.632309,3.762264,3.957638,-0.642261,-0.683874,0.346145,2.435947,-2.033441,-0.646362,-35.661301,-45.558121,-3.974670,,,,,,
1478385461.30,-2.033355,0.656761,1.987348,2.126923,-0.679792,4.676409,-0.708748,-0.610555,0.353410,1.907006,-1.587794,-0.278780,-35.701736,-38.284332,-5.196960,,,,,,
1478385461.32,-2.125852,0.551127,1.965606,1.407804,-7.057517,5.020877,-0.724035,-0.523648,0.448961,0.874700,-0.910846,0.530119,-39.217331,-35.356842,-2.690857,,,,,,
1478385461.34,-2.226753,0.497469,1.932261,-0.187003,-4.476334,1.401115,-0.696413,-0.477203,0.535992,1.012895,-0.790421,-0.277813,-39.217331,-35.356842,-2.690857,,,,,,
1478385461.36,-2.275731,0.513741,1.932408,-0.694132,-1.561186,-1.490378,-0.663334,-0.491439,0.564337,1.202457,0.033370,-0.253744,-41.684372,-31.751312,2.823608,,,,,,
1478385461.38,-2.287704,0.563488,1.939591,-1.906120,0.209638,-2.409664,-0.637295,-0.534138,0.555474,0.988110,0.249333,-0.499474,-41.984802,-31.073990,5.143555,,,,,,
1478385461.40,-2.281616,0.648429,1.947303,-2.869936,0.632674,-4.122858,-0.604014,-0.603935,0.520029,0.843943,0.353736,-0.719141,-41.016235,-32.348541,5.607117,,,,,,
1478385461.42,-2.272423,0.765429,1.965262,-3.528708,1.250369,-5.180043,-0.550760,-0.692846,0.465432,0.939493,0.457419,-0.371118,-36.534912,-37.902756,1.393616,,,,,,
1478385461.44,-2.263590,0.900089,1.981543,-4.069449,0.831238,-5.794343,-0.478253,-0.783382,0.396971,0.590878,0.591091,-0.334273,-36.534912,-37.902756,1.393616,,,,,,
,,,,,,,,,,,,,,,,37.354439,-122.033393,36.483917,0.000000,189.843750,1478385551.00
1478385461.46,-2.277806,1.052273,2.014992,-4.240897,0.648474,-6.835786,-0.376807,-0.868552,0.321922,0.404929,0.544654,-0.104683,-32.493912,-40.981003,-1.856750,,,,,,
1478385461.48,-2.350231,1.221954,2.104005,-4.380857,0.256005,-7.933311,-0.243133,-0.939769,0.240251,0.080093,0.150630,0.128524,-27.849625,-43.534836,-5.702637,,,,,,
1478385461.50,-2.691493,1.390759,2.447812,-3.980835,-0.951660,-8.746870,-0.077904,-0.983837,0.161232,-0.179558,-0.137974,0.160255,-22.230576,-46.013306,-9.164001,,,,,,
1478385461.52,2.278055,1.441407,-2.554594,-3.878025,-2.905908,-8.364229,0.098080,-0.991641,0.083836,-0.632840,-0.896176,0.354488,-8.197708,-46.695587,-16.446655,,,,,,
1478385461.54,1.563785,1.325015,-1.893478,-3.610958,-2.890624,-6.455520,0.243309,-0.969947,-0.001706,-1.486534,-1.814247,1.019238,-8.197708,-46.695587,-16.446655,,,,,,
1478385461.56,1.370706,1.216250,-1.748381,-2.106608,-2.996897,-4.478752,0.340238,-0.937804,-0.069002,-2.185697,-1.639344,1.329393,-3.236786,-45.198395,-19.251526,,,,,,
1478385461.58,1.270975,1.158907,-1.728825,-0.351665,-4.645334,-1.436298,0.382482,-0.916366,-0.118241,-2.009588,-0.192216,1.587220,-0.528381,-44.150848,-21.702637,,,,,,
1478385461.60,1.218616,1.187079,-1.758421,1.937467,-3.032942,2.578703,0.351392,-0.927280,-0.129137,-2.946988,0.124286,2.239031,-1.948975,-43.476761,-22.618835,,,,,,
1478385461.62,1.258622,1.279447,-1.843137,3.169290,-1.600461,4.460937,0.273362,-0.957857,-0.088221,-2.564408,0.264177,1.766963,-4.051315,-43.851334,-22.188721,,,,,,
1478385461.64,1.425403,1.350165,-1.974560,1.925792,5.792294,0.462910,0.216537,-0.975759,-0.031707,-0.827865,-0.761972,0.885222,-4.051315,-43.851334,-22.188721,,,,,,
1478385461.66,1.766950,1.367470,-2.266330,2.239458,-1.180326,2.673004,0.198056,-0.979400,0.039355,1.419864,-3.425461,-1.974078,-8.639175,-45.422470,-18.329895,,,,,,
1478385461.68,2.219688,1.434694,-2.811054,3.056042,-3.735115,5.976301,0.108106,-0.990752,0.081994,-2.725034,0.562163,0.933158,-8.422699,-46.695587,-16.448853,,,,,,
1478385461.70,2.873803,1.429328,2.796159,2.515341,0.038103,1.766540,0.037308,-0.990010,0.135972,-1.106476,0.466634,1.272750,-14.281403,-47.667725,-13.579590,,,,,,
1478385461.72,3.074823,1.394008,2.612146,1.705846,1.757327,1.314713,0.011734,-0.984414,0.175477,-0.940307,-0.081703,0.998839,-17.434479,-47.439987,-10.836853,,,,,,
1478385461.74,-3.018132,1.361817,2.462939,1.450073,2.126883,1.333448,-0.025548,-0.978243,0.205882,-0.651606,0.282900,0.298878,-17.434479,-47.439987,-10.836853,,,,,,
1478385461.76,-2.922087,1.337906,2.392965,0.804945,0.746543,0.772949,-0.050254,-0.973003,0.225253,0.141059,-0.132038,0.302121,-19.092911,-48.337067,-7.925659,,,,,,
1478385461.78,-2.890584,1.324846,2.355825,0.404188,-0.650282,0.453225,-0.060475,-0.969906,0.235848,-0.114253,-0.254962,-0.098306,-20.520569,-48.711411,-7.263855,,,,,,
1478385461.80,-2.879982,1.316705,2.334921,0.307415,-0.109080,0.319924,-0.065012,-0.967892,0.242813,-0.343389,-0.003559,0.039795,-20.820435,-48.636261,-7.117065,,,,,,
1478385461.82,-2.862233,1.308857,2.332004,0.413873,1.091260,-0.010066,-0.071404,-0.965889,0.248916,-0.171973,-0.036308,0.276017,-21.196793,-48.710587,-6.445557,,,,,,
1478385461.84,-2.855735,1.299484,2.347084,0.572064,0.948301,0.032553,-0.075570,-0.963420,0.257121,0.216439,-0.143178,-0.127848,-21.196793,-48.710587,-6.445557,,,,,,
1478385461.86,-2.830865,1.284414,2.334381,0.746177,0.424570,0.621184,-0.086370,-0.959272,0.268956,0.516729,-0.056109,-0.285420,-21.123825,-49.160583,-6.443481,,,,,,
1478385461.88,-2.785757,1.261029,2.293515,1.000803,0.314931,1.099979,-0.106197,-0.952404,0.285741,0.651028,0.223507,-0.139074,-23.679520,-49.984253,-5.116577,,,,,,
1478385461.90,-2.730380,1.231712,2.246625,1.125383,0.770639,1.333297,-0.132957,-0.943060,0.304895,0.379218,-0.081248,0.156668,-24.430862,-50.058594,-4.448914,,,,,,
1478385461.92,-2.661333,1.196726,2.202688,1.331085,1.797732,1.492470,-0.168822,-0.930848,0.324071,0.260115,-0.153091,0.256724,-25.781845,-49.982712,-3.562622,,,,,,
1478385461.94,-2.582891,1.156206,2.166790,1.447702,2.405921,1.718714,-0.213526,-0.915282,0.341564,0.205104,-0.326936,0.038959,-25.781845,-49.982712,-3.562622,,,,,,
1478385461.96,-2.499273,1.108768,2.122948,1.417042,1.994444,2.388498,-0.267037,-0.895150,0.356927,0.285241,-0.452475,-0.428964,-27.358398,-50.132126,-2.977966,,,,,,
1478385461.98,-2.417125,1.049324,2.070165,1.602150,1.752908,3.102930,-0.330147,-0.867087,0.373046,0.568215,-0.758264,-0.461486,-30.655960,-49.306259,-2.113403,,,,,,
1478385462.00,-2.335401,0.975487,2.019939,1.791676,2.107614,3.793368,-0.404679,-0.827975,0.388191,0.681520,-0.975477,-0.491798,-32.526215,-48.105835,-1.685730,,,,,,
1478385462.02,-2.249942,0.888197,1.974018,1.934242,2.748521,4.338138,-0.490841,-0.775936,0.396231,0.949001,-1.470539,-0.562323,-35.219070,-46.455627,-1.492615,,,,,,
1478385462.04,-2.156871,0.794089,1.953349,2.602651,4.751389,4.032831,-0.583962,-0.713225,0.387684,1.475197,-1.965349,-0.380284,-35.219070,-46.455627,-1.492615,,,,,,
1478385462.06,-2.070674,0.704743,1.971555,2.873577,4.259241,3.216742,-0.668568,-0.647838,0.365134,2.894871,-1.404179,-0.667655,-36.931534,-43.680664,-1.518066,,,,,,
1478385462.08,-2.035391,0.618922,1.981768,1.998134,0.377688,4.162916,-0.728169,-0.580157,0.364947,1.446187,-1.669309,-0.286243,-38.341675,-40.982483,-3.340210,,,,,,
1478385462.10,-2.100924,0.512020,1.963287,1.638373,-5.723171,5.328251,-0.752102,-0.489939,0.440798,0.810421,-1.923361,0.503492,-39.137497,-34.607803,-3.667297,,,,,,
1478385462.12,-2.196899,0.440163,1.931827,0.258514,-4.725436,2.366929,-0.733080,-0.426087,0.530136,0.831102,-1.212860,0.043717,-42.202286,-30.627670,1.465088,,,,,,
1478385462.14,-2.258336,0.434313,1.923514,-0.272525,-2.597692,-0.417793,-0.701062,-0.420787,0.575717,0.943661,-0.456380,-0.453372,-42.202286,-30.627670,1.465088,,,,,,
1478385462.16,-2.290558,0.463772,1.929787,-1.168448,-0.614496,-1.791092,-0.672534,-0.447325,0.589575,0.800891,0.034056,-0.155233,-44.074417,-28.673721,5.415466,,,,,,
1478385462.18,-2.288551,0.529255,1.942296,-2.004164,0.733727,-3.454508,-0.650223,-0.504890,0.567712,0.707703,0.084007,-0.630913,-43.029388,-29.196991,7.152588,,,,,,
1478385462.20,-2.278885,0.624900,1.965940,-2.612180,1.385826,-4.684594,-0.616057,-0.585016,0.527475,0.932249,0.333369,-0.514246,-40.272003,-33.849197,4.944031,,,,,,
1478385462.22,-2.275323,0.743999,1.997430,-3.114775,0.822883,-5.736208,-0.560594,-0.677235,0.476536,1.091340,0.273991,-0.646183,-38.111359,-37.826569,2.577576,,,,,,
1478385462.24,-2.297079,0.884118,2.040736,-3.659572,0.572026,-6.555189,-0.473987,-0.773356,0.421017,0.431873,0.128459,-0.480573,-38.111359,-37.826569,2.577576,,,,,,
1478385462.26,-2.336582,1.040320,2.112866,-3.815292,1.165127,-7.505792,-0.364704,-0.862566,0.350672,0.013675,0.063463,-0.302012,-34.148483,-41.429291,-0.146973,,,,,,
1478385462.28,-2.461420,1.204624,2.267389,-3.751735,0.251114,-8.287076,-0.225184,-0.933705,0.278366,-0.039328,-0.023296,-0.367661,-28.458282,-44.657440,-3.305359,,,,,,
1478385462.30,-2.856213,1.352375,2.662414,-3.792301,-1.403011,-8.372897,-0.061003,-0.976241,0.207925,-0.187517,-0.624391,-0.346627,-14.138504,-48.340012,-10.876099,,,,,,
1478385462.32,2.444224,1.403937,-2.665466,-4.188272,-2.303803,-7.994637,0.106661,-0.986111,0.127311,-0.883578,-1.128650,0.138741,-8.057404,-47.892731,-13.591675,,,,,,
1478385462.34,1.718272,1.311659,-1.973200,-4.031119,-2.520378,-6.701100,0.253465,-0.966611,0.037653,-1.860719,-2.139163,1.077810,-8.057404,-47.892731,-13.591675,,,,,,
1478385462.36,1.427713,1.212659,-1.746930,-2.771226,-4.661198,-3.809372,0.346948,-0.936551,-0.049984,-2.309931,-1.604739,1.221630,-1.894455,-46.321655,-17.509766,,,,,,
1478385462.38,1.280848,1.165826,-1.697644,-0.482546,-4.862038,-1.150914,0.377546,-0.919114,-0.112643,-2.392210,0.344087,2.132266,1.043549,-44.524933,-20.785767,,,,,,
1478385462.40,1.226345,1.188562,-1.714943,1.423590,-2.333045,2.355236,0.351085,-0.927833,-0.125953,-3.438625,-0.132195,2.657569,-0.972427,-43.252136,-22.984741,,,,,,
1478385462.42,1.284958,1.276052,-1.788905,3.083675,0.151908,4.397099,0.278709,-0.956876,-0.081909,-3.122932,0.329008,2.403732,-6.458130,-44.975143,-21.009399,,,,,,
1478385462.44,1.466517,1.374216,-1.969683,2.330975,0.947329,3.596661,0.194256,-0.980740,-0.020331,-1.846203,-0.171680,1.280081,-6.458130,-44.975143,-21.009399,,,,,,
1478385462.46,1.774259,1.361322,-2.163295,2.664404,4.236920,-0.547735,0.203656,-0.978140,0.042018,4.659656,-3.273874,-2.333003,-9.543655,-46.397400,-18.261047,,,,,,
,,,,,,,,,,,,,,,,37.354439,-122.033393,36.799133,0.000000,273.867188,1478385552.00
1478385462.48,1.947031,1.392897,-2.411950,2.545711,-6.202515,4.135083,0.164585,-0.984218,0.065020,-1.018192,0.311137,0.599760,-7.074341,-47.371552,-17.408447,,,,,,
1478385462.50,2.563086,1.443246,-3.088939,2.460602,-0.188728,3.055277,0.069552,-0.991876,0.106506,-1.488727,-0.166525,1.052215,-8.879700,-47.894547,-15.399841,,,,,,
1478385462.52,2.783368,1.411705,2.975583,1.786756,0.119137,0.544159,0.055544,-0.987372,0.148365,-0.835391,0.118201,0.719571,-14.810547,-47.890625,-11.484253,,,,,,
1478385462.54,3.051461,1.391034,2.726892,1.410456,1.908584,2.081613,0.016093,-0.983886,0.178070,-0.804820,-0.130661,0.593826,-14.810547,-47.890625,-11.484253,,,,,,
1478385462.56,-3.040480,1.362682,2.594548,1.317060,3.209824,0.898013,-0.020856,-0.978422,0.205560,0.055173,0.515150,0.565848,-16.090698,-48.564209,-10.070007,,,,,,
1478385462.58,-2.956396,1.341740,2.531818,0.717831,-0.237220,0.882146,-0.041811,-0.973881,0.223176,0.028688,-0.604931,-0.439058,-16.691696,-48.563538,-9.400940,,,,,,
1478385462.60,-2.898413,1.326024,2.450819,0.548145,-0.991010,1.168251,-0.058352,-0.970192,0.235205,0.120196,-0.154899,-0.136649,-17.668915,-48.787720,-8.585083,,,,,,
1478385462.62,-2.845167,1.309158,2.390047,0.654656,0.155424,0.808326,-0.075557,-0.965968,0.247382,-0.157567,0.069315,0.209176,-18.644028,-48.637207,-8.070312,,,,,,
1478385462.64,-2.799839,1.290499,2.360385,0.832366,1.105604,0.612523,-0.092714,-0.960973,0.260643,-0.042617,0.016805,0.147820,-18.644028,-48.637207,-8.070312,,,,,,
1478385462.66,-2.761193,1.270023,2.339863,0.854933,0.761059,0.705635,-0.109998,-0.955108,0.275081,0.240613,-0.022019,-0.056453,-20.148956,-49.310959,-6.808289,,,,,,
1478385462.68,-2.719515,1.246691,2.308783,0.914509,0.611511,1.031196,-0.130459,-0.947936,0.290512,0.323224,0.000991,-0.106385,-21.802292,-49.760071,-5.923523,,,,,,
1478385462.70,-2.664499,1.217164,2.266525,1.078340,0.849043,1.390056,-0.159024,-0.938121,0.307637,0.395795,0.067790,0.007457,-22.929764,-49.984100,-4.959106,,,,,,
1478385462.72,-2.600886,1.181180,2.226667,1.336722,1.741151,1.577797,-0.195516,-0.925055,0.325648,0.182363,-0.178934,0.176763,-23.830185,-49.983810,-4.668152,,,,,,
1478385462.74,-2.522887,1.136383,2.192103,1.572510,2.493193,2.017261,-0.244101,-0.907117,0.342860,0.292044,-0.314227,0.005452,-23.830185,-49.983810,-4.668152,,,,,,
1478385462.76,-2.436978,1.077975,2.147524,1.777457,2.147560,2.944057,-0.306455,-0.881001,0.360447,0.824140,-0.784099,-0.320713,-26.981369,-49.757339,-3.200317,,,,,,
1478385462.78,-2.355701,1.002057,2.097429,2.005728,1.832872,3.863500,-0.381015,-0.842581,0.380639,0.866488,-0.934473,-0.482003,-29.679749,-49.156616,-2.479065,,,,,,
1478385462.80,-2.273022,0.907832,2.047844,2.228913,2.404333,4.733019,-0.469843,-0.788172,0.397534,0.731134,-1.500952,-0.503079,-31.623505,-47.656265,-2.127991,,,,,,
1478385462.82,-2.186767,0.797814,2.019805,3.059606,3.871579,4.917996,-0.569940,-0.715831,0.403428,1.256402,-2.284138,-0.651734,-34.239243,-45.405701,-1.560974,,,,,,
1478385462.84,-2.104628,0.692901,2.025076,2.783560,4.420481,3.864371,-0.662345,-0.638772,0.391496,2.206474,-2.384025,-0.776140,-34.239243,-45.405701,-1.560974,,,,,,
1478385462.86,-2.043626,0.607428,2.031846,2.166624,1.825800,3.832655,-0.731028,-0.570757,0.373944,2.128626,-2.076520,-0.278500,-36.476151,-42.555893,-1.741882,,,,,,
1478385462.88,-2.091284,0.509022,2.009090,0.787856,-5.337971,5.131119,-0.757587,-0.487323,0.434256,1.158176,-1.148693,0.326089,-38.617920,-35.657349,-3.208984,,,,,,
1478385462.90,-2.171485,0.453769,1.970026,-0.248566,-4.391172,1.640317,-0.741463,-0.438356,0.508012,0.973259,-1.345976,-0.468186,-41.234406,-32.578781,0.355652,,,,,,
1478385462.92,-2.239060,0.458574,1.961321,-0.712249,-3.068831,-0.608018,-0.703807,-0.442670,0.555608,1.092417,-0.184482,-0.226857,-42.579865,-30.475510,3.635864,,,,,,
1478385462.94,-2.278021,0.498056,1.956594,-1.893212,-1.546451,-1.967054,-0.667818,-0.477718,0.570793,0.853883,0.174953,-0.162392,-42.579865,-30.475510,3.635864,,,,,,
1478385462.96,-2.299063,0.579792,1.962279,-2.800198,-0.371748,-3.930230,-0.624362,-0.547850,0.556806,0.673098,0.039854,-0.633558,-42.209015,-30.623169,5.965027,,,,,,
1478385462.98,-2.298886,0.689806,1.978960,-3.401117,0.872231,-4.836012,-0.575787,-0.636387,0.513304,0.675030,0.304158,-0.320585,-39.002991,-35.199249,4.885803,,,,,,
1478385463.00,-2.291327,0.819191,2.003033,-3.743228,1.426555,-5.847947,-0.513103,-0.730594,0.450508,0.354092,0.537082,-0.380104,-36.239639,-38.651840,2.298767,,,,,,
1478385463.02,-2.289228,0.967667,2.045782,-3.973640,2.043562,-6.828530,-0.427027,-0.823565,0.373349,0.224619,0.490099,-0.227353,-31.824646,-42.030319,-1.171936,,,,,,
1478385463.04,-2.319061,1.130775,2.127226,-3.900730,1.788383,-7.755427,-0.312173,-0.904743,0.289809,0.160485,0.231800,-0.259901,-31.824646,-42.030319,-1.171936,,,,,,
1478385463.06,-2.488024,1.299686,2.318046,-4.036296,-0.359456,-8.317151,-0.162830,-0.963474,0.212613,0.124454,-0.102566,-0.334287,-27.181381,-44.884384,-5.241943,,,,,,
1478385463.08,3.092223,1.435190,2.992734,-4.178001,-2.932758,-8.226181,0.006672,-0.990820,0.135027,-0.240162,-0.802897,-0.277986,-19.835236,-47.063354,-9.211914,,,,,,
1478385463.10,1.802671,1.400289,-2.060085,-4.668818,-3.545165,-7.260729,0.165141,-0.985499,0.038993,-1.046016,-1.502493,0.515084,-6.624222,-46.920273,-16.130249,,,,,,
1478385463.12,1.365213,1.275955,-1.679269,-3.711004,-3.376702,-5.429461,0.284469,-0.956848,-0.059320,-1.829330,-1.954437,1.261820,-2.032974,-44.674347,-20.216064,,,,,,
1478385463.14,1.199423,1.185386,-1.593349,-2.013145,-4.801296,-3.014723,0.350312,-0.926644,-0.136427,-1.946595,-0.906287,1.876097,-2.032974,-44.674347,-20.216064,,,,,,
1478385463.16,1.106472,1.158781,-1.592352,0.283432,-3.962162,0.049405,0.358058,-0.916316,-0.179332,-2.766612,0.392893,2.459499,-1.195496,-42.802048,-22.913330,,,,,,
1478385463.18,1.092942,1.216377,-1.616060,2.462355,-0.874855,3.399440,0.308171,-0.937848,-0.159597,-2.805119,0.235959,2.415380,-1.863647,-41.903946,-24.797729,,,,,,
1478385463.20,1.139101,1.317322,-1.676120,3.237254,-0.577114,4.319381,0.227763,-0.968047,-0.104925,-2.056193,-0.119798,1.901708,-7.201248,-43.851364,-22.220215,,,,,,
1478385463.22,1.292649,1.389138,-1.798672,1.413713,5.200508,0.719766,0.173717,-0.983546,-0.049605,-0.337444,-0.518072,0.667464,-10.659195,-44.748764,-19.627075,,,,,,
1478385463.24,1.671042,1.394644,-2.088964,2.098972,0.511589,1.393987,0.174363,-0.984525,0.017538,1.832732,-3.205004,-2.557073,-10.659195,-44.748764,-19.627075,,,,,,
1478385463.26,1.997074,1.450698,-2.506883,2.601359,-5.189591,5.016088,0.109088,-0.992797,0.049539,-2.429141,0.676421,0.943640,-8.116104,-46.022980,-18.847839,,,,,,
1478385463.28,2.765867,1.469836,2.962371,2.299948,-0.844934,1.758143,0.036984,-0.994908,0.093758,-0.449216,0.355031,0.983146,-10.373367,-46.845612,-16.467957,,,,,,
1478385463.30,2.942250,1.437291,2.779773,1.565271,0.519654,0.717838,0.026359,-0.991101,0.130473,-1.021064,-0.259295,1.269642,-15.027573,-46.842804,-13.664490,,,,,,
1478385463.32,-3.120896,1.411945,2.595204,1.329932,2.386230,1.254638,-0.003274,-0.987410,0.158150,-0.872184,0.176222,0.423362,-17.736740,-47.814606,-10.463745,,,,,,
1478385463.34,-2.960225,1.385843,2.488908,1.073438,2.454173,0.859062,-0.033171,-0.982945,0.180884,0.432631,0.224858,0.457681,-17.736740,-47.814606,-10.463745,,,,,,
1478385463.36,-2.914948,1.369044,2.445249,0.574092,-1.063483,0.529059,-0.045029,-0.979717,0.195262,0.073578,-0.465199,-0.584330,-17.511505,-47.739532,-10.386658,,,,,,
1478385463.38,-2.895912,1.356605,2.398763,0.485880,-1.088454,0.610036,-0.051697,-0.977149,0.206175,-0.187240,-0.038370,-0.132643,-17.739426,-48.188934,-9.787537,,,,,,
1478385463.40,-2.863355,1.342507,2.372492,0.711160,1.253656,0.345492,-0.062159,-0.974055,0.217607,-0.326253,-0.008657,0.335768,-19.090988,-48.187897,-8.751099,,,,,,
1478385463.42,-2.828941,1.326186,2.373324,0.802951,1.805502,0.240327,-0.074490,-0.970232,0.230438,0.145779,-0.103941,0.027512,-19.920013,-48.711777,-7.632812,,,,,,
1478385463.44,-2.791187,1.308227,2.361304,0.808418,0.937731,0.577708,-0.089102,-0.965726,0.243790,0.559592,-0.177432,-0.187607,-19.920013,-48.711777,-7.632812,,,,,,
1478385463.46,-2.739654,1.284065,2.324221,1.054505,0.857485,1.107853,-0.110640,-0.959173,0.260279,0.511458,0.093680,-0.146891,-20.525070,-49.535873,-6.736450,,,,,,
,,,,,,,,,,,,,,,,37.354423,-122.033418,36.898987,1.390000,271.406250,1478385553.00
1478385463.48,-2.674295,1.250936,2.275184,1.246714,0.907882,1.514326,-0.141645,-0.949279,0.280723,0.635312,0.158752,0.053688,-21.878540,-50.135361,-6.223145,,,,,,
1478385463.50,-2.598772,1.211215,2.222701,1.387328,1.707007,1.815927,-0.181766,-0.936044,0.301301,0.202823,-0.352469,0.195784,-23.078751,-49.909546,-5.410767,,,,,,
1478385463.52,-2.513927,1.163349,2.177340,1.592939,2.225992,2.229055,-0.232710,-0.918136,0.320738,0.218764,-0.290284,-0.151717,-25.183212,-50.583603,-4.454895,,,,,,
1478385463.54,-2.426612,1.102466,2.124699,1.758824,1.758226,3.127669,-0.295937,-0.892323,0.340852,0.719414,-0.729015,-0.445238,-25.183212,-50.583603,-4.454895,,,,,,
1478385463.56,-2.343191,1.024734,2.069767,2.008792,1.915821,3.913827,-0.371963,-0.854576,0.362413,0.704269,-0.941353,-0.471849,-28.104446,-49.382507,-3.362671,,,,,,
1478385463.58,-2.253577,0.931368,2.019941,2.094761,2.722919,4.720719,-0.462961,-0.802437,0.376513,0.629556,-1.614173,-0.577913,-30.873871,-47.881714,-2.569824,,,,,,
1478385463.60,-2.167899,0.819973,1.995702,3.117687,3.695285,4.867273,-0.564191,-0.731128,0.383589,1.966977,-2.484204,-0.914031,-33.566391,-46.081299,-2.152161,,,,,,
1478385463.62,-2.111220,0.709977,2.001765,3.022085,2.171055,4.595809,-0.650301,-0.651816,0.390185,2.946184,-2.612817,-0.829836,-35.350159,-42.556549,-2.405579,,,,,,
1478385463.64,-2.130993,0.584304,1.985220,2.262105,-3.820355,6.204144,-0.706605,-0.551619,0.443200,2.011430,-1.902894,0.231025,-35.350159,-42.556549,-2.405579,,,,,,
1478385463.66,-2.200702,0.506375,1.954059,0.929063,-3.635488,2.179724,-0.706675,-0.485010,0.515146,1.145045,-1.399176,-0.566263,-39.668091,-34.604065,0.077393,,,,,,
1478385463.68,-2.237662,0.498345,1.963524,0.155991,-0.588922,-0.882818,-0.690195,-0.477973,0.543298,1.416971,-0.356256,-0.240548,-42.288651,-32.275055,4.094177,,,,,,
1478385463.70,-2.253114,0.540394,1.983716,-1.113008,-0.513000,-2.972514,-0.665522,-0.514474,0.540738,1.678019,-0.096869,-0.694241,-42.513519,-31.899002,5.140747,,,,,,
1478385463.72,-2.286459,0.627737,2.011529,-2.416974,-0.962800,-4.664127,-0.610789,-0.587315,0.531034,1.337993,-0.158611,-0.590849,-40.571899,-33.849274,4.866028,,,,,,
1478385463.74,-2.318630,0.749716,2.042425,-3.594576,-0.316762,-5.687947,-0.536590,-0.681431,0.497718,0.603637,0.103382,-0.416771,-40.571899,-33.849274,4.866028,,,,,,
1478385463.76,-2.343679,0.894600,2.079523,-4.341862,0.201056,-6.324602,-0.448033,-0.779959,0.436956,0.186528,0.227331,-0.390249,-33.997452,-40.376816,2.326355,,,,,,
1478385463.78,-2.384977,1.054079,2.133505,-4.774167,0.167275,-6.962227,-0.339133,-0.869446,0.359239,0.160102,0.186798,-0.211717,-29.958557,-43.904984,-0.847656,,,,,,
1478385463.80,-2.493180,1.228164,2.258025,-5.030237,0.464626,-7.984335,-0.202898,-0.941874,0.267781,-0.236845,-0.112967,0.104900,-23.962509,-46.159119,-4.980896,,,,,,
1478385463.82,-2.891236,1.391386,2.684694,-4.624290,0.823092,-8.563864,-0.044211,-0.983949,0.172886,-0.632806,-0.319304,0.272625,-16.988083,-47.738480,-9.331421,,,,,,
1478385463.84,2.194960,1.420594,-2.387263,-4.098238,-0.537720,-8.136232,0.121424,-0.988741,0.087451,-0.828516,-0.756315,0.389874,-16.988083,-47.738480,-9.331421,,,,,,
1478385463.86,1.605853,1.305214,-1.822154,-3.334266,-2.391092,-6.395268,0.262310,-0.964940,0.009200,-1.317517,-2.067958,0.686327,-9.557037,-47.817749,-13.606873,,,,,,
1478385463.88,1.387203,1.201626,-1.669452,-2.285273,-4.506003,-4.126727,0.354778,-0.932627,-0.065877,-2.137416,-1.525900,1.381276,1.044800,-43.999176,-20.037354,,,,,,
1478385463.90,1.254901,1.151880,-1.636855,-0.514176,-5.213997,-1.062427,0.386643,-0.913530,-0.126371,-2.494294,0.141420,1.866788,2.556122,-42.427017,-22.876892,,,,,,
1478385463.92,1.186728,1.178912,-1.649025,1.513324,-3.045595,2.324348,0.354106,-0.924191,-0.143108,-2.834713,0.131085,2.214015,-0.216919,-42.353088,-23.954895,,,,,,
1478385463.94,1.206229,1.256622,-1.710638,2.847903,-1.365265,3.662547,0.288722,-0.951052,-0.110184,-2.266520,0.213686,2.073273,-0.216919,-42.353088,-23.954895,,,,,,
1478385463.96,1.325758,1.354974,-1.853991,3.476008,-0.680515,4.152723,0.207754,-0.976801,-0.051952,-1.949957,-0.267355,1.540401,-3.296936,-43.177231,-23.083252,,,,,,
1478385463.98,1.592708,1.411061,-2.080440,1.531611,5.631695,0.677238,0.159018,-0.987269,0.003485,-0.192099,-0.336293,0.234064,-10.217285,-45.946960,-17.819153,,,,,,
1478385464.00,1.978746,1.401614,-2.389449,2.240350,-0.683799,1.407925,0.154559,-0.985723,0.066800,2.525083,-2.755030,-2.364392,-8.272720,-46.846039,-16.896973,,,,,,
1478385464.02,2.351163,1.440943,-2.887614,2.280091,-6.632566,4.994349,0.092022,-0.991581,0.091100,-2.469570,0.089237,0.656046,-9.702637,-47.218872,-14.735168,,,,,,
1478385464.04,2.914434,1.432138,2.777567,2.399339,-0.445460,1.389625,0.031127,-0.990402,0.134663,-0.825393,0.679154,0.988078,-9.702637,-47.218872,-14.735168,,,,,,
1478385464.06,3.054631,1.393615,2.650758,1.779835,1.532807,1.035000,0.015308,-0.984344,0.175590,-1.182484,-0.405792,1.270516,-16.234177,-47.741089,-11.948914,,,,,,
1478385464.08,-3.044073,1.363953,2.520425,1.388432,3.323351,1.062749,-0.019996,-0.978684,0.204396,-0.412957,0.310761,0.644023,-17.588867,-47.963623,-9.486755,,,,,,
1478385464.10,-2.928913,1.338757,2.460021,0.884384,1.918797,0.753509,-0.048540,-0.973199,0.224782,0.351778,0.055307,0.215968,-17.892807,-48.412354,-8.213501,,,,,,
1478385464.12,-2.892509,1.326274,2.423196,0.354873,-0.811824,0.481175,-0.059680,-0.970253,0.234621,-0.081510,-0.490043,-0.294451,-18.119141,-48.637131,-7.990051,,,,,,
1478385464.14,-2.881101,1.317600,2.390165,0.347289,-0.740604,0.549737,-0.064517,-0.968117,0.242048,-0.235013,0.000343,-0.107939,-18.119141,-48.637131,-7.990051,,,,,,
1478385464.16,-2.852555,1.305659,2.369608,0.595719,1.015272,0.245157,-0.074690,-0.965056,0.251172,-0.242388,-0.002946,0.139407,-19.771027,-48.786316,-7.181091,,,,,,
1478385464.18,-2.822917,1.291445,2.373298,0.754705,1.898925,0.202991,-0.086390,-0.961234,0.261850,0.092203,-0.130349,0.051367,-19.998718,-49.235870,-6.732056,,,,,,
1478385464.20,-2.783496,1.273817,2.365048,0.806200,1.305952,0.572192,-0.102566,-0.956225,0.274070,0.508572,-0.150404,-0.175117,-20.001877,-49.760345,-6.205505,,,,,,
1478385464.22,-2.734360,1.250737,2.331448,0.927561,0.593415,1.093970,-0.124613,-0.949217,0.288893,0.687860,0.105894,-0.154204,-21.655334,-50.209381,-5.245667,,,,,,
1478385464.24,-2.678609,1.220283,2.282659,1.128292,0.651505,1.516505,-0.153360,-0.939197,0.307230,0.525537,0.068988,0.120779,-21.655334,-50.209381,-5.245667,,,,,,
1478385464.26,-2.608176,1.180405,2.236422,1.487245,1.779822,1.793750,-0.193502,-0.924760,0.327682,0.176946,-0.171630,0.054596,-22.932114,-50.358643,-4.508057,,,,,,
1478385464.28,-2.528358,1.130548,2.191932,1.651687,1.916041,2.336101,-0.245264,-0.904646,0.348513,0.388788,-0.332399,-0.213656,-24.431992,-50.057846,-3.698914,,,,,,
1478385464.30,-2.447998,1.070746,2.141518,1.718181,1.745552,2.960774,-0.306528,-0.877558,0.368690,0.415903,-0.833913,-0.350898,-25.557739,-49.982101,-2.960388,,,,,,
1478385464.32,-2.369139,0.998456,2.092055,1.909537,1.860043,3.640939,-0.377980,-0.840636,0.387895,0.572194,-0.868699,-0.488511,-30.803253,-48.480591,-1.442383,,,,,,
1478385464.34,-2.291944,0.910365,2.043678,2.114916,1.980363,4.447217,-0.460736,-0.789728,0.405033,0.921918,-1.400595,-0.636540,-30.803253,-48.480591,-1.442383,,,,,,
1478385464.36,-2.213396,0.809268,2.011145,2.574495,3.210666,4.565722,-0.552396,-0.723782,0.413519,1.137479,-2.063571,-0.467184,-32.670227,-46.454865,-0.717102,,,,,,
1478385464.38,-2.139264,0.708686,2.009880,2.830506,3.432757,3.872304,-0.639813,-0.650837,0.408718,2.382794,-2.555248,-0.707714,-34.530685,-43.305115,-0.970154,,,,,,
1478385464.40,-2.104725,0.616698,2.011933,2.439832,0.236409,4.231438,-0.702246,-0.578345,0.415173,2.168768,-1.635004,0.031467,-36.015335,-40.080658,-1.519714,,,,,,
1478385464.42,-2.172604,0.511022,1.985639,1.199869,-5.569870,5.140699,-0.719004,-0.489069,0.493807,1.088465,-1.195028,0.439344,-41.015366,-33.477509,1.635437,,,,,,
1478385464.44,-2.233596,0.460111,1.951723,0.265596,-2.782871,1.303625,-0.706295,-0.444047,0.551334,0.699474,-1.339568,-0.544285,-41.015366,-33.477509,1.635437,,,,,,
,,,,,,,,,,,,,,,,37.354420,-122.033423,36.117249,1.390000,271.757812,1478385554.00
1478385464.46,-2.265838,0.468012,1.960379,-0.284442,-0.660362,-1.377507,-0.685439,-0.451113,0.571551,0.765151,-0.055342,-0.230700,-42.583115,-30.623779,5.361206,,,,,,
1478385464.48,-2.257863,0.512037,1.973716,-1.347790,1.184780,-2.464072,-0.673958,-0.489954,0.552925,1.118599,0.150995,-0.357231,-42.360809,-30.772430,6.713928,,,,,,
1478385464.50,-2.253382,0.589010,1.990270,-2.146533,0.399529,-3.987986,-0.645191,-0.555538,0.524506,0.949604,0.219051,-0.752289,-41.240906,-32.348755,5.379822,,,,,,
1478385464.52,-2.257491,0.689489,2.010764,-2.786494,0.351302,-4.608917,-0.596692,-0.636143,0.489164,0.907712,0.316380,-0.407804,-39.900940,-34.974945,4.201172,,,,,,
1478385464.54,-2.271415,0.807166,2.033150,-3.332692,-0.089698,-5.354702,-0.528650,-0.722330,0.445835,0.591592,0.243341,-0.470081,-39.900940,-34.974945,4.201172,,,,,,
1478385464.56,-2.302678,0.941084,2.065742,-3.742807,-0.390027,-5.980201,-0.438102,-0.808197,0.393553,0.425102,0.222076,-0.289732,-32.796341,-40.979355,-0.209778,,,,,,
1478385464.58,-2.361737,1.089667,2.129123,-4.006258,-0.068013,-6.900753,-0.325416,-0.886473,0.329044,0.121086,0.159483,-0.009189,-28.304764,-43.757065,-2.931519,,,,,,
1478385464.60,-2.499258,1.247408,2.285893,-3.880347,0.445047,-7.761339,-0.190372,-0.948164,0.254447,-0.110883,-0.026644,0.168481,-23.810135,-45.935013,-5.880066,,,,,,
1478385464.62,-2.954637,1.385701,2.755129,-3.788735,-0.093508,-8.208193,-0.034207,-0.982919,0.180834,-0.577075,-0.416862,0.375425,-16.834274,-46.988770,-9.632141,,,,,,
1478385464.64,2.282935,1.403503,-2.474409,-3.497692,-0.668067,-7.890878,0.126046,-0.986039,0.108809,-1.098000,-1.228759,0.562532,-16.834274,-46.988770,-9.632141,,,,,,
1478385464.66,1.730513,1.299419,-1.933297,-2.855341,-1.239242,-6.329298,0.264647,-0.963403,0.042632,-1.852492,-1.656394,1.120195,-2.496017,-46.245377,-16.240967,,,,,,
1478385464.68,1.525136,1.205802,-1.770730,-1.837781,-3.734602,-3.830011,0.356572,-0.934126,-0.016292,-2.123311,-1.131716,0.780102,2.387939,-45.047745,-18.595703,,,,,,
1478385464.70,1.382520,1.170766,-1.735339,-0.178595,-6.167077,-0.287722,0.382564,-0.921049,-0.072891,-2.296291,0.159132,1.603973,2.695557,-44.074921,-20.770630,,,,,,
1478385464.72,1.308348,1.211423,-1.771550,1.878327,-4.650427,2.843027,0.339645,-0.936118,-0.091244,-3.027007,0.214926,2.061550,0.374756,-43.626358,-22.220154,,,,,,
1478385464.74,1.329578,1.297363,-1.862891,2.648223,-2.302445,4.148958,0.262221,-0.962849,-0.064509,-2.750227,0.100804,2.016886,0.374756,-43.626358,-22.220154,,,,,,
1478385464.76,1.540387,1.337136,-2.013076,2.584673,6.681845,-0.890760,0.231433,-0.972825,-0.007040,1.813367,-1.886504,-0.046137,-4.281815,-44.750351,-21.213379,,,,,,
1478385464.78,1.791072,1.341508,-2.220631,1.854061,-0.849747,2.017933,0.221793,-0.973828,0.049661,0.105478,-1.134143,-0.467905,-6.393936,-46.321991,-17.854797,,,,,,
1478385464.80,2.178143,1.411544,-2.655714,2.449206,-1.189961,5.239326,0.130221,-0.987346,0.090500,-2.252291,-0.125172,0.386138,-7.228470,-47.669678,-15.534058,,,,,,
1478385464.82,2.486271,1.406538,-2.988753,1.767349,-1.812783,0.396473,0.099652,-0.986540,0.129648,-0.230908,0.197645,0.409751,-11.431091,-47.667923,-13.776123,,,,,,
1478385464.84,2.658823,1.395739,3.084598,1.270529,-1.017584,1.817730,0.080853,-0.984717,0.154260,-1.186108,-0.241098,0.836097,-11.431091,-47.667923,-13.776123,,,,,,
1478385464.86,2.871052,1.383146,2.898059,1.171533,2.759356,0.805359,0.049856,-0.982445,0.179766,-0.681585,0.433037,1.075483,-12.936935,-48.341064,-11.914124,,,,,,
1478385464.88,2.993168,1.367149,2.828776,0.761268,1.964676,0.424237,0.029908,-0.979335,0.200019,-0.030121,-0.260472,0.023644,-15.268433,-48.938522,-9.385620,,,,,,
1478385464.90,3.046529,1.356909,2.774999,0.509771,-0.902156,0.543056,0.020148,-0.977213,0.211302,0.279489,-0.164923,-0.589217,-14.820541,-49.313217,-9.080017,,,,,,
1478385464.92,3.071194,1.347305,2.724540,0.530343,-1.027522,0.493599,0.015590,-0.975130,0.221086,-0.140498,-0.084151,-0.147585,-16.398560,-49.762558,-8.419495,,,,,,
1478385464.94,3.121240,1.334713,2.677695,0.739991,1.002840,0.488865,0.004760,-0.972262,0.233848,-0.093353,0.079104,0.139413,-16.398560,-49.762558,-8.419495,,,,,,
1478385464.96,-3.088135,1.317793,2.634883,0.889183,1.687495,0.585029,-0.013375,-0.968165,0.249956,0.635002,0.080592,0.012236,-17.452698,-50.361603,-7.453247,,,,,,
1478385464.98,-3.012953,1.297510,2.579039,0.991188,0.657886,1.011880,-0.034624,-0.962889,0.267667,0.909471,0.046309,-0.171643,-18.806625,-50.885559,-6.415161,,,,,,
1478385465.00,-2.933044,1.270930,2.504038,1.216239,0.411114,1.365241,-0.061158,-0.955376,0.288992,0.535523,0.104408,-0.076346,-20.234879,-51.184296,-5.153564,,,,,,
1478385465.02,-2.849619,1.237715,2.431124,1.378014,0.911136,1.634003,-0.094112,-0.945040,0.313119,0.079631,-0.031813,0.126930,-21.887085,-51.333252,-4.119690,,,,,,
1478385465.04,-2.755227,1.198331,2.358814,1.491453,1.543545,1.923345,-0.137131,-0.931433,0.337086,-0.001739,-0.310281,0.002345,-21.887085,-51.333252,-4.119690,,,,,,
1478385465.06,-2.663787,1.151856,2.294123,1.628366,1.536485,2.271870,-0.187056,-0.913520,0.361235,0.157546,-0.308724,-0.262266,-24.440323,-51.556793,-2.644531,,,,,,
1478385465.08,-2.574494,1.096970,2.231082,1.763243,1.852295,2.671495,-0.245116,-0.889829,0.384868,0.180113,-0.633670,-0.155894,-26.316849,-51.555756,-1.613281,,,,,,
1478385465.10,-2.482149,1.033273,2.178009,1.933417,2.450991,3.068754,-0.313697,-0.858979,0.404659,0.422874,-0.852080,-0.249355,-29.762604,-50.204514,-0.376770,,,,,,
1478385465.12,-2.390461,0.957443,2.127759,2.030272,2.485476,3.780587,-0.392836,-0.817722,0.420725,0.702468,-1.175930,-0.502726,-31.707520,-48.929092,0.049927,,,,,,
1478385465.14,-2.296224,0.868326,2.083005,2.253900,3.406924,4.291011,-0.483426,-0.763249,0.428662,0.782743,-1.655208,-0.511593,-31.707520,-48.929092,0.049927,,,,,,
1478385465.16,-2.198413,0.767624,2.070443,3.088051,4.901706,4.011305,-0.582435,-0.694427,0.422540,1.843711,-1.796082,-0.758920,-34.325150,-47.053375,0.768127,,,,,,
1478385465.18,-2.117652,0.675296,2.084319,2.945825,3.780465,3.365852,-0.666694,-0.625128,0.405875,2.191672,-2.060739,-0.798346,-35.359940,-43.979294,-0.151428,,,,,,
1478385465.20,-2.096484,0.589080,2.085947,1.705982,-0.813017,4.143828,-0.719189,-0.555596,0.417230,1.724896,-1.570945,-0.100137,-35.491837,-40.455811,-1.663391,,,,,,
1478385465.22,-2.161543,0.498366,2.055092,1.032090,-5.377691,4.477336,-0.729504,-0.477991,0.489232,1.040081,-1.072897,0.329096,-40.119659,-34.603012,1.122864,,,,,,
1478385465.24,-2.242430,0.449525,2.020973,-0.201339,-3.851688,1.563664,-0.705037,-0.434538,0.560446,0.685353,-0.805818,-0.151525,-40.119659,-34.603012,1.122864,,,,,,
1478385465.26,-2.277999,0.461041,2.017421,-0.663670,-0.889943,-1.193002,-0.680811,-0.444880,0.581874,0.921824,-0.188603,-0.169383,-42.137619,-31.749146,4.994080,,,,,,
1478385465.28,-2.280304,0.501693,2.022393,-1.541145,0.343171,-1.850353,-0.665190,-0.480911,0.571181,0.774870,0.048339,-0.281248,-41.913177,-31.297424,6.720032,,,,,,
1478385465.30,-2.270055,0.568587,2.021980,-2.495350,0.643565,-3.114061,-0.644906,-0.538442,0.542380,0.782068,0.213689,-0.521353,-40.717926,-32.422638,6.510315,,,,,,
1478385465.32,-2.257053,0.664905,2.030067,-3.027483,0.925464,-4.271313,-0.608823,-0.616984,0.498663,0.921262,0.475276,-0.362509,-38.032730,-37.001495,2.650940,,,,,,
1478385465.34,-2.250700,0.780284,2.039417,-3.568962,0.354573,-4.993942,-0.552675,-0.703481,0.446838,0.832002,0.485189,-0.456421,-38.032730,-37.001495,2.650940,,,,,,
1478385465.36,-2.266854,0.914222,2.055532,-3.992752,-0.435146,-5.848384,-0.468412,-0.792088,0.391392,0.616803,0.371159,-0.293171,-33.992508,-40.079208,-0.074463,,,,,,
1478385465.38,-2.307844,1.066686,2.091745,-4.410216,-0.570178,-6.748025,-0.357662,-0.875605,0.324646,0.276912,0.087915,-0.045410,-30.624786,-42.632019,-2.883118,,,,,,
1478385465.40,-2.405793,1.234968,2.186974,-4.639014,-0.416503,-7.657228,-0.221189,-0.944138,0.244295,-0.150607,-0.195511,0.188612,-25.306076,-45.110260,-6.122437,,,,,,
1478385465.42,-2.761497,1.397718,2.543606,-4.307742,-0.676025,-8.224697,-0.063894,-0.985059,0.159925,-0.412364,-0.486376,0.075244,-20.207977,-46.688736,-9.591797,,,,,,
1478385465.44,2.197048,1.445224,-2.427291,-4.336172,-1.371365,-8.092038,0.101475,-0.992126,0.073406,-0.665700,-1.165879,0.465031,-20.207977,-46.688736,-9.591797,,,,,,
1478385465.46,1.523296,1.320219,-1.782214,-3.669684,-2.290470,-6.810232,0.247683,-0.968770,-0.011774,-1.319949,-2.095729,1.062677,-6.695618,-46.471329,-17.182312,,,,,,
1478385465.48,1.327003,1.206558,-1.651316,-2.106821,-4.459278,-4.390298,0.345704,-0.934395,-0.085991,-1.834763,-1.151527,1.246742,-1.207428,-44.599503,-20.358032,,,,,,
1478385465.50,1.225067,1.159480,-1.636703,-0.021447,-3.833869,-0.571750,0.376159,-0.916595,-0.135491,-2.999785,0.201340,2.422585,-0.071869,-43.102036,-22.901184,,,,,,
,,,,,,,,,,,,,,,,37.354411,-122.033463,36.737854,1.390000,265.781250,1478385555.00
1478385465.52,1.216748,1.208460,-1.678889,2.307728,-1.877522,3.192119,0.332475,-0.935071,-0.122890,-2.703447,0.315107,1.938046,-2.095612,-43.027664,-23.521606,,,,,,
1478385465.54,1.264302,1.299015,-1.766867,2.878736,-1.879791,3.895060,0.255937,-0.963294,-0.080996,-2.005205,-0.174737,1.611757,-2.095612,-43.027664,-23.521606,,,,,,
1478385465.56,1.392614,1.372092,-1.901799,1.877058,2.575793,2.011261,0.194274,-0.980323,-0.034987,-0.785857,-0.426797,0.701216,-7.584808,-45.199707,-20.570007,,,,,,
1478385465.58,1.752616,1.370704,-2.154877,2.613970,3.904922,0.491561,0.195483,-0.980048,0.035940,1.310865,-2.358590,-1.672964,-9.389160,-45.497711,-18.562134,,,,,,
1478385465.60,2.066099,1.415354,-2.499965,2.415597,-3.162759,4.817047,0.136212,-0.987943,0.073584,-2.420743,-0.336901,0.228768,-6.996857,-46.696182,-17.034668,,,,,,
1478385465.62,2.665635,1.441074,3.139938,2.182862,-1.283519,2.218066,0.059271,-0.991598,0.114982,0.296915,0.393224,0.773294,-10.227066,-47.219254,-15.115417,,,,,,
1478385465.64,2.850185,1.416666,2.920570,1.464724,-1.436069,1.107375,0.044107,-0.988145,0.147048,-0.906472,-0.003554,0.902268,-10.227066,-47.219254,-15.115417,,,,,,
1478385465.66,3.077775,1.397611,2.695810,1.213912,1.546711,1.560676,0.010990,-0.985041,0.171970,-1.116275,0.195536,0.832821,-15.712662,-48.114883,-10.742554,,,,,,
1478385465.68,-3.040187,1.374511,2.590747,1.020346,3.343489,0.709476,-0.019743,-0.980798,0.194026,-0.137972,0.036202,0.577917,-16.988434,-48.189606,-10.455139,,,,,,
1478385465.70,-2.971253,1.359780,2.545525,0.508828,-0.262390,0.590756,-0.035506,-0.977819,0.206422,0.156661,-0.389094,-0.582612,-17.666458,-48.563705,-9.560730,,,,,,
1478385465.72,-2.941705,1.347592,2.487927,0.493829,-1.481531,0.731613,-0.043952,-0.975193,0.216948,-0.081963,0.022587,-0.298842,-17.669601,-49.088181,-9.034180,,,,,,
1478385465.74,-2.906681,1.333917,2.441494,0.602055,0.222365,0.585841,-0.054621,-0.972075,0.228225,-0.215154,-0.064103,0.144914,-17.669601,-49.088181,-9.034180,,,,,,
1478385465.76,-2.862842,1.319071,2.418767,0.675540,1.462801,0.422707,-0.068534,-0.968484,0.239461,-0.003609,0.006158,0.096964,-19.096497,-49.312592,-8.447815,,,,,,
1478385465.78,-2.815180,1.303114,2.399632,0.684756,1.296495,0.522697,-0.084810,-0.964386,0.250531,0.384325,-0.081451,-0.085874,-21.352661,-50.135956,-6.817871,,,,,,
1478385465.80,-2.768066,1.285169,2.369060,0.731935,0.687736,0.822400,-0.102815,-0.959485,0.262331,0.501725,0.003980,-0.110720,-21.278107,-50.135666,-6.517151,,,,,,
1478385465.82,-2.725368,1.262057,2.333592,0.941200,0.288074,0.977654,-0.122853,-0.952717,0.277915,0.595341,0.194676,-0.040244,-22.480225,-50.510376,-6.228027,,,,,,
1478385465.84,-2.687726,1.233128,2.293691,1.080212,-0.023823,1.355260,-0.145251,-0.943530,0.297748,0.623767,0.093890,0.130185,-22.480225,-50.510376,-6.228027,,,,,,
1478385465.86,-2.628621,1.197649,2.247297,1.287985,1.399142,1.592349,-0.178909,-0.931184,0.317627,0.069534,-0.121382,0.341308,-23.382462,-50.659332,-5.186584,,,,,,
1478385465.88,-2.550134,1.155753,2.209094,1.445055,2.360049,1.853824,-0.224830,-0.915099,0.334732,0.158591,-0.322786,-0.023819,-27.436325,-50.882416,-3.276489,,,,,,
1478385465.90,-2.469374,1.105989,2.167585,1.502400,2.016758,2.397874,-0.279136,-0.893908,0.350730,0.394386,-0.625410,-0.317893,-28.410645,-50.581970,-2.837097,,,,,,
1478385465.92,-2.391146,1.045599,2.122046,1.627449,1.870298,3.050495,-0.341927,-0.865225,0.366704,0.381462,-0.758371,-0.445867,-30.508682,-49.906250,-2.110107,,,,,,
1478385465.94,-2.317122,0.972050,2.075048,1.745430,1.625104,3.747705,-0.413794,-0.826043,0.382659,0.522940,-1.086647,-0.596084,-30.508682,-49.906250,-2.110107,,,,,,
1478385465.96,-2.247497,0.885680,2.031535,1.902957,1.931190,4.308675,-0.493330,-0.774345,0.396252,0.721494,-1.460899,-0.550457,-32.527908,-48.556046,-1.909363,,,,,,
1478385465.98,-2.170076,0.788685,2.009066,2.664591,3.884040,4.253403,-0.581966,-0.709427,0.397529,1.659206,-1.951462,-0.399574,-35.522461,-47.130417,-1.268677,,,,,,
1478385466.00,-2.089207,0.695786,2.016975,2.704936,4.230657,3.510805,-0.666700,-0.640989,0.380321,2.541685,-1.989367,-0.403225,-37.669357,-41.206345,-2.207825,,,,,,
1478385466.02,-2.043973,0.613460,2.035025,2.195169,1.707448,3.354466,-0.727820,-0.575700,0.372622,1.572974,-1.327971,-0.338259,-37.200470,-37.532928,-3.789185,,,,,,
1478385466.04,-2.065985,0.522691,2.027866,1.753520,-3.387941,4.655978,-0.762397,-0.499213,0.411748,1.045631,-1.197686,0.181864,-37.200470,-37.532928,-3.789185,,,,,,
1478385466.06,-2.150674,0.441923,2.002761,0.539154,-4.750279,3.190653,-0.756165,-0.427678,0.495283,0.505585,-0.917399,0.122377,-38.840988,-35.132050,-2.912720,,,,,,
1478385466.08,-2.208143,0.424972,1.988873,-0.311633,-2.142880,-0.075164,-0.732191,-0.412295,0.542134,0.762342,-0.522412,-0.178029,-42.130203,-31.528427,0.718567,,,,,,
1478385466.10,-2.232219,0.453033,1.992407,-0.948467,-0.657451,-1.659861,-0.709516,-0.437694,0.552278,0.710859,-0.057469,-0.218400,-42.728714,-29.724014,5.132080,,,,,,
1478385466.12,-2.237235,0.502039,1.994388,-1.803286,-0.127519,-2.231496,-0.689035,-0.481214,0.541907,0.720315,0.144529,-0.354011,-41.536514,-31.524216,4.924438,,,,,,
1478385466.14,-2.244455,0.578500,1.994545,-2.653268,-0.430748,-3.497753,-0.654375,-0.546768,0.522339,0.796770,0.386551,-0.459610,-41.536514,-31.524216,4.924438,,,,,,
1478385466.16,-2.257431,0.679082,2.000805,-3.129258,-0.563304,-4.350478,-0.601808,-0.628079,0.493299,0.834794,0.444669,-0.532422,-40.944962,-33.700104,4.036926,,,,,,
1478385466.18,-2.283600,0.795630,2.012128,-3.617245,-1.154060,-4.966226,-0.529447,-0.714305,0.457662,0.754148,0.251078,-0.485571,-38.029800,-36.401642,2.499084,,,,,,
1478385466.20,-2.328292,0.928149,2.033558,-4.132670,-1.526934,-5.646597,-0.435439,-0.800512,0.411793,0.405059,0.120138,-0.294850,-34.965790,-39.403336,0.813782,,,,,,
1478385466.22,-2.394706,1.077505,2.078116,-4.662965,-1.290303,-6.395833,-0.321694,-0.880779,0.347478,0.000817,-0.094227,-0.069936,-27.405930,-44.358109,-3.970764,,,,,,
1478385466.24,-2.514638,1.239421,2.187329,-4.971287,-0.804176,-7.053179,-0.190873,-0.945596,0.263469,-0.268844,-0.354987,0.052632,-27.405930,-44.358109,-3.970764,,,,,,
1478385466.26,-2.866860,1.396295,2.537574,-5.095399,-0.475910,-7.405072,-0.047101,-0.984813,0.167106,-0.610492,-0.588536,0.186379,-21.784622,-46.236282,-7.133911,,,,,,
1478385466.28,2.177928,1.449663,-2.503145,-4.793360,-0.234594,-7.219045,0.099242,-0.992672,0.068940,-1.062453,-0.906040,0.678528,-15.481033,-46.840485,-11.344055,,,,,,
1478385466.30,1.495297,1.339280,-1.820036,-3.920942,-0.674617,-6.094758,0.228800,-0.973319,-0.017307,-1.536723,-1.713463,1.076054,-8.948395,-46.544693,-15.554626,,,,,,
1478385466.32,1.305425,1.232051,-1.670536,-2.281700,-3.608182,-4.114848,0.320672,-0.943172,-0.087153,-1.740411,-0.912937,1.183603,-1.876801,-43.851013,-21.867004,,,,,,
1478385466.34,1.186444,1.182573,-1.644412,-0.554593,-4.820761,-0.934486,0.350926,-0.925583,-0.141939,-2.421254,0.229386,2.205385,-1.876801,-43.851013,-21.867004,,,,,,
1478385466.36,1.126043,1.212076,-1.650050,1.566529,-2.301301,2.421365,0.316922,-0.936347,-0.151045,-2.860044,0.081443,2.249830,-2.846512,-43.177521,-23.378723,,,,,,
1478385466.38,1.143035,1.296196,-1.703207,2.915753,-1.421918,3.971070,0.246730,-0.962534,-0.112488,-2.018321,0.152429,2.198211,-5.324936,-43.701797,-22.651917,,,,,,
1478385466.40,1.245300,1.368763,-1.768297,1.230266,6.059481,0.920209,0.190126,-0.979661,-0.064167,0.702559,-1.593215,0.007420,-8.555969,-44.525253,-21.106750,,,,,,
1478385466.42,1.584237,1.369081,-2.012147,2.025920,1.871085,0.314961,0.200332,-0.979724,0.002693,0.891114,-1.096798,-0.926002,-10.738022,-45.423248,-19.100830,,,,,,
1478385466.44,1.905246,1.422592,-2.369096,2.641562,-2.752467,5.049245,0.139480,-0.989038,0.048470,-2.280944,-0.065528,0.382087,-10.738022,-45.423248,-19.100830,,,,,,
1478385466.46,2.454151,1.456279,-2.962671,1.934426,-1.835227,1.571755,0.072510,-0.993450,0.088314,-0.336471,-0.291325,0.355701,-10.074738,-46.769485,-15.340149,,,,,,
1478385466.48,2.642272,1.437560,3.092108,1.392980,-1.450445,0.811155,0.063609,-0.991137,0.116623,-0.699977,0.401477,1.138122,-13.680054,-47.292496,-13.349731,,,,,,
1478385466.50,2.896363,1.422982,2.849325,1.256719,2.010742,1.257424,0.035756,-0.989095,0.142870,-1.145924,0.139028,0.765256,-15.260437,-47.890701,-11.563782,,,,,,
1478385466.52,3.053363,1.403480,2.748112,0.901955,2.556206,0.311685,0.014674,-0.986035,0.165889,0.055028,-0.197528,0.286092,-16.913879,-48.189301,-10.154297,,,,,,
,,,,,,,,,,,,,,,,37.354403,-122.033501,38.102295,2.680000,232.031250,1478385556.00
1478385466.54,3.096823,1.392086,2.713646,0.470198,-0.616651,0.327848,0.007956,-0.984074,0.177582,0.205271,-0.286373,-0.537003,-16.913879,-48.189301,-10.154297,,,,,,
1478385466.56,3.112315,1.384375,2.678521,0.391702,-0.744562,0.275007,0.005426,-0.982674,0.185264,-0.338754,-0.004692,-0.052543,-16.392151,-48.713684,-9.547546,,,,,,
1478385466.58,-3.130866,1.374392,2.649627,0.572267,1.371810,0.243748,-0.002093,-0.980775,0.195133,-0.084821,-0.088500,0.206067,-17.069839,-49.163239,-9.102966,,,,,,
1478385466.60,-3.075245,1.361420,2.626554,0.659367,1.504788,0.360723,-0.013780,-0.978161,0.207392,0.582933,0.057629,-0.046641,-18.123199,-49.612350,-8.212219,,,,,,
1478385466.62,-3.003598,1.345977,2.572590,0.758670,0.665478,0.818008,-0.030666,-0.974834,0.220811,0.647456,0.000011,-0.114717,-18.198196,-49.537125,-7.988159,,,,,,
1478385466.64,-2.918291,1.324576,2.497100,0.987304,0.632263,1.181578,-0.053976,-0.969841,0.237688,0.446204,0.128013,-0.060900,-18.198196,-49.537125,-7.988159,,,,,,
1478385466.66,-2.833875,1.296748,2.424203,1.150178,0.729421,1.313545,-0.081970,-0.962683,0.257919,0.352447,0.066733,0.019181,-18.501114,-49.986526,-7.389832,,,,,,
1478385466.68,-2.755854,1.264911,2.359703,1.201022,0.889338,1.463652,-0.113301,-0.953581,0.279010,-0.049190,-0.119860,-0.008121,-21.354782,-50.284988,-5.842468,,,,,,
1478385466.70,-2.679471,1.229090,2.301311,1.296362,1.159138,1.686792,-0.149402,-0.942184,0.299946,0.102695,-0.066803,-0.072285,-23.158813,-50.733658,-4.509216,,,,,,
1478385466.72,-2.603269,1.186312,2.246043,1.470363,1.203197,2.015222,-0.192303,-0.926992,0.322033,0.215969,-0.179606,-0.224606,-24.509781,-50.657761,-3.622925,,,,,,
1478385466.74,-2.530793,1.135770,2.191254,1.551256,1.112952,2.474536,-0.241702,-0.906859,0.345235,0.261722,-0.413316,-0.209493,-24.509781,-50.657761,-3.622925,,,,,,
1478385466.76,-2.457757,1.077518,2.141566,1.724527,1.671455,2.722111,-0.299154,-0.880785,0.367049,0.286840,-0.582838,-0.146758,-26.084976,-50.356735,-2.589539,,,,,,
1478385466.78,-2.382019,1.011010,2.096247,1.735643,1.804395,3.305854,-0.365657,-0.847369,0.385047,0.530360,-0.927488,-0.352409,-30.806976,-49.079910,-0.765625,,,,,,
1478385466.80,-2.307650,0.933194,2.049619,1.850200,1.915608,3.914292,-0.440849,-0.803525,0.399999,0.708320,-1.196932,-0.452031,-32.372940,-46.979630,-0.487610,,,,,,
1478385466.82,-2.226980,0.843980,2.016898,2.242923,3.434786,4.116812,-0.526496,-0.747294,0.405406,0.854346,-1.605092,-0.381663,-34.841141,-45.404434,-0.291931,,,,,,
1478385466.84,-2.132117,0.751423,2.012589,2.629308,4.955711,3.664383,-0.618592,-0.682679,0.388965,2.146057,-2.322524,-0.625384,-34.841141,-45.404434,-0.291931,,,,,,
1478385466.86,-2.066307,0.669391,2.026519,2.331069,2.774724,3.236907,-0.689881,-0.620508,0.372872,2.015366,-1.584326,-0.456475,-36.177277,-42.555130,-0.988892,,,,,,
1478385466.88,-2.064014,0.581391,2.025979,1.825846,-2.138573,4.429732,-0.736096,-0.549187,0.395673,1.882199,-1.382088,0.015628,-36.384262,-39.106796,-2.651245,,,,,,
1478385466.90,-2.146541,0.494205,1.997802,0.703948,-5.595282,3.947097,-0.738423,-0.474332,0.479313,0.683781,-1.246661,0.034191,-39.887009,-33.479752,-0.603210,,,,,,
1478385466.92,-2.225067,0.456945,1.971971,-0.200959,-3.241754,0.974304,-0.712083,-0.441209,0.546143,0.458558,-0.678542,-0.170899,-42.131302,-30.624969,4.165833,,,,,,
1478385466.94,-2.243700,0.476063,1.973562,-0.708340,0.215749,-1.627223,-0.695060,-0.458283,0.553957,0.747108,-0.019363,-0.104494,-42.131302,-30.624969,4.165833,,,,,,
1478385466.96,-2.225239,0.524225,1.984904,-1.375380,1.556321,-2.376865,-0.686845,-0.500542,0.526974,0.692186,0.189476,-0.282711,-41.980865,-29.948242,5.890259,,,,,,
1478385466.98,-2.196699,0.591797,1.986086,-2.307913,1.344682,-3.097050,-0.672612,-0.557854,0.486203,0.882512,0.278999,-0.457165,-41.461075,-31.298843,5.299500,,,,,,
1478385467.00,-2.180337,0.686076,1.986507,-2.953099,0.349741,-4.267626,-0.634396,-0.633506,0.442958,1.153698,0.470481,-0.412990,-37.798187,-35.503372,0.773804,,,,,,
1478385467.02,-2.191602,0.801286,1.984032,-3.667989,-1.208236,-4.847967,-0.565957,-0.718252,0.404731,0.896829,0.450460,-0.373038,-35.183609,-38.505432,-1.291138,,,,,,
1478385467.04,-2.221768,0.933201,1.979538,-4.248790,-1.776349,-5.504415,-0.473531,-0.803530,0.360706,0.502507,0.435488,-0.119022,-35.183609,-38.505432,-1.291138,,,,,,
1478385467.06,-2.259811,1.083233,1.986144,-4.673615,-1.553489,-6.278078,-0.361603,-0.883477,0.297845,0.208359,0.289132,0.094107,-31.442459,-40.981964,-2.821228,,,,,,
1478385467.08,-2.331119,1.248586,2.029448,-4.900651,-1.557354,-7.065911,-0.229459,-0.948538,0.218231,-0.097125,-0.095331,0.233139,-28.300293,-43.609619,-5.481934,,,,,,
1478385467.10,-2.610138,1.418221,2.282526,-4.614821,-1.701136,-7.845757,-0.077024,-0.988383,0.131021,-0.327777,-0.621648,0.376120,-22.451950,-45.037781,-8.644165,,,,,,
1478385467.12,2.006765,1.475474,-2.366748,-4.689909,-1.948867,-8.014313,0.086275,-0.995460,0.040193,-0.698931,-1.600426,0.951675,-10.520203,-46.020233,-16.096863,,,,,,
1478385467.14,1.354242,1.333922,-1.742979,-3.755975,-1.865058,-6.651287,0.229185,-0.972076,-0.050422,-1.361097,-2.005539,1.481040,-10.520203,-46.020233,-16.096863,,,,,,
1478385467.16,1.244651,1.216726,-1.677595,-1.713645,-2.560830,-4.523487,0.328441,-0.937969,-0.111087,-2.084346,-0.392674,1.853183,-6.158447,-44.448349,-19.208008,,,,,,
1478385467.18,1.225471,1.184048,-1.702437,1.060979,-1.783988,0.321293,0.354913,-0.926140,-0.127676,-3.212609,0.515084,2.356863,-3.077118,-43.850800,-21.653992,,,,,,
1478385467.20,1.271044,1.253160,-1.778225,2.899770,-1.146032,3.838151,0.298395,-0.949976,-0.092223,-2.284784,0.019831,1.739654,-3.149963,-43.626541,-22.405334,,,,,,
1478385467.22,1.385938,1.346998,-1.925585,2.764967,-0.920169,3.938969,0.218154,-0.975061,-0.040793,-2.060347,-0.254476,1.335700,-8.640869,-45.797470,-18.328796,,,,,,
1478385467.24,1.689805,1.362775,-2.137484,3.420088,5.883135,-0.417434,0.205064,-0.978441,0.024520,1.824904,-3.311613,-2.304183,-8.640869,-45.797470,-18.328796,,,,,,
1478385467.26,1.982918,1.393956,-2.449346,2.561854,-3.894914,4.120612,0.161190,-0.984405,0.070465,-2.011059,-0.452973,0.551437,-7.972626,-46.846115,-16.968933,,,,,,
1478385467.28,2.680615,1.440614,3.068568,2.453789,-1.646693,4.407603,0.057745,-0.991538,0.116264,-0.704305,0.292670,0.769127,-8.504349,-47.669083,-14.946838,,,,,,
1478385467.30,2.950958,1.411031,2.772171,1.889904,-1.232025,0.888380,0.030144,-0.987265,0.156205,-0.602227,0.448690,0.787719,-14.209427,-47.740921,-11.778687,,,,,,
1478385467.32,-3.132990,1.385034,2.568950,1.337885,0.959447,1.922339,-0.001589,-0.982796,0.184689,-0.929350,0.004646,0.722995,-16.238449,-47.963913,-9.773254,,,,,,
1478385467.34,-2.965189,1.356032,2.450686,1.242849,3.163073,0.885455,-0.037400,-0.977027,0.209810,-0.286498,0.198966,0.635695,-16.238449,-47.963913,-9.773254,,,,,,
1478385467.36,-2.893024,1.338073,2.412496,0.531584,0.598392,0.536336,-0.056738,-0.973042,0.223540,0.322531,-0.478420,-0.244933,-18.718460,-48.336685,-7.546936,,,,,,
1478385467.38,-2.873164,1.329663,2.373285,0.193077,-1.429961,0.570767,-0.063335,-0.971068,0.230251,-0.194676,0.057112,-0.206249,-18.870590,-48.786621,-7.472168,,,,,,
1478385467.40,-2.852449,1.322350,2.336916,0.282102,-0.036419,0.445477,-0.070113,-0.969296,0.235691,-0.280030,0.005734,0.312451,-19.546692,-48.710648,-6.504089,,,,,,
1478385467.42,-2.830955,1.314747,2.332456,0.378512,1.235056,0.015362,-0.077413,-0.967398,0.241139,-0.208033,-0.078424,0.080806,-20.972687,-48.785202,-6.068115,,,,,,
1478385467.44,-2.811825,1.306242,2.343760,0.486304,1.516476,0.046240,-0.084673,-0.965209,0.247390,0.112169,-0.151017,-0.110519,-20.972687,-48.785202,-6.068115,,,,,,
1478385467.46,-2.782166,1.294234,2.335955,0.561738,0.800623,0.483524,-0.096042,-0.962000,0.255602,0.539691,-0.085562,-0.251314,-20.524719,-49.159973,-5.837524,,,,,,
1478385467.48,-2.743245,1.276320,2.302937,0.729522,0.187587,0.923387,-0.112583,-0.956954,0.267514,0.527316,0.218536,-0.116421,-20.600403,-49.234756,-5.613098,,,,,,
1478385467.50,-2.694983,1.251083,2.257309,0.954285,0.354775,1.270407,-0.135747,-0.949326,0.283467,0.423329,0.103622,0.074626,-21.352646,-49.534164,-5.019714,,,,,,
,,,,,,,,,,,,,,,,37.354390,-122.033525,38.068939,2.680000,232.382812,1478385557.00
1478385467.52,-2.636929,1.218356,2.210591,1.201975,0.958351,1.516099,-0.166904,-0.938533,0.302157,0.301151,-0.099858,0.082456,-23.604843,-49.607910,-3.767029,,,,,,
1478385467.54,-2.570740,1.177813,2.170282,1.443071,1.640199,1.795115,-0.206925,-0.923771,0.322226,0.253052,-0.128079,-0.086829,-23.604843,-49.607910,-3.767029,,,,,,
1478385467.56,-2.496942,1.129538,2.126988,1.493671,1.705963,2.281516,-0.256639,-0.904215,0.341367,0.295991,-0.471441,-0.177823,-24.355179,-49.532471,-3.324707,,,,,,
1478385467.58,-2.422475,1.074036,2.082751,1.557866,1.803683,2.669734,-0.313933,-0.879131,0.358573,0.355788,-0.645878,-0.214270,-27.654663,-49.006226,-2.084290,,,,,,
1478385467.60,-2.348216,1.009371,2.038906,1.609972,1.789767,3.274513,-0.379450,-0.846497,0.373443,0.449458,-0.878021,-0.394027,-30.351364,-48.030502,-1.364197,,,,,,
1478385467.62,-2.274462,0.932612,1.994373,1.715696,2.011233,3.914223,-0.454236,-0.803179,0.385453,0.664853,-1.247084,-0.420670,-32.521164,-46.755157,-1.014709,,,,,,
1478385467.64,-2.191126,0.845019,1.959190,1.982149,3.424424,4.216664,-0.540058,-0.747984,0.385821,1.012195,-2.077120,-0.339343,-32.521164,-46.755157,-1.014709,,,,,,
1478385467.66,-2.101998,0.752704,1.953529,2.507685,4.394779,3.725568,-0.629270,-0.683615,0.369716,2.285077,-2.310632,-0.548213,-34.162338,-44.654724,-0.587402,,,,,,
1478385467.68,-2.033632,0.670658,1.962798,2.017390,3.057398,3.496667,-0.700990,-0.621502,0.349784,2.002473,-1.615223,-0.248511,-36.230560,-38.507462,-3.326538,,,,,,
1478385467.70,-2.046202,0.576706,1.960487,1.797976,-3.573260,4.753741,-0.745306,-0.545265,0.383673,2.130575,-1.203255,0.151056,-37.566589,-35.733459,-4.323242,,,,,,
1478385467.72,-2.144994,0.494336,1.928651,0.262266,-5.959354,3.444237,-0.739112,-0.474447,0.478136,0.431388,-1.021280,-0.157854,-40.032867,-32.805496,-1.356750,,,,,,
1478385467.74,-2.214212,0.479511,1.913963,-0.243820,-2.193835,-0.438548,-0.709822,-0.461345,0.532272,0.748702,-0.484959,-0.189132,-40.032867,-32.805496,-1.356750,,,,,,
1478385467.76,-2.229121,0.514771,1.929705,-0.771607,0.355873,-2.293644,-0.688507,-0.492336,0.532507,0.964447,0.054760,-0.227789,-42.353745,-30.250580,3.562439,,,,,,
1478385467.78,-2.223615,0.573548,1.941026,-1.788756,0.316506,-2.948328,-0.667260,-0.542616,0.510228,0.975151,0.197828,-0.644093,-42.355423,-30.174225,4.912170,,,,,,
1478385467.80,-2.235740,0.664412,1.954498,-2.638019,-0.333509,-4.480505,-0.619551,-0.616596,0.485763,1.014296,0.398335,-0.378646,-39.445679,-34.150986,3.153198,,,,,,
1478385467.82,-2.252989,0.779841,1.972587,-3.333797,-0.275845,-5.152526,-0.551892,-0.703166,0.448299,0.670209,0.312892,-0.317348,-36.233902,-37.527298,1.845459,,,,,,
1478385467.84,-2.274840,0.913370,1.993442,-3.929391,-0.253545,-5.868276,-0.465785,-0.791568,0.395556,0.377605,0.243335,-0.235491,-36.233902,-37.527298,1.845459,,,,,,
1478385467.86,-2.307274,1.064544,2.032563,-4.336730,0.123145,-6.722686,-0.359235,-0.874568,0.325701,0.070310,0.168666,-0.084704,-33.094101,-40.529510,-0.364136,,,,,,
1478385467.88,-2.391697,1.232021,2.125767,-4.580492,-0.033881,-7.647820,-0.226506,-0.943162,0.243188,-0.162624,-0.022704,-0.033379,-28.528290,-43.457153,-3.009705,,,,,,
1478385467.90,-2.728372,1.396040,2.461789,-4.246665,-1.050285,-8.152194,-0.069819,-0.984769,0.159234,-0.210424,-0.381167,-0.059823,-16.532471,-46.989975,-10.829163,,,,,,
1478385467.92,2.244048,1.448534,-2.552234,-4.116934,-3.466575,-7.865867,0.095346,-0.992535,0.076044,-0.588937,-1.328922,0.492239,-10.003326,-47.143204,-14.063416,,,,,,
1478385467.94,1.505739,1.330844,-1.893052,-3.660988,-4.763568,-6.440161,0.237154,-0.971349,-0.015450,-1.364504,-2.194438,1.263818,-10.003326,-47.143204,-14.063416,,,,,,
1478385467.96,1.270965,1.223733,-1.754644,-2.419943,-5.247218,-3.992645,0.324963,-0.940376,-0.100463,-2.313152,-0.933877,1.938796,-4.893051,-45.946457,-17.315857,,,,,,
1478385467.98,1.178207,1.171977,-1.738824,-0.221963,-2.706253,-1.182565,0.358787,-0.921520,-0.148568,-3.071525,0.517010,2.959512,-3.457489,-44.524216,-20.080811,,,,,,
1478385468.00,1.206973,1.206697,-1.790561,2.399678,-0.310118,2.501823,0.332799,-0.934445,-0.126721,-2.585392,0.310116,2.308697,-4.730362,-44.450439,-21.293701,,,,,,
1478385468.02,1.309518,1.289265,-1.901806,3.127429,-0.166082,3.611439,0.268397,-0.960631,-0.071767,-2.034099,-0.143907,1.791600,-6.536499,-45.198578,-19.434509,,,,,,
1478385468.04,1.499054,1.354337,-2.048976,1.403313,6.185156,1.457013,0.214220,-0.976664,-0.015395,0.276609,-1.322561,0.105666,-6.536499,-45.198578,-19.434509,,,,,,
1478385468.06,1.850765,1.344987,-2.278467,2.154993,2.376543,0.767259,0.215178,-0.974613,0.061868,1.723085,-2.467373,-2.061624,-8.119247,-45.945663,-16.523132,,,,,,
1478385468.08,2.105900,1.388310,-2.601663,2.644564,-5.040880,4.900664,0.156108,-0.983396,0.092540,-2.443949,0.766904,-0.023677,-6.326340,-47.219742,-15.601379,,,,,,
1478385468.10,2.576292,1.416866,3.134063,2.190397,-2.245329,2.253603,0.082131,-0.988176,0.129470,-0.242668,0.080400,0.760956,-7.984543,-48.417877,-13.739380,,,,,,
1478385468.12,2.730122,1.392841,2.947870,1.614520,-0.772011,0.797189,0.070799,-0.984208,0.162242,-0.735686,-0.092361,1.286885,-14.591614,-48.337921,-8.780640,,,,,,
1478385468.14,2.961264,1.374711,2.744752,1.365892,3.040468,1.653435,0.034944,-0.980837,0.191672,-0.834687,0.648561,0.897958,-14.591614,-48.337921,-8.780640,,,,,,
1478385468.16,-3.132904,1.350407,2.633139,1.139144,3.509055,0.663902,-0.001899,-0.975812,0.218601,0.160591,-0.139452,0.056118,-16.696854,-49.086670,-7.524475,,,,,,
1478385468.18,-3.080435,1.337149,2.594304,0.449471,-0.702172,0.486580,-0.014151,-0.972828,0.231094,0.216772,-0.549617,-0.547104,-16.544830,-48.636673,-7.524292,,,,,,
1478385468.20,-3.066886,1.328821,2.546997,0.381294,-1.630464,0.604640,-0.017885,-0.970867,0.238952,-0.341048,0.151348,-0.086181,-16.322098,-48.936066,-6.921204,,,,,,
1478385468.22,-3.032169,1.317869,2.508166,0.582966,0.796667,0.407599,-0.027328,-0.968184,0.248743,-0.271546,-0.073183,0.355414,-18.503128,-49.684280,-5.140747,,,,,,
1478385468.24,-2.990760,1.305337,2.497813,0.609118,1.821688,0.181822,-0.039421,-0.964972,0.259374,0.098519,-0.116220,0.105616,-18.503128,-49.684280,-5.140747,,,,,,
1478385468.26,-2.942192,1.291776,2.478163,0.623682,1.117543,0.546379,-0.054554,-0.961326,0.269957,0.506474,-0.070596,-0.192244,-19.177124,-49.384064,-4.923401,,,,,,
1478385468.28,-2.886423,1.274939,2.431945,0.726954,0.352552,0.970755,-0.073592,-0.956553,0.282120,0.492004,0.040506,-0.149017,-18.806168,-50.208832,-4.692200,,,,,,
1478385468.30,-2.826790,1.252481,2.376570,0.910350,0.402775,1.187033,-0.096904,-0.949764,0.297587,0.289118,0.104580,0.012304,-19.931824,-50.208389,-4.253479,,,,,,
1478385468.32,-2.764114,1.224676,2.321706,1.058106,0.602252,1.402592,-0.125040,-0.940696,0.315366,0.337366,-0.033318,0.034518,-20.983597,-50.282425,-3.288757,,,,,,
1478385468.34,-2.701206,1.191441,2.269044,1.230376,0.778937,1.578599,-0.157864,-0.928904,0.334988,0.283932,-0.108419,0.003940,-20.983597,-50.282425,-3.288757,,,,,,
1478385468.36,-2.635908,1.151235,2.223984,1.472525,1.432226,1.789159,-0.197328,-0.913267,0.356376,0.102540,-0.139436,-0.144920,-23.384354,-49.981033,-1.888672,,,,,,
1478385468.37,-2.563535,1.103925,2.177946,1.525162,1.518043,2.256388,-0.245931,-0.892981,0.376966,0.152685,-0.458780,-0.270017,-25.034546,-49.604782,-0.631287,,,,,,
1478385468.39,-2.490220,1.049390,2.129863,1.623461,1.599603,2.621115,-0.301988,-0.867120,0.396115,0.230409,-0.651420,-0.318158,-26.909286,-49.379272,-0.125671,,,,,,
1478385468.41,-2.417566,0.985973,2.084871,1.730272,1.775256,3.177364,-0.365683,-0.833810,0.413566,0.428198,-0.841895,-0.410942,-29.382324,-48.628326,0.822327,,,,,,
1478385468.43,-2.340480,0.910810,2.039635,1.889228,2.291420,3.726092,-0.440290,-0.790001,0.426665,0.691129,-1.320396,-0.379363,-29.382324,-48.628326,0.822327,,,,,,
1478385468.45,-2.252676,0.825721,2.010298,2.341845,4.005669,3.803179,-0.526413,-0.735037,0.427329,1.070816,-1.845102,-0.371436,-33.493744,-45.402695,1.446533,,,,,,
1478385468.47,-2.152829,0.737930,2.011341,2.645886,5.259634,3.271878,-0.618042,-0.672758,0.406720,2.202759,-2.168673,-0.576627,-35.279541,-42.553619,0.520142,,,,,,
,,,,,,,,,,,,,,,,37.354376,-122.033549,38.039154,2.680000,232.031250,1478385558.00
1478385468.49,-2.084822,0.661561,2.028408,2.320461,2.918411,2.838571,-0.687069,-0.614349,0.387958,1.734692,-1.354141,-0.348529,-35.563782,-39.555130,-0.991760,,,,,,
1478385468.51,-2.073924,0.584219,2.025640,1.529704,-1.692597,3.974134,-0.730775,-0.551548,0.402197,1.657334,-1.222927,0.080851,-36.300369,-36.931198,-2.057007,,,,,,
1478385468.53,-2.152488,0.501889,2.000799,0.808800,-5.490375,3.757295,-0.732492,-0.481082,0.481679,0.531183,-0.847333,0.107951,-36.300369,-36.931198,-2.057007,,,,,,
1478385468.55,-2.230077,0.471957,1.976155,-0.377793,-3.147021,0.467731,-0.704023,-0.454630,0.545585,0.736677,-0.538534,-0.144523,-38.242554,-34.830093,-0.957764,,,,,,
1478385468.57,-2.247430,0.502355,1.984146,-0.808975,0.420626,-2.227381,-0.683356,-0.481491,0.548809,0.834143,0.024612,-0.319897,-41.535721,-30.922943,6.197632,,,,,,
1478385468.59,-2.233285,0.557154,2.000263,-1.465599,1.330795,-2.653389,-0.669219,-0.528773,0.522058,0.693404,0.203746,-0.435419,-40.791580,-32.348312,5.834351,,,,,,
1478385468.61,-2.212498,0.631354,2.008989,-2.199663,1.215835,-3.649683,-0.646654,-0.590238,0.483175,0.950044,0.299238,-0.505391,-39.223724,-34.600311,3.831848,,,,,,
1478385468.63,-2.205408,0.731803,2.024993,-2.651931,0.547863,-4.754920,-0.599121,-0.668212,0.441074,0.940216,0.300964,-0.419925,-39.223724,-34.600311,3.831848,,,,,,
1478385468.65,-2.221656,0.848068,2.043127,-3.182571,-0.606620,-5.203482,-0.526212,-0.750004,0.400743,0.684842,0.206547,-0.315370,-36.380981,-36.852234,1.916992,,,,,,
1478385468.67,-2.260588,0.979249,2.068548,-3.626659,-0.994831,-5.939328,-0.430156,-0.830079,0.354873,0.387599,0.171632,-0.031310,-29.348557,-42.256714,-2.571472,,,,,,
1478385468.69,-2.327105,1.128091,2.123099,-4.093787,-0.904333,-6.792493,-0.311597,-0.903596,0.293976,0.027570,-0.005370,0.172058,-25.382431,-44.958908,-4.773743,,,,,,
1478385468.71,-2.476937,1.287852,2.267716,-4.098010,-0.610148,-7.533176,-0.172197,-0.960238,0.219754,-0.254225,-0.220762,0.191089,-19.233994,-46.387146,-8.007935,,,,,,
1478385468.73,-3.021164,1.424658,2.804300,-3.892097,-1.161068,-7.800371,-0.017494,-0.989341,0.144564,-0.577187,-0.514230,0.288420,-19.233994,-46.387146,-8.007935,,,,,,
1478385468.75,2.031439,1.420853,-2.265011,-3.788208,-1.378703,-7.203540,0.133811,-0.988780,0.066404,-1.138023,-1.244894,0.865405,-13.082535,-47.140396,-11.244141,,,,,,
1478385468.77,1.555955,1.308123,-1.812929,-2.846424,-2.046535,-5.787012,0.259634,-0.965699,-0.003854,-1.598669,-1.803466,0.980279,-6.850555,-46.768921,-14.783020,,,,,,
1478385468.79,1.372036,1.218924,-1.703401,-1.562789,-5.092910,-3.224671,0.337871,-0.938729,-0.068054,-1.750529,-0.266242,1.446212,0.968323,-44.449554,-20.411743,,,,,,
1478385468.81,1.263962,1.193692,-1.698009,0.348518,-4.588726,0.059029,0.351031,-0.929735,-0.111221,-3.037646,0.139421,2.338608,-0.224915,-43.400909,-21.776855,,,,,,
1478385468.83,1.268151,1.242292,-1.758718,2.408017,-1.731608,2.847301,0.307965,-0.946526,-0.096158,-2.595608,0.287865,1.933637,-0.224915,-43.400909,-21.776855,,,,,,
1478385468.85,1.372714,1.325170,-1.891559,2.912632,-0.876982,3.750141,0.238409,-0.969985,-0.047852,-2.034567,-0.115678,1.416489,-2.629257,-44.300720,-21.573181,,,,,,
1478385468.87,1.590796,1.366146,-2.046167,1.713392,6.888940,-0.466877,0.203184,-0.979132,0.004064,1.973192,-2.468927,-1.668127,-5.261078,-45.198868,-19.721802,,,,,,
1478385468.89,1.847837,1.365895,-2.257952,1.463552,-1.432283,1.664717,0.195712,-0.979081,0.055651,0.116910,-0.795333,-0.146700,-4.747559,-46.620483,-16.337402,,,,,,
1478385468.91,2.214090,1.423568,-2.706115,2.325253,-3.245515,5.393228,0.117376,-0.989182,0.087994,-1.748678,0.023224,0.559040,-8.355011,-47.593414,-14.270569,,,,,,
1478385468.93,2.645698,1.424852,3.108728,1.888314,-1.337425,0.987269,0.069197,-0.989369,0.127910,-0.495726,0.212880,0.697896,-8.355011,-47.593414,-14.270569,,,,,,
1478385468.95,2.825454,1.404779,2.914231,1.337735,0.126551,1.418776,0.051378,-0.986251,0.157066,-0.911363,-0.037507,0.925911,-12.108231,-47.591278,-12.133057,,,,,,
1478385468.97,3.058452,1.385596,2.722583,1.273309,3.426628,1.130720,0.015292,-0.982899,0.183507,-0.466403,0.537221,0.785029,-14.514252,-48.264282,-10.130066,,,,,,
1478385468.99,-3.098034,1.364835,2.656466,0.801785,1.994119,0.436827,-0.008905,-0.978865,0.204314,0.193399,-0.452959,-0.286849,-15.342056,-48.563309,-9.162476,,,,,,
1478385469.01,-3.063127,1.354673,2.618206,0.350607,-1.094290,0.471352,-0.016809,-0.976736,0.213785,0.010599,-0.229944,-0.390695,-15.120773,-49.162628,-8.483459,,,,,,
1478385469.03,-3.040589,1.346958,2.573872,0.390098,-0.439435,0.519164,-0.022382,-0.975053,0.220842,-0.323428,0.068742,0.242689,-15.120773,-49.162628,-8.483459,,,,,,
1478385469.05,-2.998024,1.335800,2.547029,0.573445,1.375605,0.274465,-0.033314,-0.972515,0.230444,-0.027355,-0.033115,0.139551,-16.397995,-49.236359,-7.221008,,,,,,
1478385469.07,-2.949515,1.322598,2.529290,0.639480,1.444731,0.412597,-0.046896,-0.969357,0.241140,0.408025,-0.051227,-0.113744,-17.374435,-49.536301,-7.154907,,,,,,
1478385469.09,-2.890775,1.306288,2.487092,0.702674,0.573323,0.874005,-0.064887,-0.965221,0.253254,0.539741,-0.046177,-0.191823,-17.300568,-49.761215,-7.078552,,,,,,
1478385469.11,-2.827151,1.285369,2.427554,0.843584,0.291320,1.163016,-0.087085,-0.959541,0.267762,0.350482,0.073479,-0.001710,-18.955826,-50.359512,-5.368225,,,,,,
1478385469.13,-2.761071,1.258582,2.370236,1.051072,0.762298,1.308910,-0.114083,-0.951656,0.285195,0.204568,0.081020,0.033744,-18.955826,-50.359512,-5.368225,,,,,,
1478385469.15,-2.694176,1.225398,2.316782,1.233810,0.704105,1.561215,-0.146479,-0.940941,0.305246,0.490824,-0.069481,-0.078439,-21.133163,-50.583633,-4.489380,,,,,,
1478385469.17,-2.637248,1.186561,2.265168,1.348001,0.421299,1.791415,-0.181140,-0.927085,0.328178,0.244525,-0.126946,-0.025138,-21.959259,-50.582886,-3.747620,,,,,,
1478385469.19,-2.575242,1.141557,2.216988,1.505764,1.180826,2.077980,-0.223303,-0.909283,0.351199,-0.093774,-0.279713,-0.152255,-23.686584,-50.807007,-2.864197,,,,,,
1478385469.21,-2.506527,1.090105,2.169252,1.524464,1.193285,2.489389,-0.274305,-0.886676,0.372241,0.268278,-0.646115,-0.332690,-25.485565,-50.130676,-1.534302,,,,,,
1478385469.23,-2.443477,1.031219,2.119420,1.599408,0.972980,2.961156,-0.330241,-0.857926,0.393579,0.316081,-0.665527,-0.393747,-25.485565,-50.130676,-1.534302,,,,,,
1478385469.25,-2.378464,0.961758,2.068009,1.682884,1.164686,3.617840,-0.395413,-0.820199,0.413428,0.441235,-0.957740,-0.454612,-30.357773,-48.853699,0.438232,,,,,,
1478385469.27,-2.304583,0.880560,2.018504,1.811100,2.256123,4.095445,-0.472856,-0.771096,0.426402,0.677232,-1.490501,-0.205074,-32.375961,-47.203278,0.863098,,,,,,
1478385469.29,-2.211944,0.789878,1.991274,2.477244,4.396950,3.994582,-0.564138,-0.710267,0.421033,1.915289,-2.038558,-0.428464,-34.243393,-45.402924,1.214050,,,,,,
1478385469.31,-2.127165,0.702047,1.997146,2.709399,4.030477,3.170224,-0.648367,-0.645782,0.403220,1.983175,-1.902818,-0.855582,-35.726593,-42.029007,0.139099,,,,,,
1478385469.33,-2.083332,0.626489,2.012765,2.153001,1.754491,2.999527,-0.705997,-0.586304,0.397260,1.591709,-1.056762,-0.148541,-35.726593,-42.029007,0.139099,,,,,,
1478385469.35,-2.105348,0.547142,2.006276,1.507108,-3.295335,3.891602,-0.734877,-0.520249,0.435082,1.287551,-0.975937,0.209876,-36.447891,-36.331055,-1.910217,,,,,,
1478385469.37,-2.190270,0.480600,1.979768,0.252715,-4.963179,2.769399,-0.721951,-0.462312,0.514834,0.085095,-0.811996,-0.087268,-39.439377,-33.779068,0.077209,,,,,,
1478385469.39,-2.238856,0.475973,1.967998,-0.506771,-1.126384,-0.874304,-0.697767,-0.458203,0.550609,0.839110,-0.305469,-0.181774,-41.084274,-31.300049,4.103333,,,,,,
1478385469.41,-2.239674,0.519518,1.985309,-0.865212,0.848451,-2.578970,-0.681008,-0.496462,0.538288,0.715096,0.141100,-0.370685,-41.986145,-31.148315,5.818787,,,,,,
1478385469.43,-2.227383,0.577017,1.997169,-1.727336,0.901745,-2.672208,-0.663838,-0.545526,0.511587,0.701344,0.300943,-0.484930,-41.986145,-31.148315,5.818787,,,,,,
1478385469.45,-2.215848,0.658484,2.009303,-2.234722,0.952500,-4.159126,-0.632000,-0.611918,0.475533,0.909787,0.452998,-0.360650,-40.719620,-33.248978,5.162781,,,,,,
1478385469.47,-2.215154,0.765071,2.033565,-2.596472,0.709666,-5.078198,-0.576696,-0.692588,0.433294,0.692311,0.310997,-0.288473,-35.932663,-37.452896,1.248291,,,,,,
1478385469.49,-2.227324,0.885732,2.062524,-3.008380,0.339767,-5.631238,-0.501190,-0.774378,0.386195,0.497772,0.293650,-0.181270,-32.567200,-40.305099,-0.959534,,,,,,
,,,,,,,,,,,,,,,,37.354369,-122.033566,38.669464,2.680000,238.359375,1478385559.00
1478385469.51,-2.259043,1.020996,2.109571,-3.249427,0.358624,-6.477796,-0.403572,-0.852629,0.331895,0.258858,0.279295,-0.058396,-28.976944,-43.157166,-3.015076,,,,,,
1478385469.53,-2.334707,1.171468,2.201290,-3.503820,0.227078,-7.315175,-0.280766,-0.921323,0.268952,0.018712,-0.054889,-0.048554,-28.976944,-43.157166,-3.015076,,,,,,
1478385469.55,-2.549976,1.322745,2.425310,-3.379788,-0.407290,-7.663942,-0.136925,-0.969393,0.203788,-0.177040,-0.336500,-0.118140,-23.281906,-45.335388,-6.251587,,,,,,
1478385469.57,3.023701,1.430751,3.122087,-3.455559,-1.609559,-7.521007,0.016418,-0.990210,0.138619,-0.609192,-0.761072,0.138466,-10.532791,-47.441116,-11.967712,,,,,,
1478385469.59,1.962622,1.396749,-2.126591,-3.447935,-1.932743,-6.707745,0.160046,-0.984892,0.066130,-1.250592,-1.432894,0.698519,-5.275116,-46.693985,-14.842468,,,,,,
1478385469.61,1.557171,1.294617,-1.759996,-2.703821,-2.935019,-4.998663,0.272657,-0.962104,-0.003715,-1.543515,-1.592431,0.825233,-0.089508,-45.422241,-18.094421,,,,,,
1478385469.63,1.362229,1.221357,-1.656449,-1.377138,-5.811078,-2.484928,0.334952,-0.939565,-0.070891,-1.693503,0.002278,1.574950,-0.089508,-45.422241,-18.094421,,,,,,
1478385469.65,1.252807,1.207580,-1.657167,0.580868,-4.768968,0.436001,0.337471,-0.934759,-0.111082,-2.862907,0.112829,2.364958,2.170227,-44.074692,-20.550842,,,,,,
1478385469.67,1.259884,1.257568,-1.719660,2.350986,-1.597462,2.744913,0.293358,-0.951344,-0.094266,-2.455620,0.092396,1.927365,-2.324524,-43.476379,-22.247559,,,,,,
1478385469.69,1.370819,1.337898,-1.856148,2.878349,-0.829503,3.710592,0.226199,-0.973002,-0.045848,-1.890963,-0.225134,1.318995,-5.859161,-44.974472,-20.328430,,,,,,
1478385469.71,1.578803,1.391375,-2.020614,1.334911,5.803125,0.490969,0.178455,-0.983947,0.001429,1.723187,-2.152512,-1.667872,-7.816330,-45.872391,-18.245361,,,,,,
1478385469.73,1.854761,1.384784,-2.232087,1.312277,0.081614,0.702765,0.177535,-0.982750,0.051814,0.677522,-0.343651,-0.586238,-7.816330,-45.872391,-18.245361,,,,,,
1478385469.75,2.165778,1.420347,-2.603403,2.423090,-3.310802,4.454074,0.124126,-0.988704,0.084008,-2.699688,-0.038014,0.931602,-6.321747,-46.771469,-17.327698,,,,,,
1478385469.77,2.673264,1.429656,-3.135186,1.998958,-0.146232,1.334770,0.063499,-0.990056,0.125525,-0.120902,-0.264750,0.428400,-7.454361,-47.744308,-15.161072,,,,,,
1478385469.79,2.822610,1.407207,2.987954,1.338255,-0.210840,1.046037,0.051073,-0.986649,0.154645,-0.260729,0.157868,0.903552,-13.235352,-47.890762,-11.618469,,,,,,
1478385469.81,3.067118,1.389305,2.765705,1.216965,2.361148,1.730281,0.013430,-0.983576,0.179997,-0.427737,0.509058,0.851314,-14.366043,-48.714417,-10.277283,,,,,,
1478385469.83,-3.048747,1.366557,2.657414,0.953840,2.501838,0.638283,-0.018804,-0.979216,0.201949,0.240072,-0.401323,-0.152281,-14.366043,-48.714417,-10.277283,,,,,,
1478385469.85,-2.989708,1.354183,2.595761,0.386120,-1.313738,0.937710,-0.032518,-0.976631,0.212449,0.298662,-0.092674,-0.467133,-14.516846,-48.638672,-9.528992,,,,,,
1478385469.87,-2.942248,1.343005,2.514334,0.438823,-1.164741,0.887996,-0.044720,-0.974168,0.221354,-0.391941,0.155091,0.251608,-14.895569,-49.388443,-9.305542,,,,,,
1478385469.89,-2.894716,1.329362,2.471013,0.603908,0.965544,0.504085,-0.058429,-0.970996,0.231847,-0.273754,-0.134564,0.185039,-17.747177,-49.161682,-7.534729,,,,,,
1478385469.91,-2.846550,1.314536,2.450224,0.671609,1.420969,0.463787,-0.073703,-0.967345,0.242513,0.255298,-0.036562,-0.078633,-17.673767,-49.461517,-7.383118,,,,,,
1478385469.93,-2.800849,1.297917,2.421211,0.671726,0.528896,0.733781,-0.090065,-0.962999,0.254010,0.346260,-0.144453,-0.178006,-17.673767,-49.461517,-7.383118,,,,,,
1478385469.95,-2.756915,1.278053,2.378606,0.769682,0.018211,1.009268,-0.108292,-0.957456,0.267490,0.315247,-0.000659,-0.134296,-18.349670,-49.460938,-6.789856,,,,,,
1478385469.97,-2.714566,1.252660,2.332726,0.972764,-0.100382,1.201611,-0.129550,-0.949820,0.284708,0.377612,0.147620,-0.027247,-19.927780,-49.910187,-6.054260,,,,,,
1478385469.99,-2.670605,1.222479,2.287197,1.073252,0.217268,1.408865,-0.154878,-0.939948,0.304155,0.130388,-0.105492,0.131377,-20.678436,-49.759308,-5.162231,,,,,,
1478385470.01,-2.615297,1.187783,2.246209,1.261703,1.274400,1.497575,-0.187731,-0.927543,0.323144,0.128466,-0.125466,0.060737,-23.308228,-50.132233,-3.087402,,,,,,
1478385470.03,-2.553353,1.147098,2.212842,1.428273,1.606822,1.759474,-0.228138,-0.911575,0.342031,0.297580,-0.250916,-0.230504,-23.308228,-50.132233,-3.087402,,,,,,
1478385470.05,-2.489991,1.099476,2.173199,1.439890,1.233339,2.291610,-0.275371,-0.890970,0.361031,0.207470,-0.487052,-0.322061,-24.508072,-49.831421,-2.275330,,,,,,
1478385470.07,-2.426690,1.044145,2.129086,1.521306,1.286559,2.701103,-0.329503,-0.864495,0.379573,0.204091,-0.628196,-0.300472,-26.758163,-49.680923,-1.773254,,,,,,
1478385470.09,-2.362859,0.980723,2.087096,1.588585,1.461131,3.179286,-0.390819,-0.830900,0.396063,0.423671,-0.867601,-0.390829,-28.705872,-48.930191,-1.045044,,,,,,
1478385470.11,-2.295489,0.906975,2.044963,1.704051,1.910740,3.708524,-0.461300,-0.787643,0.408437,0.717022,-1.235352,-0.363607,-33.344772,-46.079041,0.100037,,,,,,
1478385470.13,-2.216557,0.823562,2.014498,2.051957,3.446658,3.897123,-0.542767,-0.733571,0.408995,1.262830,-1.876872,-0.334883,-33.344772,-46.079041,0.100037,,,,,,
1478385470.15,-2.126185,0.735627,2.011371,2.489763,4.561463,3.466103,-0.629973,-0.671052,0.390926,2.254744,-2.101714,-0.635433,-35.282700,-43.529449,-0.302002,,,,,,
1478385470.17,-2.074282,0.656378,2.025334,2.265571,1.912994,3.097301,-0.693900,-0.610251,0.382226,1.638205,-1.294915,-0.307076,-35.641815,-40.531036,-1.889587,,,,,,
1478385470.19,-2.073663,0.575728,2.019824,1.493180,-1.864200,4.082405,-0.734957,-0.544445,0.404249,1.403674,-1.249042,0.089830,-35.926285,-37.381943,-2.801880,,,,,,
1478385470.21,-2.152369,0.491644,1.996328,1.026409,-5.520226,3.861056,-0.736630,-0.472076,0.484273,0.344296,-0.786789,0.160120,-38.167343,-35.206375,-2.230774,,,,,,
1478385470.23,-2.233196,0.450991,1.971396,-0.110891,-3.345399,1.097847,-0.709679,-0.435858,0.553519,0.554665,-0.502832,-0.053977,-38.167343,-35.206375,-2.230774,,,,,,
1478385470.25,-2.250469,0.469508,1.975358,-0.605921,0.449426,-1.765563,-0.693616,-0.452447,0.560525,0.628094,0.025140,-0.301385,-42.657776,-30.398331,5.809814,,,,,,
1478385470.27,-2.230640,0.517450,1.994148,-1.050460,1.808334,-2.568189,-0.686652,-0.494666,0.532743,0.691322,0.206961,-0.423902,-41.685471,-30.847870,6.270935,,,,,,
1478385470.29,-2.203130,0.581020,2.008084,-1.657834,1.557242,-3.208853,-0.674282,-0.548877,0.494043,0.898082,0.373629,-0.457132,-40.566254,-32.649429,4.712524,,,,,,
1478385470.31,-2.188471,0.667848,2.024023,-2.202045,0.995767,-4.303271,-0.640081,-0.619298,0.454716,0.881582,0.334020,-0.439976,-38.997482,-34.826797,2.334717,,,,,,
1478385470.33,-2.191953,0.773672,2.044407,-2.607385,0.177086,-4.997498,-0.581726,-0.698767,0.416317,0.661805,0.159536,-0.394939,-38.997482,-34.826797,2.334717,,,,,,
1478385470.35,-2.214321,0.894394,2.068525,-3.077372,-0.372872,-5.598145,-0.500785,-0.779830,0.375607,0.435950,0.203231,-0.200665,-32.189285,-39.855698,-1.557129,,,,,,
1478385470.37,-2.255674,1.030550,2.108985,-3.396873,-0.434518,-6.370271,-0.398360,-0.857582,0.325365,0.217940,0.171486,-0.103609,-28.599915,-42.932831,-3.686951,,,,,,
1478385470.39,-2.342063,1.179434,2.190919,-3.692767,-0.812435,-7.005400,-0.273509,-0.924390,0.265886,0.019557,-0.118304,-0.081377,-23.430298,-44.885101,-5.954407,,,,,,
1478385470.41,-2.558155,1.330796,2.394400,-3.799497,-1.246069,-7.361494,-0.130950,-0.971338,0.198381,-0.274385,-0.411108,0.001616,-17.808105,-46.462967,-8.818420,,,,,,
1478385470.43,2.984045,1.444689,3.116570,-3.939387,-1.490413,-7.405147,0.019733,-0.992059,0.124215,-0.807209,-0.791815,0.490668,-17.808105,-46.462967,-8.818420,,,,,,
1478385470.45,1.833589,1.401871,-2.029185,-3.874482,-0.867580,-6.830647,0.162351,-0.985766,0.043675,-1.425382,-1.276334,1.023113,-12.557404,-47.215683,-11.538757,,,,,,
1478385470.47,1.487453,1.286929,-1.694013,-2.697681,-1.382319,-5.356661,0.279098,-0.959980,-0.023315,-1.683975,-1.390423,0.957870,-1.137695,-45.047318,-18.181030,,,,,,
,,,,,,,,,,,,,,,,37.354365,-122.033585,39.112427,1.970000,246.796875,1478385560.00
1478385470.49,1.346265,1.205711,-1.616285,-1.238156,-4.471953,-2.808023,0.348067,-0.934093,-0.079492,-1.725981,-0.064335,1.530405,1.946014,-43.849548,-20.403809,,,,,,
1478385470.51,1.261277,1.188845,-1.623238,0.550453,-3.959916,0.367574,0.355019,-0.927939,-0.113534,-2.627785,0.077475,1.972940,1.202454,-42.875900,-21.764160,,,,,,
1478385470.53,1.285192,1.240274,-1.685434,2.477420,-0.757317,2.907623,0.311391,-0.945873,-0.091434,-3.056981,0.076458,2.179508,1.202454,-42.875900,-21.764160,,,,,,
1478385470.55,1.409945,1.327431,-1.830634,3.091667,-1.010824,4.182622,0.237859,-0.970533,-0.038593,-2.044103,0.034482,1.390125,-0.824905,-43.551376,-22.232361,,,,,,
1478385470.57,1.603227,1.373700,-1.968617,1.227644,7.117193,-0.690567,0.195720,-0.980639,0.006350,0.138203,-0.826307,0.075575,-5.565918,-45.646988,-17.848511,,,,,,
1478385470.59,1.816783,1.367365,-2.144976,0.840867,-2.214844,1.020344,0.195950,-0.979379,0.049197,2.182453,-2.501334,-2.939441,-4.972672,-46.770859,-16.714233,,,,,,
1478385470.61,2.107118,1.415583,-2.534807,2.597131,-4.304257,5.378951,0.132886,-0.987979,0.078993,-2.887051,1.253375,1.181048,-6.403824,-47.594223,-15.076050,,,,,,
1478385470.63,2.644295,1.431007,-3.103413,1.940231,-0.699899,1.451656,0.066470,-0.990245,0.122457,-0.332232,-0.685063,0.891062,-6.403824,-47.594223,-15.076050,,,,,,
1478385470.65,2.795966,1.409988,3.021007,1.350200,0.623734,0.867706,0.054245,-0.987098,0.150647,-0.554398,-0.137795,0.944033,-10.229309,-46.992081,-12.941101,,,,,,
1478385470.67,3.055729,1.390913,2.809373,1.323527,3.621769,1.634487,0.015344,-0.983864,0.178256,-0.771554,0.808678,0.661847,-12.336029,-47.815079,-10.934692,,,,,,
1478385470.69,-3.055627,1.367143,2.706590,0.951628,2.494530,0.559111,-0.017365,-0.979334,0.201502,0.059693,-0.066473,0.188437,-14.144897,-49.163208,-9.073669,,,,,,
1478385470.71,-3.015395,1.355890,2.659611,0.320330,-1.480614,0.741531,-0.026841,-0.976996,0.211560,0.386704,-0.720269,-0.555325,-13.469894,-49.012756,-8.617371,,,,,,
1478385470.73,-2.973608,1.347657,2.589311,0.331568,-0.690178,0.713809,-0.036999,-0.975208,0.218177,-0.165439,0.197742,0.097618,-13.469894,-49.012756,-8.617371,,,,,,
1478385470.75,-2.926566,1.337097,2.558861,0.506602,1.639360,0.305974,-0.049413,-0.972816,0.226245,-0.371150,0.029213,0.375577,-15.047012,-49.237030,-7.882507,,,,,,
1478385470.77,-2.877775,1.325377,2.549199,0.550624,1.842889,0.268147,-0.063357,-0.970035,0.234557,0.184008,-0.086773,0.069032,-15.948227,-49.386658,-7.516052,,,,,,
1478385470.79,-2.829931,1.312234,2.521382,0.538451,0.549396,0.704758,-0.078405,-0.966758,0.243373,0.517904,-0.127129,-0.207119,-16.626938,-49.985992,-6.846069,,,,,,
1478385470.81,-2.776250,1.294161,2.468323,0.688791,0.038204,1.099998,-0.097578,-0.961980,0.255095,0.467832,0.007314,-0.197722,-17.003159,-50.060394,-6.249634,,,,,,
1478385470.83,-2.715259,1.269774,2.410575,0.875146,0.471069,1.277802,-0.122612,-0.955034,0.269956,0.237587,0.125917,0.023013,-17.003159,-50.060394,-6.249634,,,,,,
1478385470.85,-2.651027,1.241085,2.357773,0.945662,0.813732,1.444473,-0.152536,-0.946136,0.285587,0.179575,-0.075944,0.062848,-17.979385,-50.134796,-5.659119,,,,,,
1478385470.87,-2.585091,1.208009,2.307932,1.053796,1.060673,1.625904,-0.187455,-0.934911,0.301333,0.277924,-0.083430,-0.003145,-19.481369,-50.283920,-4.773743,,,,,,
1478385470.89,-2.516223,1.169722,2.262597,1.154964,1.517577,1.877348,-0.228543,-0.920642,0.316522,0.122602,-0.213040,-0.112847,-21.358047,-50.282806,-3.667542,,,,,,
1478385470.91,-2.443266,1.124975,2.216875,1.188729,1.491802,2.296077,-0.277234,-0.902257,0.330264,0.090863,-0.253307,-0.390261,-24.208099,-49.981857,-2.721863,,,,,,
1478385470.93,-2.374343,1.072496,2.165585,1.164372,1.028173,2.796918,-0.331761,-0.878396,0.344027,0.275777,-0.532050,-0.402850,-24.208099,-49.981857,-2.721863,,,,,,
1478385470.95,-2.309197,1.012628,2.117517,1.242848,1.290587,3.121508,-0.391688,-0.848227,0.356499,0.374217,-0.688547,-0.276681,-26.230362,-49.156219,-2.069580,,,,,,
1478385470.97,-2.243758,0.943543,2.071336,1.274249,1.398779,3.681714,-0.458962,-0.809642,0.365832,0.621132,-0.903172,-0.353091,-28.627838,-48.405640,-1.495850,,,,,,
1478385470.99,-2.173798,0.864343,2.030606,1.403760,2.366158,4.046795,-0.534656,-0.760669,0.368139,0.843341,-1.207227,-0.289617,-31.320709,-46.830673,-1.527527,,,,,,
1478385471.01,-2.091108,0.776221,2.011527,2.036747,3.916290,3.996603,-0.619136,-0.700588,0.354750,1.691005,-1.817051,-0.271681,-35.198807,-42.106094,-1.955444,,,,,,
1478385471.03,-2.032294,0.692607,2.019179,2.280521,2.352552,3.349535,-0.689075,-0.638546,0.342688,2.256519,-1.787297,-0.526693,-35.198807,-42.106094,-1.955444,,,,,,
1478385471.05,-2.018646,0.613769,2.023148,1.555047,-0.075169,3.749732,-0.736863,-0.575953,0.353993,1.550736,-1.250585,-0.135564,-34.955902,-38.657684,-3.538391,,,,,,
1478385471.07,-2.065380,0.526350,2.008790,1.361489,-4.530451,4.246777,-0.761033,-0.502380,0.410418,1.227891,-1.305511,0.115369,-36.745300,-36.107101,-2.963867,,,,,,
1478385471.09,-2.159644,0.460588,1.983717,0.233874,-4.833469,2.549464,-0.744924,-0.444475,0.497525,0.250295,-0.769576,0.439410,-38.987259,-33.630035,-0.893799,,,,,,
1478385471.11,-2.201547,0.458685,1.977186,-0.366852,-0.640829,-1.012852,-0.724109,-0.442769,0.528792,0.855228,-0.411006,-0.018355,-41.456573,-30.850494,3.648254,,,,,,
1478385471.13,-2.195276,0.498682,1.991955,-0.813133,1.036977,-2.275094,-0.712466,-0.478269,0.513470,0.813845,0.076581,-0.295071,-41.456573,-30.850494,3.648254,,,,,,
1478385471.15,-2.176278,0.552903,1.999937,-1.624815,1.169232,-2.652226,-0.699719,-0.525160,0.484355,0.685818,0.376051,-0.234615,-41.089554,-32.199203,4.930908,,,,,,
1478385471.17,-2.154734,0.636055,2.008273,-2.220987,1.278022,-4.255598,-0.671147,-0.594027,0.443502,1.013600,0.347948,-0.519429,-39.220123,-34.000916,3.230042,,,,,,
1478385471.19,-2.154145,0.741988,2.022517,-2.612674,-0.105388,-4.884043,-0.615223,-0.675755,0.406025,1.016910,0.219746,-0.559178,-36.977936,-36.553360,0.785156,,,,,,
1478385471.21,-2.183825,0.860353,2.034785,-3.147788,-1.532251,-5.353663,-0.533416,-0.758073,0.375224,0.718703,0.167817,-0.357875,-33.913223,-39.480270,-1.125488,,,,,,
1478385471.23,-2.238616,0.995311,2.059752,-3.615024,-1.725319,-6.183034,-0.427324,-0.838928,0.337036,0.417635,0.108582,-0.091522,-33.913223,-39.480270,-1.125488,,,,,,
1478385471.25,-2.326350,1.146669,2.118527,-4.045966,-1.897944,-6.920402,-0.299546,-0.911398,0.282180,0.112672,-0.163004,0.040574,-26.431396,-44.658691,-4.560181,,,,,,
1478385471.27,-2.507577,1.307183,2.273319,-4.342043,-1.508287,-7.439098,-0.154358,-0.965455,0.209930,-0.235168,-0.462646,0.220795,-20.658615,-46.086487,-7.348083,,,,,,
1478385471.29,-3.116632,1.443789,2.874420,-4.323499,-0.385961,-7.556710,-0.003161,-0.991945,0.126627,-0.701581,-0.634291,0.409765,-14.808502,-47.214951,-10.811218,,,,,,
1478385471.31,1.891413,1.420904,-2.111270,-3.850841,1.199525,-7.188263,0.141722,-0.988787,0.047062,-1.304243,-1.006101,0.785442,-8.651093,-46.768570,-14.426025,,,,,,
1478385471.33,1.523800,1.296569,-1.719175,-2.785719,0.111830,-6.118843,0.270504,-0.962635,-0.012722,-1.579235,-1.489773,0.940121,-8.651093,-46.768570,-14.426025,,,,,,
1478385471.35,1.385287,1.201689,-1.628082,-1.389062,-4.215202,-3.424139,0.354593,-0.932650,-0.066546,-1.488458,-0.920545,1.063250,2.620453,-43.924393,-20.246765,,,,,,
1478385471.37,1.286274,1.178772,-1.624270,0.549564,-4.317904,0.411381,0.366700,-0.924137,-0.107244,-2.583833,0.031407,1.942693,3.529205,-42.576187,-22.041687,,,,,,
1478385471.39,1.289992,1.235425,-1.693271,2.572299,-2.604861,3.199647,0.316229,-0.944288,-0.091209,-2.796484,0.386701,1.970786,1.204590,-42.802109,-22.964294,,,,,,
1478385471.41,1.368095,1.324065,-1.828234,3.072388,-2.708871,3.983385,0.239235,-0.969716,-0.049169,-1.918175,-0.099925,1.582158,-2.554932,-44.300262,-21.122437,,,,,,
1478385471.43,1.560052,1.400115,-2.049036,1.873703,1.354083,2.701822,0.169844,-0.985469,-0.001825,-1.525053,-0.065877,1.044122,-2.554932,-44.300262,-21.122437,,,,,,
1478385471.45,1.871061,1.392546,-2.250171,2.508626,3.649689,-0.062246,0.169375,-0.984155,0.052443,1.765683,-2.832342,-3.305190,-6.914764,-45.647751,-18.611938,,,,,,
1478385471.47,2.054657,1.416438,-2.516451,2.311457,-6.901691,3.225837,0.136097,-0.988110,0.071523,0.542583,-0.018359,0.628840,-5.873093,-46.620117,-15.973633,,,,,,
1478385471.49,2.645459,1.445544,3.079123,2.419921,-2.511639,3.368449,0.059468,-0.992166,0.109863,-2.260472,-0.056189,0.613923,-10.753998,-47.293213,-14.070435,,,,,,
,,,,,,,,,,,,,,,,37.354365,-122.033604,39.773499,1.610000,259.453125,1478385561.00
1478385471.51,2.864966,1.419140,2.835645,1.604179,-0.349958,0.476484,0.041261,-0.988522,0.145332,-0.744569,-0.280017,0.815529,-15.333740,-47.290024,-10.891235,,,,,,
1478385471.53,3.034692,1.396193,2.690275,1.249491,2.276153,1.208549,0.018535,-0.984796,0.172726,-0.668636,0.208062,0.996632,-15.333740,-47.290024,-10.891235,,,,,,
1478385471.55,-3.051657,1.372365,2.558109,1.124833,3.538805,1.091074,-0.017705,-0.980377,0.196335,0.007146,0.450851,0.629959,-15.712204,-47.663834,-9.693909,,,,,,
1478385471.57,-2.983054,1.356697,2.515315,0.471811,-0.440630,0.296906,-0.033543,-0.977168,0.209803,0.189488,-0.617711,-0.460535,-16.692139,-48.488022,-8.876221,,,,,,
1478385471.59,-2.976617,1.348865,2.466702,0.261177,-2.303947,0.707030,-0.036149,-0.975474,0.217126,0.164506,-0.016134,-0.366921,-18.120270,-48.786835,-7.689636,,,,,,
1478385471.61,-2.962768,1.340598,2.429208,0.400347,-0.073520,0.321297,-0.040585,-0.973621,0.224532,-0.528216,0.105411,0.300019,-19.322723,-49.010864,-6.726013,,,,,,
1478385471.63,-2.936821,1.330689,2.431962,0.532651,1.970004,-0.075647,-0.048356,-0.971313,0.232838,-0.307036,-0.109818,0.298137,-19.322723,-49.010864,-6.726013,,,,,,
1478385471.65,-2.908823,1.319585,2.436352,0.549848,1.097996,0.260674,-0.057340,-0.968612,0.241873,0.452604,-0.030106,-0.209799,-19.847504,-48.935806,-6.656433,,,,,,
1478385471.67,-2.874380,1.305482,2.403609,0.640092,-0.220175,0.743338,-0.069235,-0.965010,0.252907,0.666327,-0.079408,-0.312935,-19.175552,-49.535568,-6.422913,,,,,,
1478385471.69,-2.829168,1.283749,2.355859,0.989727,0.174055,1.030299,-0.087022,-0.959084,0.269416,0.389985,0.250207,-0.084815,-21.732239,-50.433792,-4.645813,,,,,,
1478385471.71,-2.771921,1.254622,2.304098,1.173392,0.503659,1.318931,-0.112343,-0.950432,0.289928,0.468926,-0.024956,0.061513,-22.857559,-50.283127,-3.982483,,,,,,
1478385471.73,-2.707038,1.220030,2.255124,1.366072,1.270180,1.465612,-0.144665,-0.939110,0.311681,0.272488,-0.069222,0.129221,-22.857559,-50.283127,-3.982483,,,,,,
1478385471.75,-2.632967,1.178544,2.212326,1.556394,1.851795,1.766701,-0.186157,-0.924050,0.333881,0.178253,-0.187934,-0.037845,-24.283447,-50.207321,-3.171936,,,,,,
1478385471.77,-2.556168,1.130394,2.167170,1.584103,1.728039,2.206599,-0.235555,-0.904580,0.355314,0.332952,-0.459479,-0.185316,-25.409775,-50.206421,-2.283264,,,,,,
1478385471.79,-2.478409,1.075169,2.120059,1.651453,1.851727,2.623741,-0.292783,-0.879670,0.374777,0.236188,-0.627715,-0.274924,-29.459030,-49.454666,-0.526001,,,,,,
1478385471.81,-2.402372,1.011744,2.072067,1.620188,1.600721,3.238407,-0.357326,-0.847758,0.391950,0.360606,-0.805425,-0.470700,-30.731400,-48.779388,-0.240723,,,,,,
1478385471.83,-2.329304,0.937628,2.020684,1.669012,1.606903,3.829346,-0.429495,-0.806157,0.406996,0.597601,-1.142467,-0.531965,-30.731400,-48.779388,-0.240723,,,,,,
1478385471.85,-2.250972,0.852961,1.978391,1.876432,2.832158,4.139715,-0.511380,-0.753231,0.413682,0.872251,-1.518024,-0.492235,-33.198151,-46.829041,0.103760,,,,,,
1478385471.87,-2.152968,0.763099,1.958475,2.401898,4.915023,3.876048,-0.603648,-0.691164,0.397368,1.919490,-2.428923,-0.399672,-35.288773,-44.728989,0.151550,,,,,,
1478385471.89,-2.086015,0.678207,1.972595,2.735307,2.619928,3.168361,-0.677612,-0.627398,0.383685,2.565124,-1.611372,-0.743822,-36.754517,-38.056808,-2.658142,,,,,,
1478385471.91,-2.082268,0.589731,1.976410,2.095067,-1.358070,4.451156,-0.724732,-0.556138,0.406786,1.669937,-1.306106,-0.184191,-37.643127,-35.431519,-2.374878,,,,,,
1478385471.93,-2.155884,0.491880,1.950400,1.002404,-5.133011,4.296771,-0.734830,-0.472284,0.486799,0.895093,-1.224951,0.253054,-37.643127,-35.431519,-2.374878,,,,,,
1478385471.95,-2.213112,0.465560,1.934136,-0.008924,-1.874603,-0.162031,-0.715491,-0.448923,0.535294,0.920692,-1.027960,-0.413361,-40.858383,-32.052887,1.257812,,,,,,
1478385471.97,-2.231132,0.493722,1.951420,-0.505679,-0.048914,-2.070349,-0.695467,-0.473906,0.540129,1.067506,-0.122789,-0.402998,-42.954742,-30.099457,4.680969,,,,,,
1478385471.99,-2.234138,0.546958,1.963746,-1.636499,0.118760,-2.777014,-0.672987,-0.520091,0.525922,1.099684,0.104777,-0.384580,-42.209366,-30.923843,5.290894,,,,,,
1478385472.01,-2.248239,0.634870,1.979564,-2.525970,-0.377903,-4.501155,-0.627354,-0.593073,0.504669,0.859440,0.101481,-0.642502,-37.875763,-35.200745,3.397095,,,,,,
1478385472.03,-2.267110,0.750109,2.004167,-3.163167,-0.045049,-5.290913,-0.561303,-0.681718,0.469253,0.831674,0.197801,-0.291519,-37.875763,-35.200745,3.397095,,,,,,
1478385472.05,-2.293911,0.883307,2.032658,-3.814597,-0.526214,-5.971817,-0.475789,-0.772842,0.419929,0.607213,0.257583,-0.467567,-35.038528,-38.577362,1.785522,,,,,,
1478385472.07,-2.348117,1.034089,2.082043,-4.286125,-0.715171,-6.812937,-0.364459,-0.859397,0.358618,0.347033,0.163565,-0.296179,-31.224991,-41.879639,-0.491394,,,,,,
1478385472.09,-2.460906,1.202356,2.192378,-4.793164,-0.553247,-7.837991,-0.226659,-0.932890,0.279896,-0.143077,-0.127657,-0.029240,-26.132858,-44.582504,-3.357361,,,,,,
1478385472.11,-2.798066,1.369173,2.539467,-4.683048,0.046620,-8.394935,-0.067450,-0.979743,0.188560,-0.403879,-0.465829,0.220498,-12.857300,-47.140533,-11.391968,,,,,,
1478385472.13,2.371769,1.433499,-2.615882,-4.528405,0.136225,-8.088850,0.095260,-0.990589,0.098275,-0.810638,-1.060604,0.332481,-12.857300,-47.140533,-11.391968,,,,,,
1478385472.15,1.655684,1.326737,-1.896631,-3.415348,-0.858244,-6.823569,0.240773,-0.970365,0.020488,-1.487599,-2.137576,1.026555,-5.947983,-46.394516,-15.375000,,,,,,
1478385472.17,1.450484,1.222936,-1.722756,-1.902115,-2.628276,-3.968844,0.338423,-0.940104,-0.040914,-2.636458,-1.483846,1.609533,0.439972,-44.672989,-18.841309,,,,,,
1478385472.19,1.373437,1.179844,-1.704863,0.146171,-3.090171,-0.935437,0.373672,-0.924546,-0.074720,-2.792389,0.317948,1.914350,2.624390,-43.400436,-21.298340,,,,,,
1478385472.21,1.361745,1.219569,-1.751517,1.895487,-2.442884,3.300339,0.336560,-0.938951,-0.071401,-3.065717,-0.319396,2.331518,2.551880,-43.025970,-21.825195,,,,,,
1478385472.23,1.461969,1.311962,-1.890563,3.271334,-1.069224,4.502075,0.254440,-0.966689,-0.027800,-2.957626,-0.098680,2.335692,2.551880,-43.025970,-21.825195,,,,,,
1478385472.25,1.821321,1.403702,-2.265699,3.271391,0.308392,4.678949,0.161126,-0.986072,0.041232,-2.293328,-0.399639,1.679974,-5.415787,-45.872742,-18.596313,,,,,,
1478385472.27,2.161269,1.407629,-2.498401,1.939333,6.360214,-0.862516,0.134939,-0.986718,0.090441,2.808390,-2.393455,-2.364810,-8.651993,-47.369766,-15.624207,,,,,,
1478385472.29,2.304519,1.411191,-2.697723,1.390101,-7.258032,2.535113,0.118034,-0.987290,0.106425,2.423882,0.570801,-1.280055,-8.133652,-48.418488,-14.340881,,,,,,
1478385472.31,2.676467,1.432812,3.031675,1.208977,-6.096853,3.587183,0.061695,-0.990495,0.122935,-3.108188,-0.099425,1.463796,-11.661835,-48.566788,-12.650696,,,,,,
1478385472.33,2.795920,1.406614,2.880866,1.552076,-0.360143,-0.182928,0.055380,-0.986552,0.153778,-1.055228,-0.000997,0.290634,-11.661835,-48.566788,-12.650696,,,,,,
1478385472.35,2.998987,1.382913,2.723043,1.496552,4.066544,1.468112,0.026546,-0.982402,0.184884,-0.907085,0.280086,1.396492,-17.067490,-49.014374,-10.228394,,,,,,
1478385472.37,-3.138249,1.355295,2.665687,1.281371,3.674043,-0.054775,-0.000715,-0.976869,0.213836,0.155561,-0.100279,0.237947,-17.522415,-49.311981,-7.832092,,,,,,
1478385472.39,-3.085650,1.337289,2.616569,0.727714,-1.444897,1.096897,-0.012938,-0.972861,0.231029,0.828154,-0.458642,-0.902782,-16.475128,-49.836731,-7.595032,,,,,,
1478385472.41,-3.038581,1.320941,2.533625,0.778462,-1.124570,0.829693,-0.025426,-0.968948,0.245953,-0.069636,0.283920,0.084247,-17.828705,-50.210480,-6.332458,,,,,,
1478385472.43,-2.993571,1.303078,2.491830,0.855536,0.938677,0.582286,-0.039014,-0.964377,0.261639,-0.353870,-0.117181,0.336598,-17.828705,-50.210480,-6.332458,,,,,,
1478385472.45,-2.934030,1.283888,2.467021,0.915681,2.063792,0.506423,-0.058317,-0.959123,0.276914,-0.017092,-0.084456,0.148897,-19.555252,-50.209442,-5.299622,,,,,,
1478385472.47,-2.869804,1.262491,2.437274,0.962614,1.527508,0.798845,-0.081461,-0.952849,0.292306,0.464014,-0.106721,-0.164498,-20.159866,-50.808167,-4.028992,,,,,,
1478385472.49,-2.802581,1.235838,2.393499,1.120960,1.193963,1.234119,-0.109321,-0.944424,0.310020,0.460273,-0.032535,-0.131202,-21.587524,-51.107285,-3.142334,,,,,,
1478385472.51,-2.725961,1.203778,2.340938,1.193270,1.698161,1.523038,-0.144885,-0.933401,0.328283,0.268146,-0.283365,0.143900,-23.764740,-51.406708,-2.563171,,,,,,
,,,,,,,,,,,,,,,,37.354367,-122.033623,39.931702,1.580000,261.914062,1478385562.00
1478385472.53,-2.631910,1.165726,2.294948,1.383363,2.960503,1.727704,-0.192274,-0.919075,0.343995,0.195051,-0.279778,0.158126,-23.764740,-51.406708,-2.563171,,,,,,
1478385472.55,-2.527864,1.119568,2.246360,1.415289,2.929476,2.335607,-0.251142,-0.899912,0.356491,0.666593,-0.591009,-0.126877,-25.190399,-51.331039,-1.902649,,,,,,
1478385472.57,-2.418986,1.061593,2.188510,1.490208,2.888526,3.171131,-0.322392,-0.873133,0.365652,0.867756,-0.882253,-0.198752,-26.541840,-51.555756,-1.615540,,,,,,
1478385472.59,-2.313258,0.987409,2.132263,1.706599,2.861769,3.900098,-0.405873,-0.834601,0.372435,1.104222,-1.171929,-0.322477,-30.210815,-50.055267,-1.131714,,,,,,
1478385472.61,-2.216833,0.896424,2.086465,1.992315,3.146014,4.647135,-0.498574,-0.781099,0.375909,1.151910,-1.567030,-0.559747,-33.729233,-48.555161,-1.021423,,,,,,
1478385472.63,-2.120690,0.790949,2.065329,2.836065,4.785439,4.680892,-0.599509,-0.711021,0.367475,2.069068,-2.415856,-0.544019,-33.729233,-48.555161,-1.021423,,,,,,
1478385472.65,-2.038528,0.689876,2.082552,2.953130,4.102647,3.854395,-0.688479,-0.636442,0.347762,3.246005,-2.032183,-0.878279,-35.516037,-45.855865,-1.722351,,,,,,
1478385472.67,-2.004652,0.590209,2.086664,2.039591,-0.033451,5.121398,-0.753850,-0.556535,0.349255,1.776586,-2.302001,-0.340344,-35.951157,-42.856781,-2.635681,,,,,,
1478385472.69,-2.099107,0.469991,2.060475,1.282426,-7.663422,5.790361,-0.770015,-0.452878,0.449420,1.321712,-1.894076,0.494840,-39.218460,-35.205627,-1.491333,,,,,,
1478385472.71,-2.196453,0.417672,2.025730,-0.304320,-3.857401,0.991239,-0.740898,-0.405634,0.535286,1.442375,-1.028113,-0.393364,-42.134140,-31.224899,4.242554,,,,,,
1478385472.73,-2.245564,0.433887,2.031403,-0.423893,-1.631766,-1.410002,-0.708497,-0.420401,0.566829,1.191438,-0.167398,-0.414622,-42.134140,-31.224899,4.242554,,,,,,
1478385472.75,-2.254695,0.484411,2.035927,-1.961246,0.121032,-2.664320,-0.685938,-0.465687,0.559129,1.186716,-0.081478,-0.264024,-42.136475,-31.072876,6.267090,,,,,,
1478385472.77,-2.264956,0.577396,2.046871,-2.965110,-0.331163,-4.560555,-0.643993,-0.545844,0.536030,0.671580,-0.123010,-0.774738,-41.016342,-31.972336,6.806030,,,,,,
1478385472.79,-2.264969,0.700345,2.060376,-3.791194,0.798004,-5.270454,-0.587674,-0.644482,0.489165,0.832349,0.106121,-0.235915,-39.751724,-34.598282,5.851501,,,,,,
1478385472.81,-2.262779,0.841810,2.073277,-4.338583,0.357084,-6.098510,-0.512896,-0.745850,0.425024,0.462984,0.361802,-0.471838,-32.273834,-41.278595,0.546387,,,,,,
1478385472.83,-2.279045,1.002862,2.103026,-4.604459,0.378704,-7.152377,-0.408530,-0.843014,0.349901,0.410834,0.326031,-0.050051,-32.273834,-41.278595,0.546387,,,,,,
1478385472.85,-2.349338,1.185155,2.186621,-4.782793,0.173353,-8.563571,-0.267798,-0.926557,0.264151,-0.048425,0.160261,0.185922,-27.181473,-44.207291,-3.143921,,,,,,
1478385472.87,-2.662300,1.370238,2.511590,-4.415109,-0.302368,-9.463851,-0.091869,-0.979955,0.176769,-0.403874,-0.128916,0.345173,-20.810532,-46.536560,-7.423279,,,,,,
1478385472.89,2.332001,1.437072,-2.496614,-4.179021,-1.995446,-9.145434,0.096529,-0.991072,0.091967,-0.992677,-0.981569,0.541562,-13.535233,-47.815613,-11.471741,,,,,,
1478385472.91,1.590160,1.308802,-1.794656,-3.696719,-2.723899,-7.390112,0.258959,-0.965875,0.005015,-2.008196,-2.412741,1.314077,0.511475,-45.422913,-18.763367,,,,,,
1478385472.93,1.370054,1.189617,-1.647605,-2.173229,-5.039527,-4.565791,0.364545,-0.928226,-0.074179,-2.435529,-1.748333,1.461630,0.511475,-45.422913,-18.763367,,,,,,
1478385472.95,1.237264,1.144420,-1.634795,0.031377,-6.340430,-0.710667,0.390783,-0.910470,-0.135397,-2.688848,0.340082,2.366491,2.926208,-43.025513,-21.371460,,,,,,
1478385472.97,1.194693,1.189381,-1.678329,2.644097,-2.463066,3.072870,0.346217,-0.928139,-0.136722,-3.873026,0.384147,2.966342,-0.069489,-42.577042,-22.902710,,,,,,
1478385472.99,1.289454,1.291167,-1.796030,3.680968,-0.175601,4.678257,0.265148,-0.961158,-0.076630,-2.984890,0.250937,2.202820,-3.524734,-43.777145,-23.008667,,,,,,
1478385473.01,1.570762,1.326066,-1.957549,3.302241,10.052711,-1.798820,0.242294,-0.970203,-0.000008,3.009994,-2.307568,-0.835532,-6.236969,-45.499176,-20.030640,,,,,,
1478385473.03,1.843464,1.349904,-2.227737,2.352043,-4.684475,3.814147,0.211006,-0.975702,0.059004,0.543327,-2.242910,-0.745650,-6.236969,-45.499176,-20.030640,,,,,,
