timestamp(unix),attitude_roll(radians),attitude_pitch(radians),attitude_yaw(radians),rotation_rate_x(radians/s),rotation_rate_y(radians/s),rotation_rate_z(radians/s),gravity_x(G),gravity_y(G),gravity_z(G),user_acc_x(G),user_acc_y(G),user_acc_z(G),magnetic_field_x(microteslas),magnetic_field_y(microteslas),magnetic_field_z(microteslas),latitude(degree),longitude(degree),altitude(meter),speed(m/s),course(degree),timestamp(unix)
1478386139.21,-2.027220,1.561136,0.657653,0.002552,0.064659,-0.022354,-0.008671,-0.999953,0.004258,0.001744,0.036071,-0.004761,14.256058,-35.631668,25.783081,,,,,,
,,,,,,,,,,,,,,,,37.354421,-122.033416,36.085968,0.000000,255.937500,1478386356.99
,,,,,,,,,,,,,,,,37.354421,-122.033416,36.085968,0.000000,255.937500,1478386356.00
1478386139.23,-2.079889,1.561797,0.710139,0.022085,-0.037496,-0.004441,-0.007858,-0.999960,0.004386,0.022873,-0.006205,0.001031,14.181259,-35.707047,25.407532,,,,,,
1478386139.25,-2.146204,1.561580,0.774734,0.035084,-0.095936,0.012515,-0.007732,-0.999958,0.005015,-0.001515,0.011768,0.004735,13.956039,-35.556442,26.004822,,,,,,
1478386139.27,-2.163408,1.560600,0.791473,-0.007818,0.005079,-0.004408,-0.008458,-0.999948,0.005695,-0.018108,0.009515,0.005352,13.956039,-35.556442,26.004822,,,,,,
,,,,,,,,,,,,,,,,37.354421,-122.033416,35.919891,0.000000,255.937500,1478386357.00
1478386139.29,-2.139340,1.560632,0.768573,0.004698,0.080727,-0.018065,-0.008565,-0.999948,0.005472,-0.007106,0.021921,-0.007410,14.181839,-35.406525,25.931702,,,,,,
1478386139.31,-2.159120,1.560922,0.789533,0.017624,0.041419,-0.007467,-0.008214,-0.999951,0.005480,0.003484,0.009366,-0.004503,14.255264,-35.781601,25.858521,,,,,,
1478386139.33,-2.187400,1.560644,0.818207,0.015601,0.012714,0.002067,-0.008283,-0.999948,0.005871,-0.003772,0.016397,0.002369,14.330582,-35.706604,25.859070,,,,,,
1478386139.35,-2.198397,1.560237,0.829221,0.024186,-0.009740,-0.004389,-0.008547,-0.999944,0.006200,-0.004560,0.016790,-0.002325,13.278580,-36.081390,26.074646,,,,,,
1478386139.37,-2.269680,1.560185,0.899629,0.040335,-0.065248,-0.010925,-0.008124,-0.999944,0.006827,0.004812,0.004506,-0.005194,13.278580,-36.081390,26.074646,,,,,,
1478386139.39,-2.319045,1.559721,0.947582,0.052068,-0.061785,0.007268,-0.008116,-0.999939,0.007535,0.000487,0.018829,-0.003903,14.329788,-35.856522,25.934509,,,,,,
1478386139.41,-2.364239,1.558572,0.992386,0.037939,0.018019,-0.007494,-0.008574,-0.999925,0.008713,-0.013307,0.007112,0.009735,13.955917,-35.556381,26.079834,,,,,,
1478386139.43,-2.399756,1.558039,1.029420,0.024927,0.098737,-0.036197,-0.008619,-0.999919,0.009405,-0.016878,0.004283,0.004511,14.704117,-35.931290,26.163452,,,,,,
1478386139.45,-2.462382,1.558234,1.093668,0.035708,0.056015,-0.042706,-0.007891,-0.999921,0.009774,-0.002256,0.009458,-0.011926,13.504715,-35.781235,26.226013,,,,,,
1478386139.47,-2.551027,1.557930,1.182540,0.044489,-0.017419,-0.029003,-0.007164,-0.999917,0.010687,0.000847,0.020547,0.003611,13.504715,-35.781235,26.226013,,,,,,
1478386139.49,-2.617150,1.557090,1.247853,0.038223,-0.048198,-0.013072,-0.006863,-0.999906,0.011864,-0.000721,0.009824,0.010429,14.180923,-35.556381,26.082092,,,,,,
1478386139.51,-2.679728,1.556298,1.309884,0.011348,0.015423,-0.038586,-0.006461,-0.999895,0.012979,-0.004755,0.011110,0.025931,14.556931,-35.481827,25.635620,,,,,,
1478386139.53,-2.694384,1.556530,1.325028,0.025130,0.044518,-0.019248,-0.006169,-0.999898,0.012863,-0.009883,0.024190,-0.013596,13.506180,-35.406082,26.374878,,,,,,
1478386139.55,-2.733053,1.556161,1.364598,0.001718,0.034749,-0.025727,-0.005814,-0.999893,0.013431,0.008408,0.014175,0.011334,13.957840,-35.106293,26.153503,,,,,,
1478386139.57,-2.759024,1.556278,1.391422,0.008095,0.045611,-0.011797,-0.005419,-0.999895,0.013468,-0.002607,0.004457,-0.007929,13.957840,-35.106293,26.153503,,,,,,
1478386139.59,-2.787060,1.556231,1.420514,0.003868,0.046479,-0.027878,-0.005056,-0.999894,0.013659,-0.001734,0.013612,0.002393,14.181625,-35.331146,26.306458,,,,,,
1478386139.61,-2.783433,1.556301,1.417399,0.017808,0.030856,-0.000116,-0.005081,-0.999895,0.013575,-0.006058,0.020616,-0.011225,13.430710,-35.481003,26.449341,,,,,,
1478386139.63,-2.792566,1.555713,1.427546,-0.002505,0.050979,-0.006506,-0.005158,-0.999886,0.014174,-0.004607,0.016442,0.019228,13.505142,-35.555862,26.600342,,,,,,
1478386139.65,-2.822311,1.555842,1.458787,-0.003741,0.092299,-0.030969,-0.004694,-0.999888,0.014198,0.001001,-0.017232,0.000954,13.881973,-35.331375,26.078430,,,,,,
1478386139.67,-2.887719,1.556348,1.525987,-0.014345,0.071856,-0.041729,-0.003629,-0.999896,0.013985,0.010907,-0.004682,-0.004586,13.881973,-35.331375,26.078430,,,,,,
1478386139.69,-2.994643,1.557871,1.632735,-0.011937,-0.038664,-0.093315,-0.001893,-0.999916,0.012786,0.018326,0.000451,-0.021072,14.031265,-35.481369,26.080383,,,,,,
1478386139.71,3.113014,1.558561,1.806589,0.072366,-0.098427,-0.120043,0.000350,-0.999925,0.012230,-0.015898,-0.006834,-0.032372,13.655380,-35.556000,26.451843,,,,,,
1478386139.73,2.891643,1.556071,2.026183,0.172193,-0.068741,-0.256543,0.003642,-0.999892,0.014267,-0.033961,-0.008791,-0.055222,14.332291,-35.256378,26.082703,,,,,,
1478386139.75,2.649338,1.548454,2.268163,0.334870,-0.010982,-0.385421,0.010559,-0.999750,0.019688,-0.019576,-0.025884,-0.074559,14.558304,-34.880920,26.533875,,,,,,
1478386139.77,2.545414,1.538008,2.371492,0.516011,-0.043818,-0.421521,0.018407,-0.999462,0.027127,-0.040578,0.035672,-0.101087,14.558304,-34.880920,26.533875,,,,,,
1478386139.79,2.533792,1.523024,2.382706,0.646808,0.009570,-0.459609,0.027271,-0.998859,0.039202,-0.057682,0.064945,-0.071886,14.709091,-34.730988,26.459900,,,,,,
1478386139.81,2.528824,1.506478,2.389646,0.704816,0.160606,-0.518924,0.036966,-0.997932,0.052580,-0.038370,0.012932,-0.036360,14.635239,-34.205170,27.282593,,,,,,
1478386139.83,2.534926,1.488291,2.386892,0.774203,0.129184,-0.491111,0.046985,-0.996598,0.067705,-0.024280,0.009599,-0.039751,16.137894,-33.454712,27.745422,,,,,,
1478386139.85,2.534611,1.469305,2.386646,0.877204,-0.114134,-0.524725,0.057790,-0.994854,0.083219,0.063563,0.003308,-0.095426,16.365250,-32.704041,28.420349,,,,,,
1478386139.87,2.542199,1.447892,2.371856,0.970162,-0.531102,-0.531053,0.069161,-0.992457,0.101224,0.080909,0.011271,-0.105298,16.365250,-32.704041,28.420349,,,,,,
1478386139.89,2.552772,1.424674,2.344712,1.123954,-0.958979,-0.487088,0.080865,-0.989343,0.121083,0.054862,0.023050,-0.086644,17.042740,-31.878204,29.249695,,,,,,
1478386139.91,2.560249,1.399688,2.314107,1.194089,-1.238422,-0.497351,0.093506,-0.985397,0.142303,0.034241,-0.056580,-0.074477,17.044846,-31.202606,29.847656,,,,,,
1478386139.93,2.558932,1.372828,2.288028,1.309583,-1.410693,-0.572413,0.108222,-0.980468,0.164226,-0.003653,-0.121934,-0.121303,20.052719,-29.176758,30.696716,,,,,,
1478386139.95,2.549404,1.342442,2.267629,1.422558,-1.501775,-0.728457,0.126358,-0.974040,0.187828,-0.028961,-0.169194,-0.151024,21.707504,-28.051590,30.859924,,,,,,
1478386139.97,2.531031,1.308781,2.254957,1.495990,-1.548057,-0.873762,0.148508,-0.965870,0.212228,-0.059457,-0.161175,-0.279977,21.707504,-28.051590,30.859924,,,,,,
1478386139.99,2.507618,1.273782,2.248237,1.456055,-1.439595,-0.982512,0.173361,-0.956215,0.235795,-0.090247,-0.177010,-0.320848,22.086349,-26.925766,31.685242,,,,,,
1478386140.01,2.482906,1.239348,2.247878,1.304616,-1.101897,-1.072663,0.199178,-0.945572,0.257335,-0.122823,-0.183670,-0.415264,23.670120,-25.050980,31.470459,,,,,,
1478386140.03,2.457089,1.207626,2.258996,1.016208,-0.579134,-1.171090,0.224614,-0.934775,0.275216,-0.130803,-0.131280,-0.491295,25.850815,-23.775970,31.488464,,,,,,
1478386140.05,2.430991,1.178944,2.279752,0.763553,-0.224422,-1.234659,0.249110,-0.924203,0.289469,-0.122066,-0.070319,-0.504908,28.635818,-21.375427,32.034119,,,,,,
1478386140.07,2.403300,1.152913,2.307498,0.539212,-0.059556,-1.298701,0.273132,-0.913950,0.300157,-0.051559,-0.085959,-0.443453,28.635818,-21.375427,32.034119,,,,,,
1478386140.09,2.373737,1.128389,2.339169,0.378336,-0.062511,-1.317152,0.297367,-0.903724,0.307987,-0.022693,-0.095178,-0.349522,28.339340,-20.399826,32.628235,,,,,,
1478386140.11,2.343394,1.105467,2.370349,0.321094,-0.136013,-1.288606,0.321326,-0.893674,0.313204,-0.033088,-0.060306,-0.273180,29.995377,-19.125031,32.415955,,,,,,
1478386140.13,2.317953,1.082360,2.398172,0.318323,0.066874,-1.276300,0.344250,-0.883068,0.318878,-0.066631,0.006237,-0.096070,30.299545,-18.225113,32.341309,,,,,,
1478386140.15,2.300434,1.059383,2.426108,0.264533,0.536758,-1.318907,0.364814,-0.872054,0.326240,-0.147910,0.103148,0.138695,30.380722,-16.724747,32.712585,,,,,,
1478386140.17,2.295161,1.035483,2.452737,0.338331,1.098236,-1.326849,0.382032,-0.860109,0.338030,-0.198271,0.232011,0.380568,30.380722,-16.724747,32.712585,,,,,,
1478386140.19,2.304465,1.011151,2.469419,0.619895,1.111822,-1.081654,0.394301,-0.847443,0.355480,-0.262709,0.426850,0.537067,30.835922,-15.524597,32.863525,,,,,,
1478386140.21,2.328942,0.985072,2.458957,1.473593,0.573777,-0.563464,0.401397,-0.833312,0.380094,-0.269988,0.612319,0.696215,30.464737,-14.549225,33.231873,,,,,,
1478386140.23,2.372126,0.949849,2.414216,2.463712,0.229722,-0.284898,0.404793,-0.813328,0.417901,-0.154015,0.709217,0.711189,30.618118,-13.423096,34.355072,,,,,,
1478386140.25,2.425538,0.907174,2.360671,2.711144,0.811520,-0.254020,0.404334,-0.787766,0.464692,-0.003516,1.024033,0.584807,30.175003,-11.547058,35.395020,,,,,,
1478386140.27,2.483758,0.865314,2.306378,2.850816,0.685788,0.253378,0.396436,-0.761299,0.513091,0.028598,1.591240,0.304764,30.175003,-11.547058,35.395020,,,,,,
1478386140.29,2.513135,0.817709,2.243144,2.279423,-2.212155,0.101242,0.402060,-0.729581,0.553226,-0.118140,0.911435,-1.352543,28.840012,-7.570129,37.319733,,,,,,
,,,,,,,,,,,,,,,,37.354421,-122.033416,35.570129,0.000000,255.937500,1478386358.00
1478386140.31,2.517305,0.780907,2.224027,1.876735,1.108587,-1.208757,0.415170,-0.703924,0.576303,0.571814,-0.822031,0.947134,30.203140,-4.645126,37.324585,,,,,,
1478386140.33,2.545227,0.734191,2.244875,1.330237,2.245977,-1.585868,0.416946,-0.669987,0.614226,0.707917,-2.422603,0.151200,30.061386,-2.694763,37.692322,,,,,,
1478386140.35,2.578925,0.699159,2.240435,1.753745,0.903418,-0.569550,0.408289,-0.643574,0.647388,-0.135172,0.378865,-0.056675,27.818192,-0.593002,39.463562,,,,,,
1478386140.37,2.577629,0.666862,2.221315,1.700158,-1.336926,0.031058,0.420024,-0.618523,0.664085,-0.448955,0.649666,-0.063514,27.818192,-0.593002,39.463562,,,,,,
1478386140.39,2.575534,0.642350,2.195905,1.396973,-0.427504,0.146285,0.429418,-0.599078,0.675800,0.057292,0.117114,0.422177,27.300186,1.132538,39.978241,,,,,,
1478386140.41,2.584639,0.626922,2.184525,0.693547,0.261648,-0.007964,0.428082,-0.586654,0.687446,0.399524,-0.596802,0.305962,28.740250,4.206696,39.158417,,,,,,
1478386140.43,2.592458,0.620865,2.173207,0.358633,-0.104750,0.332340,0.424541,-0.581739,0.693790,0.065343,-0.357073,0.388912,28.517258,4.807144,39.604401,,,,,,
1478386140.45,2.590089,0.626327,2.168321,-0.490976,-0.277145,0.280172,0.424512,-0.586173,0.690066,0.094760,-0.340981,0.538862,27.993607,5.107147,39.598267,,,,,,
1478386140.47,2.581653,0.650685,2.175766,-1.578555,-0.184428,0.519999,0.422607,-0.605731,0.674160,0.372299,-0.760617,0.674198,27.993607,5.107147,39.598267,,,,,,
1478386140.49,2.573280,0.691635,2.183364,-1.922079,-0.111196,1.039924,0.414532,-0.637797,0.649136,0.240558,-1.474538,0.436008,28.892929,4.806702,39.158142,,,,,,
1478386140.51,2.579153,0.730352,2.178300,-1.292214,0.179505,1.148662,0.397240,-0.667132,0.630187,0.052238,-2.311429,-0.642455,29.027084,1.206497,38.945251,,,,,,
1478386140.53,2.561704,0.755817,2.182498,-1.173506,-1.714633,0.217336,0.398736,-0.685884,0.608747,-0.085366,-2.808394,-1.722807,27.966843,-1.043442,39.016418,,,,,,
1478386140.55,2.496418,0.776773,2.188956,-0.832187,-3.341282,0.525434,0.428862,-0.700981,0.569827,-0.396940,-1.700691,-0.682376,29.764236,-2.094849,37.612549,,,,,,
1478386140.57,2.457978,0.764316,2.182847,1.615567,-1.325150,-0.921021,0.455924,-0.692044,0.559651,-0.385962,-0.694202,0.232829,29.764236,-2.094849,37.612549,,,,,,
1478386140.59,2.451449,0.695025,2.190027,2.837034,0.558278,-3.444808,0.488970,-0.640405,0.592276,-0.725084,0.121560,0.034937,32.687820,-3.071838,35.619720,,,,,,
1478386140.61,2.456894,0.551756,2.228149,5.509906,2.151534,-6.949815,0.538589,-0.524183,0.659662,-1.133987,0.086790,-0.298120,33.522354,-1.272797,34.647736,,,,,,
1478386140.63,2.472579,0.385201,2.277633,4.987358,1.571712,-6.461914,0.574765,-0.375746,0.726953,-1.251324,-2.133303,-0.920678,30.725571,10.802948,35.408447,,,,,,
1478386140.65,2.492070,0.228528,2.298367,5.752583,0.720392,-5.253470,0.589082,-0.226544,0.775667,-0.433000,-3.117267,-1.021960,29.033127,18.078064,35.519714,,,,,,
1478386140.67,2.462038,0.080403,2.310630,5.207447,-2.736246,-4.750016,0.626416,-0.080316,0.775340,0.129474,-3.094077,-1.374171,29.033127,18.078064,35.519714,,,,,,
1478386140.69,2.381968,-0.049292,2.304161,5.034993,-4.538608,-3.627020,0.687813,0.049272,0.724214,0.317635,-2.314150,-1.403566,26.667618,25.050995,33.450134,,,,,,
1478386140.71,2.282767,-0.147330,2.279039,3.752497,-4.763541,-1.958858,0.748874,0.146798,0.646249,-0.325657,-2.585305,-0.709588,26.248093,30.522079,29.529541,,,,,,
1478386140.73,2.207466,-0.198278,2.249007,2.149213,-2.512398,-0.693648,0.788326,0.196981,0.582872,-0.705578,-2.342352,-0.218447,29.295547,38.012939,20.387573,,,,,,
1478386140.75,2.193593,-0.211667,2.236389,0.024553,0.644704,0.108384,0.794122,0.210090,0.570291,-1.127710,-1.430900,0.280051,29.978622,38.985458,17.916443,,,,,,
1478386140.77,2.242146,-0.181274,2.258662,-2.906978,2.933807,0.857476,0.770154,0.180283,0.611851,-1.138104,-0.951630,0.406536,29.978622,38.985458,17.916443,,,,,,
1478386140.79,2.319505,-0.094783,2.309837,-5.884744,3.655552,2.174851,0.729281,0.094641,0.677638,-0.949267,-0.600287,0.367650,29.675583,38.686584,19.039307,,,,,,
1478386140.81,2.380811,0.060217,2.364223,-8.074286,2.287726,4.570161,0.688238,-0.060181,0.722984,-0.646109,-0.272949,0.143379,28.157028,35.990860,23.307190,,,,,,
1478386140.83,2.390439,0.262638,2.370941,-7.007530,-0.547965,7.863504,0.659079,-0.259629,0.705838,-0.109350,0.222337,0.026095,29.206192,22.275284,32.733826,,,,,,
1478386140.85,2.394618,0.470402,2.331249,-5.934474,-0.091047,8.348487,0.605627,-0.453244,0.654053,0.348154,0.482694,0.718658,31.486313,12.751602,34.060242,,,,,,
1478386140.87,2.422638,0.660603,2.298003,-7.143935,0.576709,6.741313,0.520044,-0.613593,0.594187,0.568045,0.715277,-0.514505,31.486313,12.751602,34.060242,,,,,,
1478386140.89,2.420344,0.857268,2.308178,-7.411248,-0.020459,6.148327,0.432185,-0.756058,0.491521,0.383977,1.050827,0.229762,31.820450,3.902313,34.765076,,,,,,
1478386140.91,2.415498,1.048696,2.305455,-6.870048,-0.476177,6.598889,0.331116,-0.866774,0.372916,0.508087,1.413740,0.875635,30.126236,-6.073135,34.328094,,,,,,
1478386140.93,2.423089,1.239344,2.287017,-6.897741,-0.238436,6.410384,0.214208,-0.945571,0.244971,0.878504,1.479262,2.086236,28.968033,-14.325729,31.716248,,,,,,
1478386140.95,2.506658,1.395493,2.217025,-4.414577,1.395364,5.016360,0.103445,-0.984674,0.140417,1.613520,0.862848,3.355891,22.166824,-28.133041,24.414734,,,,,,
1478386140.97,2.899846,1.471703,1.861070,-0.959526,1.916324,2.885890,0.023684,-0.995094,0.096054,2.171873,0.142509,3.554122,22.166824,-28.133041,24.414734,,,,,,
1478386140.99,3.113215,1.451509,1.663471,1.773865,0.629679,0.094251,0.003377,-0.992894,0.118957,3.067287,0.336293,3.140320,17.054153,-31.434509,22.948486,,,,,,
1478386141.01,3.130379,1.413910,1.659916,2.497205,-0.192291,-0.245442,0.001752,-0.987719,0.156234,2.612796,1.905153,1.983979,15.403183,-31.584305,23.157410,,,,,,
1478386141.03,2.894645,1.325919,1.856476,6.426020,-1.310122,-4.641445,0.059263,-0.970167,0.235083,2.149706,2.079313,4.587244,15.630203,-30.607727,24.731750,,,,,,
1478386141.05,2.711784,1.146767,2.083695,3.039823,1.251379,-5.957654,0.171444,-0.911438,0.374015,0.441288,-6.433807,-2.463340,20.984909,-21.675720,31.733459,,,,,,
1478386141.07,2.695132,1.041000,2.152619,3.370202,2.797252,-1.897096,0.218201,-0.862910,0.455823,0.949188,0.807322,1.232608,20.984909,-21.675720,31.733459,,,,,,
1478386141.09,2.765929,0.971493,2.107218,3.618787,-0.434691,-0.162957,0.206951,-0.825729,0.524732,0.787449,1.758071,-0.545270,20.925583,-17.247879,34.569672,,,,,,
1478386141.11,2.733602,0.910936,2.116697,2.229221,-0.930789,-1.505473,0.243220,-0.790078,0.562690,0.795736,-1.100593,1.277550,19.661728,-14.171097,36.347778,,,,,,
1478386141.13,2.730988,0.880613,2.113967,0.844528,-0.089326,-0.311071,0.254139,-0.771129,0.583758,0.569057,-0.750660,0.910703,21.699112,-11.170349,37.109161,,,,,,
1478386141.15,2.717262,0.875898,2.122864,-0.265827,-0.401983,-0.499768,0.263622,-0.768119,0.583521,0.255238,-1.291329,0.613043,22.081100,-9.444824,37.632782,,,,,,
1478386141.17,2.706525,0.873379,2.144165,0.080012,0.943938,-0.671753,0.270687,-0.766503,0.582410,0.110539,-2.842017,-0.227796,22.081100,-9.444824,37.632782,,,,,,
1478386141.19,2.720659,0.864907,2.164409,0.147104,1.145721,-0.952077,0.265072,-0.761035,0.592083,0.172688,-3.320096,-1.873028,21.930557,-9.594894,37.556702,,,,,,
1478386141.21,2.673197,0.841006,2.196099,0.775953,-2.656100,-1.838616,0.300991,-0.745314,0.594904,-0.342007,-2.867754,-2.257914,21.330307,-9.519531,37.925476,,,,,,
1478386141.23,2.575258,0.776329,2.227939,3.572970,-3.770132,-3.065500,0.382818,-0.700665,0.602096,-0.600469,-1.388599,-0.771972,22.385849,-8.394821,37.632660,,,,,,
1478386141.25,2.513260,0.665877,2.241627,4.263476,-1.891991,-3.813438,0.462229,-0.617749,0.636184,-0.711969,-0.599460,-0.037933,26.601517,-5.170609,36.840149,,,,,,
1478386141.27,2.469651,0.536341,2.264926,5.104506,-1.746967,-5.244330,0.535097,-0.510994,0.672723,-1.847948,-1.236381,-1.051202,26.601517,-5.170609,36.840149,,,,,,
,,,,,,,,,,,,,,,,37.354421,-122.033416,35.299347,0.000000,255.937500,1478386359.00
1478386141.29,2.397193,0.393933,2.286859,4.599627,-3.417033,-5.269034,0.625636,-0.383823,0.679161,-1.781642,-3.094800,-1.341362,30.482315,6.602509,34.968628,,,,,,
1478386141.31,2.330416,0.262172,2.281792,4.958626,-3.442400,-3.932952,0.700321,-0.259179,0.665114,-1.243457,-2.965858,-1.365020,32.689133,12.975418,32.871582,,,,,,
1478386141.33,2.251163,0.148381,2.260856,4.230853,-4.805501,-3.472136,0.768801,-0.147837,0.622166,-1.251726,-1.851263,-1.225178,33.921951,19.121964,29.415466,,,,,,
1478386141.35,2.152715,0.057205,2.237762,3.189820,-4.672755,-2.665854,0.834043,-0.057173,0.548729,-1.126523,-2.072130,-1.111885,35.299088,23.843063,25.515076,,,,,,
1478386141.37,2.097678,-0.004965,2.223175,1.784408,-1.340359,-2.064021,0.864369,0.004965,0.502834,-1.059757,-2.544546,-0.099666,35.299088,23.843063,25.515076,,,,,,
1478386141.39,2.116644,-0.038904,2.222762,0.064839,2.143804,-1.076616,0.854041,0.038894,0.518750,-1.016928,-2.065551,0.342441,37.275497,28.113266,20.722107,,,,,,
1478386141.41,2.188410,-0.027360,2.258337,-2.989823,4.047054,-0.163194,0.814958,0.027356,0.578874,-0.969407,-0.873639,0.408232,36.168716,31.636673,19.125427,,,,,,
1478386141.43,2.276377,0.044500,2.326293,-6.039562,4.417279,1.407373,0.760482,-0.044485,0.647834,-0.767745,-0.448069,0.493325,33.531387,30.215622,23.078308,,,,,,
1478386141.45,2.325812,0.194568,2.399935,-8.551764,1.617039,4.319571,0.714519,-0.193343,0.672369,-0.552532,-0.167329,0.196619,31.253677,25.871094,28.543579,,,,,,
1478386141.47,2.323754,0.390046,2.408646,-5.771860,-1.028874,8.135671,0.674865,-0.380231,0.632441,-0.024612,0.529478,0.157964,31.253677,25.871094,28.543579,,,,,,
1478386141.49,2.316402,0.587345,2.366162,-5.172927,-1.086995,8.175016,0.611556,-0.554153,0.564724,0.152314,0.882766,0.565510,31.436325,17.699783,32.244873,,,,,,
1478386141.51,2.316483,0.763012,2.346013,-5.995556,-0.533813,6.414346,0.530954,-0.691101,0.490374,-0.042215,0.670624,-0.326082,34.282364,0.074570,32.026245,,,,,,
1478386141.53,2.296696,0.951321,2.373609,-7.226957,0.498358,6.553938,0.434238,-0.814183,0.385413,0.055294,0.795522,0.559167,32.895340,-8.476395,31.063049,,,,,,
1478386141.55,2.266191,1.160223,2.415066,-7.628477,0.064350,7.775390,0.306456,-0.916892,0.255721,0.341142,1.160956,1.450806,30.686539,-16.879089,28.366089,,,,,,
1478386141.57,2.292860,1.375100,2.385179,-5.775256,0.205201,8.535444,0.145924,-0.980912,0.128519,0.898525,1.588472,2.661688,30.686539,-16.879089,28.366089,,,,,,
1478386141.59,3.135441,1.522032,1.579107,-3.247091,2.925222,6.138032,0.000300,-0.998811,0.048744,1.644994,0.568025,3.510308,26.830063,-25.132858,24.602295,,,,,,
1478386141.61,-1.806934,1.491436,0.298599,0.198870,2.757348,2.179719,-0.077077,-0.996853,0.018547,2.993138,-0.690281,4.004509,20.882156,-31.436493,20.961792,,,,,,
1478386141.63,-1.861449,1.470404,0.408424,0.270440,2.051939,0.814596,-0.096020,-0.994965,0.028722,4.475888,0.476807,1.451091,10.817337,-34.886963,20.496460,,,,,,
1478386141.65,-2.504407,1.451911,1.013266,6.700473,-1.694714,-4.317225,-0.070563,-0.992941,0.095332,5.163626,2.551489,7.740010,10.970352,-34.061508,20.945557,,,,,,
1478386141.67,2.891141,1.270007,2.016153,2.720262,5.013350,-7.696869,0.073429,-0.955103,0.287031,0.128338,-5.261496,-4.931135,10.970352,-34.061508,20.945557,,,,,,
1478386141.69,2.790721,1.115622,2.134248,5.526053,-1.837635,-2.160379,0.151104,-0.898184,0.412835,1.155933,-0.004877,1.919212,14.134079,-28.880112,27.336670,,,,,,
1478386141.71,2.837437,1.033649,2.070659,4.444901,-1.249139,0.540330,0.153244,-0.859172,0.488201,0.930069,1.747066,0.202519,15.728226,-22.950089,32.359741,,,,,,
1478386141.73,2.805532,0.970856,2.077790,2.463775,-0.656322,-2.184894,0.186186,-0.825369,0.533010,0.743913,0.514624,1.503534,18.307632,-15.071045,36.411926,,,,,,
1478386141.75,2.785383,0.925801,2.114648,1.080841,0.869109,-1.173445,0.209651,-0.799103,0.563455,0.347264,-2.282318,1.022330,19.216843,-12.820450,37.014282,,,,,,
1478386141.77,2.780443,0.913646,2.141768,0.202976,0.980077,-0.989830,0.215848,-0.791736,0.571457,0.516650,-1.594906,0.589416,19.216843,-12.820450,37.014282,,,,,,
1478386141.79,2.786539,0.895060,2.167155,0.491268,1.384429,-1.086511,0.217439,-0.780247,0.586460,0.492873,-2.950283,-0.863468,19.069839,-11.919769,37.685089,,,,,,
1478386141.81,2.779147,0.878582,2.185900,1.117374,-0.993077,-0.745793,0.226297,-0.769834,0.596779,0.538642,-3.569826,-1.902443,17.869492,-11.844254,38.197876,,,,,,
1478386141.83,2.698233,0.853100,2.212476,1.406902,-3.750045,-1.870443,0.282117,-0.753323,0.594066,-0.204968,-2.216251,-1.621669,17.196701,-11.243973,38.489349,,,,,,
1478386141.85,2.612371,0.764893,2.235845,4.291835,-2.768622,-3.153378,0.364236,-0.692460,0.622761,-0.258859,-0.636840,0.475154,23.892227,-7.120255,37.193878,,,,,,
1478386141.87,2.587809,0.633901,2.253668,5.738742,0.374211,-4.658307,0.423737,-0.592292,0.685300,-0.727753,-0.469948,0.420474,23.892227,-7.120255,37.193878,,,,,,
1478386141.89,2.548965,0.481235,2.294205,4.660501,-2.995754,-5.664154,0.495106,-0.462874,0.735267,-1.701694,-2.265016,-1.276801,25.943405,-1.270172,37.271851,,,,,,
1478386141.91,2.435223,0.339788,2.317585,5.484259,-5.624022,-4.845158,0.611966,-0.333287,0.717229,-1.435742,-3.356135,-1.970448,25.375290,6.005402,37.844360,,,,,,
1478386141.93,2.367868,0.208122,2.319424,4.445771,-2.433182,-4.237733,0.683725,-0.206623,0.699877,-1.335656,-2.104382,-1.571596,29.382553,12.227554,35.015717,,,,,,
1478386141.95,2.299881,0.094629,2.309757,4.241637,-4.201456,-3.555957,0.742448,-0.094488,0.663207,-1.457048,-1.305171,-1.588210,32.369858,23.921112,28.560547,,,,,,
1478386141.97,2.210600,-0.007106,2.288253,3.808336,-4.395008,-3.097822,0.802193,0.007106,0.597023,-0.994011,-1.703593,-1.165931,32.369858,23.921112,28.560547,,,,,,
1478386141.99,2.137616,-0.088132,2.265165,2.997280,-2.943230,-2.355891,0.840338,0.088018,0.534868,-1.040854,-2.493170,-0.499697,32.696182,28.341827,24.275574,,,,,,
1478386142.01,2.100502,-0.136053,2.235990,2.082683,-1.003042,-0.716390,0.854981,0.135633,0.500610,-1.178834,-3.147917,-0.065125,34.068802,32.012772,20.228333,,,,,,
1478386142.03,2.099764,-0.153129,2.226227,0.046169,0.717048,-0.356212,0.853226,0.152531,0.498738,-1.279343,-1.821629,0.233928,34.683945,34.409851,17.302307,,,,,,
1478386142.05,2.139699,-0.133037,2.242993,-1.977357,2.548064,1.066306,0.835048,0.132645,0.533948,-1.147349,-1.272568,0.196902,34.238541,35.083786,16.245728,,,,,,
1478386142.07,2.209754,-0.057126,2.271031,-4.120348,3.711009,3.056248,0.801408,0.057095,0.595386,-0.718553,-1.010327,0.082485,34.238541,35.083786,16.245728,,,,,,
1478386142.09,2.280703,0.074383,2.300755,-5.870560,3.251468,4.883215,0.756326,-0.074315,0.649961,-0.362389,-0.812526,0.168765,32.713638,31.489639,22.091309,,,,,,
1478386142.11,2.324361,0.257519,2.312804,-6.947011,1.614084,7.323525,0.705207,-0.254682,0.661680,-0.202643,-0.690188,0.317110,33.133682,26.319077,26.536011,,,,,,
1478386142.13,2.348062,0.477350,2.298385,-7.101560,0.696347,8.797291,0.633150,-0.459427,0.622935,-0.045076,-0.328217,0.316793,33.990555,17.997864,30.319580,,,,,,
1478386142.15,2.380707,0.693096,2.264462,-6.603701,0.657702,8.265976,0.530461,-0.638922,0.557126,0.136989,-0.091944,0.014575,34.392929,8.024704,32.153442,,,,,,
1478386142.17,2.407452,0.906640,2.242433,-7.713128,0.555494,7.739170,0.412954,-0.787437,0.457616,0.432124,-0.437676,0.505961,34.392929,8.024704,32.153442,,,,,,
1478386142.19,2.438412,1.130448,2.201834,-7.658391,-0.840335,8.520716,0.275636,-0.904603,0.325142,0.654387,-0.554549,0.934807,31.230362,-11.851547,30.906555,,,,,,
1478386142.21,2.595120,1.353438,2.002336,-6.863914,-2.018268,9.356501,0.112069,-0.976470,0.184244,1.298911,-0.319809,1.916937,27.444138,-21.080093,27.371338,,,,,,
1478386142.23,-2.205870,1.478110,0.500621,-5.488443,1.935058,9.526827,-0.074508,-0.995708,0.054906,4.094360,-0.511510,4.186839,22.991226,-29.035355,22.100647,,,,,,
1478386142.25,-1.431292,1.373529,-0.163801,-2.669217,6.715140,2.622573,-0.194087,-0.980606,-0.027253,5.283107,0.746338,3.340607,16.070847,-34.964539,17.924194,,,,,,
1478386142.27,-1.207916,1.366920,-0.309474,-0.426378,1.920705,-0.301370,-0.189282,-0.979289,-0.071869,3.284100,2.199199,2.454178,16.070847,-34.964539,17.924194,,,,,,
1478386142.29,-1.285011,1.376866,-0.240232,1.213318,-1.815628,-1.113317,-0.184901,-0.981254,-0.054329,2.979380,2.277321,4.875206,8.113937,-37.216705,15.751465,,,,,,
,,,,,,,,,,,,,,,,37.354421,-122.033416,35.273956,0.000000,3.164062,1478386360.00
1478386142.31,-2.525880,1.454395,1.005934,13.204281,1.367505,-9.496458,-0.067075,-0.993233,0.094811,2.946027,-3.203148,6.239127,8.715195,-36.841400,16.056335,,,,,,
1478386142.33,2.778947,1.276995,2.011713,5.992026,1.850516,-5.227576,0.102733,-0.957150,0.270758,1.550343,-6.043857,-0.883887,14.577652,-31.508713,23.748901,,,,,,
1478386142.35,2.809450,1.151577,2.000599,4.637067,0.268645,-0.199879,0.132726,-0.913407,0.384800,1.060359,1.691651,0.196239,18.496201,-25.427841,29.619873,,,,,,
1478386142.37,2.853406,1.086596,1.932368,2.617686,-1.126346,-0.129235,0.132302,-0.885047,0.446304,0.825630,2.057487,1.231674,18.496201,-25.427841,29.619873,,,,,,
1478386142.39,2.793302,1.024068,1.996057,2.283365,0.312360,-3.216805,0.177436,-0.854230,0.488680,0.253060,-1.060657,1.180525,18.961777,-20.999908,32.536255,,,,,,
1478386142.41,2.756266,0.988162,2.057665,0.499723,0.785134,-1.764484,0.206809,-0.835016,0.509880,0.460626,-1.645574,0.988334,21.005356,-16.122665,34.792023,,,,,,
1478386142.43,2.733068,0.964440,2.109744,0.849530,1.302507,-1.798779,0.226387,-0.821730,0.522981,0.658242,-1.733995,0.008987,21.909378,-15.072205,35.247925,,,,,,
1478386142.45,2.739426,0.932784,2.147255,0.937062,2.079893,-1.424677,0.233126,-0.803281,0.548080,0.354597,-2.661319,-0.983841,20.562515,-14.096390,36.056549,,,,,,
1478386142.47,2.733770,0.913223,2.174660,0.907262,-0.449876,-1.208388,0.242408,-0.791478,0.561072,0.513253,-3.074138,-1.670569,20.562515,-14.096390,36.056549,,,,,,
1478386142.49,2.660454,0.883863,2.211464,1.479288,-2.792270,-2.019427,0.293487,-0.773194,0.562171,-0.384582,-2.456847,-1.357764,19.890121,-13.270660,36.797333,,,,,,
1478386142.51,2.586672,0.795692,2.236179,4.148185,-2.538496,-3.314355,0.368703,-0.714348,0.594782,-0.411229,-1.156761,-0.093942,21.096298,-11.920715,36.730377,,,,,,
1478386142.53,2.546974,0.666682,2.251209,5.617419,-0.897042,-4.555201,0.440243,-0.618382,0.650991,-0.769985,-0.532390,-0.117132,26.077652,-5.020920,36.534485,,,,,,
1478386142.55,2.492641,0.515981,2.289304,4.284566,-3.152574,-5.985795,0.525670,-0.493389,0.692992,-1.454457,-1.659535,-1.833480,27.759842,2.104004,36.454895,,,,,,
1478386142.57,2.385661,0.360114,2.309182,5.916727,-5.173251,-5.299381,0.641967,-0.352381,0.680960,-1.666350,-3.260077,-1.931372,27.759842,2.104004,36.454895,,,,,,
1478386142.59,2.311603,0.222260,2.298773,4.708285,-3.608346,-4.343078,0.719773,-0.220434,0.658283,-1.498124,-3.020105,-1.196567,30.266769,8.627289,34.735382,,,,,,
1478386142.61,2.218080,0.101236,2.288922,4.115058,-5.564182,-4.233032,0.793640,-0.101063,0.599935,-1.400940,-2.261791,-1.276311,33.229996,15.898621,31.068237,,,,,,
1478386142.63,2.096667,-0.002678,2.265091,3.619737,-6.093152,-3.249195,0.864884,0.002678,0.501964,-1.366654,-2.109444,-0.987621,35.993637,27.064682,22.137390,,,,,,
1478386142.65,1.998117,-0.074430,2.238913,2.299838,-3.960089,-2.219938,0.907560,0.074362,0.413287,-1.303663,-2.527120,-0.275835,37.667770,30.659363,16.818359,,,,,,
1478386142.67,1.956797,-0.108478,2.221240,0.930691,-0.777670,-0.517979,0.920977,0.108265,0.374274,-1.505556,-2.497929,0.234278,37.667770,30.659363,16.818359,,,,,,
1478386142.69,1.990327,-0.101159,2.227861,-1.400166,3.301659,0.458246,0.908611,0.100987,0.405250,-1.306652,-1.113865,0.558755,38.434647,33.205765,13.218384,,,,,,
1478386142.71,2.107991,-0.056039,2.273577,-4.057592,6.893870,1.403716,0.857799,0.056010,0.510924,-0.938549,-0.622645,0.612458,38.137466,33.805695,13.138611,,,,,,
1478386142.73,2.246109,0.058269,2.344207,-7.733287,6.074069,3.509475,0.779187,-0.058236,0.624080,-0.730694,-0.540305,0.746678,34.424423,29.016693,24.140808,,,,,,
1478386142.75,2.285998,0.271170,2.421824,-10.431884,0.583374,6.991964,0.727374,-0.267858,0.631806,-0.422213,-0.466288,0.713012,33.552841,20.622559,30.007324,,,,,,
1478386142.77,2.286056,0.500144,2.418912,-5.206007,-0.135580,9.400891,0.662455,-0.479552,0.575485,0.261022,0.072860,0.726502,33.552841,20.622559,30.007324,,,,,,
1478386142.79,2.318410,0.699452,2.361738,-5.303551,0.277916,8.493700,0.561128,-0.643799,0.520249,0.361236,0.566818,0.668456,34.548538,9.224548,32.001465,,,,,,
1478386142.81,2.342803,0.894261,2.350483,-7.239865,0.962103,6.702606,0.448605,-0.779746,0.436748,0.578281,0.514900,-0.287319,33.681686,-0.075439,32.020691,,,,,,
1478386142.83,2.316957,1.093809,2.370709,-6.939556,-1.401002,7.189170,0.337121,-0.888382,0.311652,0.556952,0.357590,0.600412,31.842941,-8.926163,31.278870,,,,,,
1478386142.85,2.312260,1.301152,2.338638,-6.314010,-1.473884,8.573666,0.196456,-0.963866,0.179910,0.966157,0.435408,1.787894,26.303177,-25.658157,24.298645,,,,,,
1478386142.87,2.784836,1.498632,1.853084,-5.119057,0.562940,8.534337,0.025181,-0.997397,0.067562,1.764217,0.428412,2.918873,26.303177,-25.658157,24.298645,,,,,,
1478386142.89,-1.473178,1.459468,-0.117461,-2.770491,4.081533,5.332150,-0.110569,-0.993809,-0.010828,2.873890,-0.112987,3.654490,20.956253,-32.112915,19.539551,,,,,,
1478386142.91,-1.198319,1.415288,-0.310807,-1.897645,3.742968,-0.046787,-0.144261,-0.987933,-0.056365,3.682836,-0.216977,1.985870,13.217697,-36.015610,16.848877,,,,,,
1478386142.93,-1.097585,1.404316,-0.373560,0.190000,0.927029,0.742936,-0.147502,-0.986174,-0.075523,2.527064,1.444655,2.412834,9.689499,-37.141846,15.616943,,,,,,
1478386142.95,-1.268236,1.413195,-0.212266,1.970453,-1.332566,-1.016668,-0.149821,-0.987607,-0.046766,2.290339,1.896725,4.340314,8.191422,-36.691788,15.675598,,,,,,
1478386142.97,-2.910111,1.442181,1.465905,13.555410,3.287732,-9.916883,-0.029426,-0.991740,0.124840,2.929496,-3.310307,5.610207,8.191422,-36.691788,15.675598,,,,,,
1478386142.99,2.749175,1.259143,2.182731,6.933413,4.618110,-4.486475,0.117264,-0.951828,0.283325,1.747742,-3.982727,-0.720855,11.797958,-33.235748,21.701294,,,,,,
1478386143.01,2.823655,1.135823,2.095989,5.260230,-1.000189,1.212288,0.131729,-0.906881,0.400267,0.959610,2.436148,-0.082045,15.715378,-27.003693,28.771790,,,,,,
1478386143.03,2.850633,1.068116,2.028984,2.669998,-1.243926,-1.050465,0.138208,-0.876294,0.461526,1.235632,2.023526,1.907035,16.556076,-22.274933,32.515991,,,,,,
1478386143.05,2.790260,1.000086,2.104950,2.189882,1.075868,-2.871921,0.185920,-0.841518,0.507230,-0.075080,-2.052953,0.971728,17.619308,-18.898666,33.791565,,,,,,
1478386143.07,2.776339,0.956947,2.148939,1.119751,0.847330,-1.660684,0.205745,-0.817437,0.538020,0.544133,-0.868369,0.817022,17.619308,-18.898666,33.791565,,,,,,
1478386143.09,2.756540,0.932839,2.191884,0.493875,1.035343,-1.627066,0.223696,-0.803314,0.551949,0.631849,-1.843628,0.368462,18.085220,-14.470963,36.482910,,,,,,
1478386143.11,2.772923,0.905176,2.222712,1.290829,2.515108,-1.187830,0.222548,-0.786534,0.576053,0.405946,-2.866924,-0.539676,18.388046,-13.720596,36.858673,,,,,,
1478386143.13,2.802611,0.885410,2.242149,0.656246,1.234439,-0.912530,0.210480,-0.774175,0.596952,0.398956,-3.217296,-2.247526,17.191849,-12.594788,37.668335,,,,,,
1478386143.15,2.738008,0.854783,2.274139,1.676580,-3.760115,-1.896758,0.257773,-0.754428,0.603648,-0.195502,-2.419461,-1.869410,15.993942,-11.843903,38.554108,,,,,,
1478386143.17,2.649647,0.765020,2.295513,3.810103,-3.119105,-2.767390,0.340732,-0.692551,0.635826,-0.235080,-0.857269,0.016549,15.993942,-11.843903,38.554108,,,,,,
1478386143.19,2.596542,0.660599,2.316952,4.674881,-1.629376,-3.925299,0.409390,-0.613590,0.675209,-0.869900,-0.475689,-0.972389,22.022873,-5.619537,37.920715,,,,,,
1478386143.21,2.535369,0.516486,2.354056,4.907376,-2.555870,-5.713846,0.495448,-0.493828,0.714609,-1.141093,-1.501656,-1.224756,24.144058,-0.894455,38.002747,,,,,,
1478386143.23,2.451238,0.366939,2.379286,5.721251,-4.473631,-4.911047,0.594418,-0.358760,0.719693,-1.370022,-3.664357,-1.160550,26.351425,6.004654,37.104156,,,,,,
1478386143.25,2.356845,0.216317,2.376798,5.425335,-4.740055,-5.324704,0.690178,-0.214634,0.691077,-0.488289,-3.396847,-0.563772,29.611618,13.052338,34.790558,,,,,,
1478386143.27,2.240525,0.076899,2.371947,4.480593,-6.718074,-4.550772,0.781673,-0.076823,0.618939,-1.151195,-2.481771,-0.820935,29.611618,13.052338,34.790558,,,,,,
1478386143.29,2.079426,-0.039598,2.350182,4.115211,-8.513081,-4.180261,0.872728,0.039588,0.486599,-1.045488,-1.682547,-1.345501,31.223038,19.873505,30.961243,,,,,,
,,,,,,,,,,,,,,,,37.354431,-122.033417,35.339813,0.660000,16.875000,1478386361.00
1478386143.31,1.934600,-0.129883,2.317344,2.792239,-5.908034,-2.766148,0.926678,0.129518,0.352834,-1.127240,-2.330019,-0.445532,36.389420,30.435928,18.381226,,,,,,
1478386143.33,1.856881,-0.170604,2.290953,1.308169,-2.321900,-0.820747,0.945429,0.169777,0.278101,-1.447397,-1.824898,0.149709,37.539505,33.954788,12.232117,,,,,,
1478386143.35,1.862796,-0.173396,2.292488,-0.896015,1.781241,0.144012,0.943309,0.172529,0.283551,-1.394741,-0.877759,0.312320,37.322586,34.927292,9.752075,,,,,,
1478386143.37,1.947169,-0.144051,2.332385,-3.235049,5.132564,1.191942,0.920372,0.143553,0.363742,-1.079918,-0.368788,0.397915,37.322586,34.927292,9.752075,,,,,,
1478386143.39,2.075053,-0.057586,2.403247,-6.315129,5.892711,3.253935,0.874083,0.057554,0.482356,-0.839293,-0.113981,0.205755,37.619888,34.703430,10.880737,,,,,,
1478386143.41,2.137500,0.118280,2.484163,-8.329102,1.332932,7.091687,0.837780,-0.118004,0.533103,-0.426449,0.023445,0.151803,35.247269,28.115417,22.876770,,,,,,
1478386143.43,2.144699,0.337733,2.477407,-4.473588,0.020018,10.052176,0.792348,-0.331349,0.512243,0.052577,0.544041,1.155070,36.699600,19.044968,27.418518,,,,,,
1478386143.45,2.177322,0.534366,2.438626,-3.837263,1.448072,8.448168,0.707091,-0.509295,0.490551,-0.212233,0.678103,0.301792,37.779312,9.295898,28.358459,,,,,,
1478386143.47,2.231889,0.706088,2.413886,-4.874649,2.089256,7.153198,0.600600,-0.648862,0.467180,-0.391631,0.424421,-0.473330,37.779312,9.295898,28.358459,,,,,,
1478386143.49,2.264473,0.891808,2.420130,-6.061965,1.952670,7.166784,0.482874,-0.778208,0.401528,-0.248987,0.007563,0.127861,37.517166,1.196381,28.830200,,,,,,
1478386143.51,2.304275,1.085915,2.397084,-5.883533,-0.008198,8.221575,0.346245,-0.884730,0.312036,0.070152,0.089198,0.640616,34.703506,-7.127808,29.652039,,,,,,
1478386143.53,2.394666,1.288749,2.271383,-5.107387,-1.781844,9.040732,0.189089,-0.960488,0.204228,0.622877,0.249443,1.357555,26.535934,-23.331360,26.093933,,,,,,
1478386143.55,2.905197,1.464988,1.724618,-5.078838,-0.773050,8.260403,0.024734,-0.994408,0.102674,1.937348,0.000389,2.839633,22.089462,-29.485519,21.942932,,,,,,
1478386143.57,-1.786886,1.445709,0.165163,-2.466264,3.352738,6.225995,-0.121859,-0.992187,0.026750,4.139102,-0.711701,3.399672,22.089462,-29.485519,21.942932,,,,,,
1478386143.59,-1.430962,1.394470,-0.122728,-1.525873,2.591387,0.982788,-0.173702,-0.984495,-0.024449,3.762264,0.391859,1.842152,16.447952,-34.439377,18.076416,,,,,,
1478386143.61,-1.421797,1.376856,-0.117011,0.626754,0.385141,0.980464,-0.190591,-0.981252,-0.028610,2.632425,1.990499,2.542633,10.066208,-36.390717,16.743469,,,,,,
1478386143.63,-1.592979,1.383650,0.061955,2.097932,0.192509,-1.487699,-0.186010,-0.982539,0.004127,1.621054,1.493526,2.982629,7.515579,-36.465515,16.943176,,,,,,
1478386143.65,-2.659554,1.400247,1.198009,11.658698,3.130216,-9.201568,-0.078682,-0.985492,0.150384,2.345665,-3.946530,3.940391,9.468460,-34.737274,20.182556,,,,,,
1478386143.67,2.841395,1.283431,2.040098,6.783423,4.737992,-5.480038,0.083812,-0.958994,0.270751,1.480229,-2.741842,1.257920,9.468460,-34.737274,20.182556,,,,,,
1478386143.69,2.890288,1.166405,2.025281,4.113705,1.689420,1.165339,0.097841,-0.919342,0.381100,0.820983,2.378113,0.057529,15.709610,-29.030930,26.527832,,,,,,
1478386143.71,2.978878,1.099417,1.932781,3.089974,-0.875658,-0.101031,0.073566,-0.890943,0.448118,1.100323,2.007169,0.940081,16.326523,-23.701218,31.242920,,,,,,
1478386143.73,2.881208,1.033295,2.030750,2.411819,0.076286,-3.362554,0.131814,-0.858991,0.494733,0.203498,-1.742328,1.006656,14.009476,-21.073624,33.836945,,,,,,
1478386143.75,2.852211,0.994912,2.081895,0.959321,0.809648,-1.460203,0.155400,-0.838711,0.521933,0.568477,-1.205188,0.706933,16.879166,-16.046661,35.800537,,,,,,
1478386143.77,2.830005,0.971461,2.119696,0.761416,0.426249,-1.424207,0.172935,-0.825711,0.536931,0.410073,-1.483279,0.145152,16.879166,-16.046661,35.800537,,,,,,
1478386143.79,2.818652,0.944132,2.157041,1.128334,1.316701,-1.319619,0.186113,-0.809988,0.556130,0.278990,-2.738962,-0.739312,17.106369,-15.446365,36.101013,,,,,,
1478386143.81,2.825749,0.917652,2.187620,0.803500,1.254752,-1.401555,0.188759,-0.794177,0.577627,0.388924,-2.950605,-1.972769,16.435349,-14.245392,37.065735,,,,,,
1478386143.83,2.767246,0.893374,2.228824,1.060294,-2.571732,-1.825114,0.229193,-0.779191,0.583379,-0.146384,-1.908110,-1.409429,15.762833,-13.494797,37.656738,,,,,,
1478386143.85,2.693790,0.816599,2.266469,3.754289,-1.793661,-3.009577,0.296467,-0.728822,0.617192,-0.210957,-0.927688,-0.012975,19.831131,-9.369614,37.835052,,,,,,
1478386143.87,2.657277,0.707242,2.292787,4.854173,-0.598393,-3.611240,0.353931,-0.649740,0.672734,-0.619373,-0.699991,-0.403340,19.831131,-9.369614,37.835052,,,,,,
1478386143.89,2.626498,0.556231,2.323314,6.270857,-1.034994,-5.315178,0.418356,-0.527989,0.739058,-0.908895,-1.143993,-0.869352,21.953415,-4.269165,38.290955,,,,,,
1478386143.91,2.556588,0.407150,2.362614,5.627928,-3.390133,-5.117638,0.507062,-0.395994,0.765557,-1.129987,-2.975924,-1.370568,22.506210,2.106415,38.877350,,,,,,
1478386143.93,2.464470,0.256469,2.364355,5.975538,-4.779538,-4.421048,0.606059,-0.253667,0.753887,-0.720256,-3.443294,-1.271007,25.165054,9.230225,37.682587,,,,,,
1478386143.95,2.354409,0.118846,2.359890,5.018872,-6.343823,-4.293463,0.703372,-0.118566,0.700864,-0.908831,-2.303507,-1.362409,27.825912,16.202240,34.688232,,,,,,
1478386143.97,2.207675,-0.004366,2.336637,4.853982,-7.728795,-3.606290,0.803948,0.004366,0.594683,-1.092172,-1.731416,-1.156878,27.825912,16.202240,34.688232,,,,,,
1478386143.99,2.067997,-0.099961,2.295928,3.770714,-5.943199,-2.527362,0.874533,0.099795,0.474586,-1.334861,-2.225054,-0.430244,34.193588,27.816986,24.442139,,,,,,
1478386144.01,1.999718,-0.154871,2.266394,1.873077,-1.332663,-1.346989,0.898530,0.154253,0.410912,-1.445970,-2.394350,0.270545,35.198715,32.235153,17.613953,,,,,,
1478386144.03,2.035271,-0.170656,2.258757,-0.292199,3.642920,-0.253689,0.881069,0.169829,0.441446,-1.456112,-1.299010,0.634207,36.638412,34.256424,13.872253,,,,,,
1478386144.05,2.164090,-0.148616,2.300115,-3.492036,7.274499,-0.040923,0.819964,0.148070,0.552932,-1.138583,-0.546233,0.502885,35.591660,35.156921,14.384033,,,,,,
1478386144.07,2.329403,-0.074710,2.380781,-6.748303,7.537966,0.697758,0.723771,0.074641,0.685992,-0.862671,-0.318491,0.323697,35.591660,35.156921,14.384033,,,,,,
1478386144.09,2.413089,0.087017,2.476544,-10.679553,1.311021,3.230525,0.663235,-0.086908,0.743348,-0.691235,-0.157767,0.009338,27.677109,30.594620,27.068604,,,,,,
1478386144.11,2.382235,0.310377,2.505975,-6.620116,-2.037107,8.427319,0.655561,-0.305417,0.690623,0.352755,0.260633,0.510091,26.358932,22.950470,32.928406,,,,,,
1478386144.13,2.369864,0.515091,2.432399,-4.775148,-1.813114,9.539099,0.606889,-0.492614,0.623712,0.475813,0.727218,0.534430,29.160721,12.827255,34.711700,,,,,,
1478386144.15,2.373831,0.707737,2.380813,-6.933306,-1.263297,7.288897,0.527726,-0.650116,0.546677,0.263076,0.380935,-1.422714,31.747574,4.051331,33.789001,,,,,,
1478386144.17,2.337146,0.900565,2.393409,-6.640019,-1.130898,6.400844,0.447518,-0.783678,0.430786,0.026939,0.426958,0.481949,31.747574,4.051331,33.789001,,,,,,
1478386144.19,2.318337,1.098350,2.404063,-7.041745,-0.276981,7.437795,0.333729,-0.890458,0.309371,0.119305,0.450440,0.878267,30.882889,-5.099625,32.832703,,,,,,
1478386144.21,2.378567,1.301483,2.344695,-5.991339,0.749348,8.251241,0.183884,-0.963954,0.192301,0.546234,0.231975,1.849340,27.517654,-21.680908,26.548828,,,,,,
1478386144.23,2.881893,1.491911,1.884131,-6.207752,3.471129,7.660036,0.020236,-0.996890,0.076161,1.390424,0.078601,3.365871,22.018387,-28.359772,22.688843,,,,,,
1478386144.25,-1.307519,1.457445,-0.122449,-3.765978,4.672449,5.450612,-0.109211,-0.993583,-0.029436,2.579304,-0.384271,3.728670,14.873550,-33.762756,19.708618,,,,,,
1478386144.27,-1.239492,1.400593,-0.134526,-0.698341,1.710378,1.032011,-0.160172,-0.985550,-0.055096,3.889664,0.311890,2.055310,14.873550,-33.762756,19.708618,,,,,,
1478386144.29,-1.260714,1.379867,-0.115511,1.361157,-1.800579,1.445826,-0.180721,-0.981828,-0.057906,3.260967,2.260972,2.219802,7.291092,-36.541122,16.341187,,,,,,
,,,,,,,,,,,,,,,,37.354462,-122.033422,35.115234,0.660000,8.437500,1478386362.00
1478386144.31,-1.592043,1.383545,0.164255,3.013981,-3.120901,-0.969565,-0.186117,-0.982520,0.003955,1.373708,1.546622,1.821805,5.114456,-36.765686,16.770081,,,,,,
1478386144.33,-2.287514,1.411643,0.825393,7.140947,-1.002705,-4.755868,-0.119491,-0.987362,0.104109,0.705245,-1.704670,2.614412,6.917130,-35.488647,18.809204,,,,,,
1478386144.35,3.042686,1.318356,1.755576,4.911430,-1.951112,-6.002794,0.024663,-0.968306,0.248547,0.760706,-6.094362,1.688098,11.202438,-31.433365,24.089966,,,,,,
1478386144.37,2.892121,1.175359,1.965231,6.412063,3.483193,-3.743685,0.095106,-0.922828,0.373287,0.335421,1.380271,0.319050,11.202438,-31.433365,24.089966,,,,,,
1478386144.39,2.923733,1.085889,2.007086,3.170902,3.005853,-0.977012,0.100749,-0.884718,0.455108,0.482869,2.729567,-0.476761,17.065567,-27.229492,27.960938,,,,,,
1478386144.41,2.897638,1.032864,2.031124,3.020168,-0.883859,-1.920707,0.123757,-0.858770,0.497191,0.987510,1.267767,1.725405,16.482071,-22.049927,32.514587,,,,,,
1478386144.43,2.842082,0.962213,2.100497,1.934839,0.943519,-2.790469,0.168683,-0.820459,0.546254,0.756777,-2.782874,0.951625,16.878372,-16.121353,36.100739,,,,,,
1478386144.45,2.828729,0.939606,2.143932,0.694182,0.624745,-1.129971,0.181626,-0.807326,0.561460,0.716613,-1.424562,0.440340,16.585587,-14.245529,36.917236,,,,,,
1478386144.47,2.812888,0.913303,2.166750,0.957158,0.088728,-0.971793,0.197285,-0.791526,0.578416,0.464458,-1.722527,-0.388032,16.585587,-14.245529,36.917236,,,,,,
1478386144.49,2.808460,0.886524,2.180096,0.911075,0.258231,-0.792980,0.206703,-0.774879,0.597357,0.468392,-3.009880,-1.445181,17.038467,-13.420013,37.444275,,,,,,
1478386144.51,2.784019,0.866789,2.203517,0.562695,-0.914470,-1.215634,0.226549,-0.762255,0.606336,0.072234,-2.720351,-1.690580,17.117996,-12.369858,37.591919,,,,,,
1478386144.53,2.715166,0.837199,2.241589,1.713655,-2.485815,-2.157097,0.276937,-0.742771,0.609588,-0.346655,-1.370938,-0.771301,18.099655,-10.719330,38.121796,,,,,,
1478386144.55,2.655523,0.748076,2.268634,4.151802,-1.526255,-3.076538,0.342424,-0.680229,0.648100,-0.386522,-0.630729,0.204515,21.639786,-7.569992,37.472748,,,,,,
1478386144.57,2.623837,0.634500,2.293892,4.977974,-0.569104,-4.140890,0.398602,-0.592775,0.699810,-0.842267,-0.410460,-0.380154,21.639786,-7.569992,37.472748,,,,,,
1478386144.59,2.575984,0.481605,2.332624,5.616096,-2.337529,-5.786810,0.474969,-0.463202,0.748230,-1.103005,-1.733560,-1.338074,23.385025,-2.994751,37.701477,,,,,,
1478386144.61,2.502684,0.316008,2.361366,6.409829,-3.295645,-5.665196,0.566792,-0.310775,0.762998,-0.738515,-3.209123,-1.247388,24.464066,3.605698,38.142456,,,,,,
1478386144.63,2.427920,0.155921,2.365336,5.969056,-3.933239,-4.769174,0.646673,-0.155290,0.746792,-0.630392,-3.986876,-1.120373,25.697128,10.504333,36.784088,,,,,,
1478386144.65,2.332487,0.015153,2.347088,5.593947,-5.486355,-3.978124,0.723587,-0.015153,0.690067,-0.982743,-2.488097,-1.072314,29.447708,24.821899,29.353638,,,,,,
1478386144.67,2.206769,-0.105557,2.318657,4.496049,-6.338749,-3.438552,0.800016,0.105361,0.590655,-0.897322,-2.316176,-0.718523,29.447708,24.821899,29.353638,,,,,,
1478386144.69,2.094411,-0.187168,2.284913,3.165449,-4.540523,-1.761702,0.850892,0.186077,0.491281,-1.257432,-2.680096,-0.089792,31.731552,30.441208,23.659668,,,,,,
1478386144.71,2.035940,-0.216004,2.256184,0.935065,-1.246012,-0.144270,0.872988,0.214329,0.438128,-1.421251,-1.742450,0.131819,33.332870,34.410583,18.038696,,,,,,
1478386144.73,2.080532,-0.205985,2.277424,-2.356248,3.930133,-0.042805,0.854421,0.204531,0.477632,-1.148916,-0.582125,0.284606,33.645523,35.981842,14.287109,,,,,,
1478386144.75,2.215259,-0.154305,2.343025,-5.202955,7.074105,0.867982,0.789924,0.153694,0.593631,-0.848854,-0.215217,0.184506,31.305984,34.712738,20.192566,,,,,,
1478386144.77,2.347615,-0.022725,2.426109,-9.132874,4.627134,3.245543,0.712963,0.022723,0.700833,-0.677700,-0.059680,-0.029660,31.305984,34.712738,20.192566,,,,,,
1478386144.79,2.359789,0.203063,2.467266,-7.644173,-0.811222,8.728068,0.690084,-0.201670,0.695063,0.059000,0.502390,0.523275,28.574417,30.069839,27.304199,,,,,,
1478386144.81,2.364504,0.414303,2.392713,-4.239437,-0.660630,9.818854,0.641883,-0.402552,0.652640,0.093988,0.919840,0.606989,28.973312,20.475128,32.586914,,,,,,
1478386144.83,2.402547,0.597085,2.318332,-4.905643,0.562294,7.975894,0.557038,-0.562234,0.611229,-0.036134,0.589379,-0.682778,31.404892,11.025711,33.164551,,,,,,
1478386144.85,2.405759,0.798276,2.322913,-7.326895,0.681685,6.221935,0.468463,-0.716154,0.517365,-0.091418,-0.018115,0.019943,30.874435,-7.049835,32.613525,,,,,,
1478386144.87,2.422933,0.995356,2.324550,-7.846467,0.869169,6.802769,0.358291,-0.838953,0.409616,0.038025,0.686990,0.651953,30.874435,-7.049835,32.613525,,,,,,
1478386144.89,2.452160,1.208015,2.295689,-7.341224,-0.437088,7.706077,0.225736,-0.934913,0.273825,0.437365,0.795845,0.855570,28.364304,-15.451645,30.813660,,,,,,
1478386144.91,2.619167,1.415598,2.101884,-6.935013,-0.776821,7.903507,0.077131,-0.987981,0.133957,1.337069,0.453282,2.705352,23.833176,-23.630417,27.042847,,,,,,
1478386144.93,-1.879430,1.499721,0.346562,-4.388605,3.381978,6.513332,-0.067660,-0.997475,0.021572,2.542178,-0.335823,4.095280,19.685532,-30.310379,22.071411,,,,,,
1478386144.95,-1.451944,1.427489,0.000399,-0.063987,3.805646,1.597662,-0.141810,-0.989749,-0.016934,3.108302,-0.590466,2.657804,13.896439,-34.889709,17.752197,,,,,,
1478386144.97,-1.234904,1.428105,-0.167308,-0.271928,1.486394,0.020340,-0.134260,-0.989837,-0.046873,3.284331,1.095229,2.252333,13.896439,-34.889709,17.752197,,,,,,
1478386144.99,-1.494793,1.417251,0.071941,2.176921,-2.803241,0.517096,-0.152501,-0.988235,-0.011613,1.922185,1.775299,3.196306,6.988602,-37.066040,16.414734,,,,,,
1478386145.01,-2.538535,1.413515,1.087165,10.697379,-1.053787,-5.937908,-0.088837,-0.987657,0.129004,1.507812,-1.922621,3.785455,7.291458,-36.165222,17.240112,,,,,,
1478386145.03,2.881413,1.274120,1.917164,4.617077,-1.539216,-6.085511,0.075207,-0.956313,0.282504,0.921284,-5.472657,1.619717,11.125168,-32.334564,22.891907,,,,,,
1478386145.05,2.814633,1.147069,2.027737,3.899364,2.162251,-2.230257,0.132051,-0.911563,0.389379,0.663665,1.332324,0.344019,17.667740,-26.704346,28.115417,,,,,,
1478386145.07,2.859574,1.092039,2.004681,2.437358,-0.483972,0.205539,0.128204,-0.887568,0.442477,0.600251,2.239527,0.521939,17.667740,-26.704346,28.115417,,,,,,
1478386145.09,2.813834,1.033402,2.025947,3.109751,-0.875365,-2.572266,0.164792,-0.859045,0.484649,0.688114,0.408667,1.288971,17.615494,-19.874023,33.419434,,,,,,
1478386145.11,2.760283,0.984067,2.102291,0.721344,1.015732,-2.079745,0.206030,-0.832756,0.513877,0.377619,-3.040352,0.860254,19.876266,-17.248337,34.109161,,,,,,
1478386145.13,2.741096,0.961614,2.145937,0.829236,0.848594,-1.544737,0.223086,-0.820116,0.526918,0.668379,-1.183851,0.311125,20.558365,-15.447678,34.785522,,,,,,
1478386145.15,2.737492,0.929468,2.181416,0.891013,1.524748,-1.507512,0.235231,-0.801302,0.550074,0.345961,-2.049467,-0.762950,20.486526,-14.547073,35.382080,,,,,,
1478386145.17,2.742090,0.914492,2.211342,0.303579,0.881946,-1.090412,0.237341,-0.792253,0.562143,0.434870,-2.820327,-1.678049,20.486526,-14.547073,35.382080,,,,,,
1478386145.19,2.694894,0.899723,2.245550,0.236474,-1.901027,-1.422985,0.268624,-0.783155,0.560812,-0.046898,-2.090503,-1.153662,19.363693,-13.721039,36.418427,,,,,,
1478386145.21,2.622782,0.858064,2.284093,2.306247,-2.063015,-2.496799,0.324237,-0.756578,0.567856,-0.409579,-1.282546,-0.457032,20.945297,-12.220947,36.504761,,,,,,
1478386145.23,2.578636,0.761565,2.305849,4.325087,-0.919779,-3.452791,0.386261,-0.690055,0.612067,-0.558731,-0.708154,-0.033790,23.506729,-9.821381,36.073181,,,,,,
1478386145.25,2.558843,0.631799,2.327827,5.602554,-0.037302,-4.923632,0.444091,-0.590598,0.673778,-0.906707,-0.605249,-0.294033,25.252121,-5.095779,36.676453,,,,,,
1478386145.27,2.511752,0.474052,2.365498,5.422876,-2.611637,-5.978080,0.524063,-0.456495,0.719006,-1.251266,-2.217852,-1.175626,25.252121,-5.095779,36.676453,,,,,,
1478386145.29,2.434439,0.311713,2.381022,5.901930,-3.831010,-5.296810,0.618365,-0.306689,0.723579,-0.769778,-3.485471,-1.255928,25.430832,1.504883,37.333435,,,,,,
1478386145.31,2.363311,0.162857,2.379365,5.499981,-3.801572,-4.762149,0.692767,-0.162138,0.702699,-0.864428,-2.982805,-1.170197,30.079239,16.425674,33.135132,,,,,,
1478386145.33,2.263819,0.024770,2.356796,5.477557,-5.751453,-4.064530,0.769082,-0.024768,0.638670,-1.169244,-1.765866,-0.935774,31.464127,22.947006,29.454407,,,,,,
,,,,,,,,,,,,,,,,37.354480,-122.033417,34.609528,1.640000,10.898438,1478386363.00
1478386145.35,2.139140,-0.091118,2.317619,4.641655,-6.058975,-3.106318,0.839297,0.090992,0.536004,-1.180682,-2.068760,-0.539849,32.772842,28.566376,23.825684,,,,,,
1478386145.37,2.036822,-0.164934,2.276407,2.913440,-3.917106,-1.570247,0.881237,0.164188,0.443242,-1.389065,-2.512622,-0.046467,32.772842,28.566376,23.825684,,,,,,
1478386145.39,1.996071,-0.188537,2.248422,0.937988,-0.394299,0.051461,0.894783,0.187422,0.405260,-1.616402,-1.839994,0.281034,35.127670,33.135239,17.685486,,,,,,
1478386145.41,2.052366,-0.175528,2.262587,-2.082930,4.604902,0.352706,0.872651,0.174628,0.456054,-1.326829,-0.696769,0.517777,35.817978,35.156036,13.486389,,,,,,
1478386145.43,2.202886,-0.119791,2.321697,-5.092204,8.240390,1.189772,0.801013,0.119505,0.586598,-0.931430,-0.250578,0.331981,34.457291,34.185303,17.750610,,,,,,
1478386145.45,2.365142,0.007396,2.401951,-8.687350,6.639782,2.761448,0.700733,-0.007396,0.713386,-0.777393,-0.056920,0.089776,30.153763,30.443054,25.518860,,,,,,
1478386145.47,2.397156,0.227648,2.469004,-9.875971,-0.613057,6.992817,0.660077,-0.225687,0.716494,-0.599927,0.181787,-0.136843,30.153763,30.443054,25.518860,,,,,,
1478386145.49,2.394160,0.445438,2.409409,-4.664536,-1.123567,10.150188,0.613429,-0.430853,0.661869,0.471517,0.570029,1.209667,27.934921,22.949814,32.269165,,,,,,
1478386145.51,2.430893,0.632668,2.310482,-4.293845,-0.465574,8.750874,0.526101,-0.591299,0.611215,0.281104,0.763692,0.191962,30.283554,12.226883,34.349792,,,,,,
1478386145.53,2.425733,0.835548,2.291185,-7.335658,-0.713554,6.541813,0.440205,-0.741664,0.506116,0.443172,0.140376,-2.095930,30.354477,-5.774399,33.054504,,,,,,
1478386145.55,2.439832,1.028169,2.267197,-7.179410,0.002705,7.137029,0.333361,-0.856355,0.394369,0.186094,0.336625,0.698496,29.570114,-14.251923,30.522095,,,,,,
1478386145.57,2.516172,1.233939,2.195392,-6.874168,0.776414,7.760442,0.193501,-0.943798,0.267961,0.421001,0.597057,0.929213,29.570114,-14.251923,30.522095,,,,,,
1478386145.59,2.885904,1.426410,1.840923,-6.695645,1.935891,7.844074,0.036390,-0.989594,0.139207,1.002901,0.557313,2.152694,25.862961,-22.430023,27.434570,,,,,,
1478386145.61,-1.847821,1.452996,0.365851,-3.681580,5.146040,6.571767,-0.113047,-0.993070,0.032143,2.154505,0.177045,3.968345,20.288589,-29.184036,23.424072,,,,,,
1478386145.63,-1.614885,1.383409,0.208935,0.187966,2.506361,1.288958,-0.186111,-0.982494,0.008211,3.019027,-0.455967,3.424498,12.471695,-34.212845,19.610962,,,,,,
1478386145.65,-1.536957,1.391304,0.138093,0.881244,-0.885550,0.215617,-0.178428,-0.983934,-0.006040,3.931998,0.367327,1.629606,5.565689,-36.239929,17.523071,,,,,,
1478386145.67,-1.803567,1.378852,0.370800,2.645196,-2.025849,-0.208615,-0.185623,-0.981635,0.044005,2.343948,2.074577,2.063051,5.565689,-36.239929,17.523071,,,,,,
1478386145.69,-2.226555,1.383620,0.756909,3.699005,-1.646359,-2.712256,-0.147489,-0.982534,0.113468,0.873914,1.184957,1.417355,6.017380,-35.488800,18.650269,,,,,,
1478386145.71,-3.071805,1.334734,1.587562,4.848385,-2.785492,-7.933702,-0.016308,-0.972266,0.233307,1.928326,-4.115304,4.839859,8.120743,-33.986542,20.916809,,,,,,
1478386145.73,2.980811,1.181920,1.863237,7.713052,2.114129,-4.409747,0.060698,-0.925336,0.374259,1.240724,-3.634891,0.720116,12.630600,-30.231857,25.600586,,,,,,
1478386145.75,2.947085,1.093369,1.956357,2.865633,3.568050,-1.605298,0.088813,-0.888180,0.450831,0.331018,1.695217,0.455404,15.735123,-21.149277,33.179443,,,,,,
1478386145.77,2.939409,1.041176,1.965751,1.764172,-1.951582,-0.773002,0.101450,-0.862999,0.494915,0.278005,2.484031,-0.253948,15.735123,-21.149277,33.179443,,,,,,
1478386145.79,2.884251,0.983771,2.013997,2.287866,0.051417,-2.360667,0.140970,-0.832592,0.535647,0.861975,0.514035,1.554670,16.194687,-18.447556,34.900909,,,,,,
1478386145.81,2.862791,0.964525,2.062685,-0.094936,1.026337,-0.849244,0.156813,-0.821779,0.547804,0.518800,-3.299697,0.648591,17.103561,-16.196732,35.728210,,,,,,
1478386145.83,2.856157,0.952867,2.084717,0.914632,0.481996,-0.816933,0.163130,-0.815080,0.555908,0.464738,-1.163711,0.438721,17.032150,-15.145981,36.474396,,,,,,
1478386145.85,2.858635,0.927021,2.095757,0.806369,0.504453,-0.511491,0.167579,-0.799836,0.576351,0.375435,-2.063568,-0.848812,17.559311,-14.620819,36.628082,,,,,,
1478386145.87,2.843680,0.911537,2.104611,0.738627,-1.317508,-0.613847,0.179794,-0.790446,0.585550,0.590333,-2.903127,-1.865396,17.559311,-14.620819,36.628082,,,,,,
1478386145.89,2.767608,0.894321,2.129416,0.733800,-3.452925,-1.337709,0.228713,-0.779784,0.582775,-0.061415,-1.963944,-1.450237,17.339951,-13.195312,37.146606,,,,,,
1478386145.91,2.677779,0.832347,2.160636,3.259684,-2.826066,-2.710923,0.301138,-0.739513,0.602027,-0.318670,-0.926640,-0.339469,19.444412,-12.370819,36.640198,,,,,,
1478386145.93,2.625014,0.736188,2.195289,3.756977,-0.665857,-3.815275,0.366003,-0.671468,0.644339,-0.436346,-0.315547,0.246408,23.658310,-9.446304,36.148529,,,,,,
1478386145.95,2.586149,0.603836,2.246821,5.277633,-0.488028,-5.922269,0.434071,-0.567804,0.699415,-0.932575,-0.304419,-0.198377,25.703537,-4.871063,36.380280,,,,,,
1478386145.97,2.512995,0.450483,2.294292,5.392417,-2.944043,-5.740783,0.529350,-0.435400,0.728159,-1.606712,-1.986582,-1.331064,25.703537,-4.871063,36.380280,,,,,,
1478386145.99,2.468651,0.291086,2.318199,5.730481,-1.182234,-5.934075,0.597069,-0.286992,0.749096,-0.724083,-2.774562,-0.803417,28.013412,8.178162,35.614227,,,,,,
1478386146.01,2.426445,0.124354,2.341711,5.649677,-2.650418,-6.163691,0.650666,-0.124034,0.749166,-0.331360,-3.055714,-0.854787,28.874557,15.601349,33.800598,,,,,,
1478386146.03,2.341938,-0.030250,2.334265,6.071925,-5.079617,-4.103310,0.716787,0.030245,0.696636,-0.403524,-3.255130,-1.026927,28.986710,22.948624,31.079712,,,,,,
1478386146.05,2.227524,-0.149989,2.284534,5.451208,-5.342766,-2.357175,0.783102,0.149428,0.603674,-0.913671,-2.782439,-0.890265,30.147232,29.243820,26.272400,,,,,,
1478386146.07,2.140196,-0.222643,2.225376,3.840875,-2.644750,-0.574700,0.821436,0.220808,0.525820,-1.234019,-3.110471,-0.126940,30.147232,29.243820,26.272400,,,,,,
1478386146.09,2.120833,-0.242212,2.189725,0.603210,0.713633,0.094533,0.827621,0.239851,0.507460,-1.859069,-2.435163,0.181917,31.997604,36.807938,15.393188,,,,,,
1478386146.11,2.185535,-0.229673,2.222249,-2.793166,4.138793,-0.473560,0.795472,0.227659,0.561600,-1.596406,-1.002150,-0.020859,32.751175,37.332123,14.574158,,,,,,
1478386146.13,2.319566,-0.168821,2.289802,-5.638425,6.766401,0.981773,0.722113,0.168020,0.671060,-0.911322,-0.480368,-0.101312,31.243362,36.660339,17.786011,,,,,,
1478386146.15,2.427587,-0.012577,2.357748,-9.770562,2.762949,4.350470,0.654815,0.012577,0.755685,-0.567229,-0.054279,-0.237969,28.219772,33.591843,24.290100,,,,,,
1478386146.17,2.410064,0.237838,2.360333,-7.628715,-1.830544,10.319382,0.649203,-0.235602,0.723206,0.235822,0.329108,0.044052,28.219772,33.591843,24.290100,,,,,,
1478386146.19,2.416860,0.463545,2.275316,-5.265963,-0.728124,9.858557,0.592978,-0.447121,0.669672,0.801508,0.865746,1.206809,26.750809,26.098679,31.122864,,,,,,
1478386146.21,2.425480,0.677247,2.241547,-9.511834,-0.564394,6.938034,0.511577,-0.626650,0.587876,0.405033,0.608477,-0.796555,32.879684,5.325439,32.896423,,,,,,
1478386146.23,2.399680,0.888318,2.265679,-8.206202,-0.297363,6.552134,0.426176,-0.776012,0.464951,0.126177,-0.091999,0.368408,32.307144,-5.475281,32.173096,,,,,,
1478386146.25,2.386893,1.108418,2.282427,-8.055952,0.093337,7.409276,0.305595,-0.894994,0.324958,0.092889,0.291860,0.837243,30.919998,-14.778412,29.037170,,,,,,
1478386146.27,2.438944,1.319821,2.219059,-6.932448,-0.756887,8.151444,0.160493,-0.968671,0.189523,0.470747,0.632764,0.919577,30.919998,-14.778412,29.037170,,,,,,
1478386146.29,3.135566,1.516432,1.516672,-6.517974,1.094862,7.959602,0.000327,-0.998523,0.054337,1.507683,0.585162,2.770706,26.233994,-23.931885,25.567749,,,,,,
1478386146.31,-1.311151,1.431413,-0.230616,-2.541957,6.099400,5.632962,-0.134275,-0.990302,-0.035669,2.919249,0.281577,4.322123,15.846024,-35.566483,15.973755,,,,,,
1478386146.33,-1.183380,1.385146,-0.261326,-0.815491,3.481150,-0.134307,-0.170906,-0.982816,-0.069736,3.080864,-0.258746,3.372272,8.340744,-37.067459,15.003235,,,,,,
,,,,,,,,,,,,,,,,37.354511,-122.033405,34.975342,3.940000,10.546875,1478386364.00
1478386146.35,-1.115083,1.397448,-0.309639,1.078906,-0.262410,-0.202209,-0.154879,-0.985013,-0.075910,3.429583,0.848676,2.214444,6.538071,-37.817917,14.537476,,,,,,
1478386146.37,-1.423850,1.425616,-0.020242,3.331306,-1.646899,-1.477795,-0.143111,-0.989480,-0.021182,1.783614,1.700127,2.203052,6.538071,-37.817917,14.537476,,,,,,
1478386146.39,-2.668774,1.433826,1.201662,10.236450,-1.455394,-5.909892,-0.062181,-0.990634,0.121562,0.253343,0.202808,0.706533,7.588974,-37.367157,15.296631,,,,,,
1478386146.41,2.876547,1.292845,1.894085,4.963735,-1.530924,-4.424550,0.071877,-0.961620,0.264805,1.322670,-6.958653,1.366848,9.615616,-36.014221,18.237793,,,,,,
1478386146.43,2.820018,1.175365,1.992733,4.440105,2.674207,-2.147770,0.121748,-0.922831,0.365460,0.464860,0.925226,0.950031,18.873550,-25.203735,28.722961,,,,,,
1478386146.45,2.909240,1.096267,1.963160,2.580097,1.404950,-0.000558,0.105214,-0.889508,0.444642,0.389277,2.534878,-0.384797,17.382706,-21.975159,32.298401,,,,,,
1478386146.47,2.863634,1.036084,2.002170,3.645896,-0.780187,-2.895865,0.139829,-0.860415,0.490034,0.708697,2.135684,1.402499,17.382706,-21.975159,32.298401,,,,,,
1478386146.49,2.809752,0.957144,2.073702,2.222835,1.281817,-2.600990,0.187605,-0.817550,0.544441,0.557299,-0.796494,1.189919,17.916702,-19.423508,33.946075,,,,,,
1478386146.51,2.803559,0.934293,2.113539,0.572629,0.706653,-1.104309,0.197118,-0.804179,0.560750,0.684184,-2.804219,0.445949,19.581711,-15.747452,35.001648,,,,,,
1478386146.53,2.785833,0.913039,2.136562,0.458786,0.031364,-1.052944,0.212932,-0.791365,0.573063,0.678593,-0.680925,0.283093,18.915482,-13.195663,36.787384,,,,,,
1478386146.55,2.785182,0.898239,2.158858,0.452248,1.204543,-0.747364,0.217369,-0.782231,0.583837,0.481758,-2.189662,-0.545431,19.216751,-12.820374,37.089294,,,,,,
1478386146.57,2.780794,0.885120,2.179235,0.377823,-0.229770,-0.912771,0.223532,-0.773991,0.592428,0.368738,-2.793636,-1.529944,19.216751,-12.820374,37.089294,,,,,,
1478386146.59,2.718353,0.873206,2.209657,0.150697,-2.654763,-1.332248,0.263833,-0.766392,0.585692,-0.170236,-1.918346,-1.490950,18.543777,-12.295151,37.305969,,,,,,
1478386146.61,2.638312,0.829226,2.240250,2.673248,-2.769831,-2.282277,0.325769,-0.737409,0.591695,-0.349725,-1.142276,-0.489293,19.896805,-11.695358,37.092712,,,,,,
1478386146.63,2.583521,0.739795,2.255772,3.921324,-1.689093,-3.048534,0.391130,-0.674136,0.626544,-0.466341,-0.685758,0.018491,22.603073,-10.571167,36.291382,,,,,,
1478386146.65,2.551008,0.615011,2.276037,5.417621,-0.770208,-4.844763,0.454814,-0.576968,0.678419,-0.815334,-0.452695,-0.123060,27.293045,-1.721298,36.161682,,,,,,
1478386146.67,2.488471,0.467276,2.310264,5.130457,-3.198480,-5.519706,0.542526,-0.450456,0.709052,-1.327346,-1.478789,-1.122306,27.293045,-1.721298,36.161682,,,,,,
1478386146.69,2.422552,0.315888,2.319785,5.563921,-2.601813,-5.017289,0.626073,-0.310661,0.715208,-1.131032,-2.484826,-1.045225,29.126511,5.478027,35.483429,,,,,,
1478386146.71,2.393047,0.166584,2.322877,5.449483,-1.218868,-5.162195,0.671153,-0.165815,0.722537,-0.737620,-2.418246,-0.715060,31.562759,12.750626,33.086060,,,,,,
1478386146.73,2.345963,0.019093,2.315489,5.628441,-3.244266,-4.595849,0.714174,-0.019092,0.699708,-0.801912,-2.092007,-0.836762,30.619553,19.123581,31.032471,,,,,,
1478386146.75,2.252451,-0.113433,2.282067,5.727441,-5.224724,-3.280555,0.771540,0.113190,0.626030,-0.748576,-1.701783,-0.868095,31.588638,31.715302,22.754395,,,,,,
1478386146.77,2.138065,-0.216702,2.220233,5.291479,-4.823660,-1.909424,0.823647,0.215009,0.524763,-0.717064,-1.961561,-0.386915,31.588638,31.715302,22.754395,,,,,,
1478386146.79,2.049764,-0.275172,2.152130,3.382750,-2.765412,-0.170897,0.854083,0.271712,0.443525,-0.920352,-2.688628,0.355639,33.042862,36.058853,16.305847,,,,,,
1478386146.81,2.040201,-0.269154,2.134437,-1.120451,1.751638,0.875407,0.859728,0.265916,0.436069,-1.119464,-2.493317,0.809766,33.210709,38.303665,11.125793,,,,,,
1478386146.83,2.152462,-0.225284,2.181844,-3.954469,6.691008,0.666106,0.814435,0.223383,0.535533,-1.032636,-0.837427,0.267278,33.662155,38.377930,10.380127,,,,,,
1478386146.85,2.326467,-0.142561,2.256223,-6.562087,8.247888,1.298358,0.720429,0.142078,0.678820,-0.729538,-0.285389,0.092893,33.198929,36.882278,14.729919,,,,,,
1478386146.87,2.447465,0.029518,2.343151,-11.106844,3.260725,3.738378,0.639436,-0.029514,0.768277,-0.598314,0.040287,0.093722,33.198929,36.882278,14.729919,,,,,,
1478386146.89,2.449769,0.262318,2.358009,-7.078940,-1.069942,8.521072,0.616119,-0.259320,0.743741,-0.041824,0.573147,0.232288,27.580185,26.848007,30.453857,,,,,,
1478386146.91,2.450425,0.455331,2.284208,-4.738286,-1.198059,8.410471,0.572492,-0.439759,0.692000,0.334124,1.201341,0.937669,29.027603,16.276352,33.800110,,,,,,
1478386146.93,2.439737,0.639630,2.245020,-8.172547,-2.206019,6.396294,0.518004,-0.596898,0.612686,0.196641,0.654302,-0.817565,31.613937,7.726471,33.926575,,,,,,
1478386146.95,2.391060,0.832965,2.246251,-6.472215,-2.432196,6.678569,0.458790,-0.739929,0.491952,0.197445,-0.042817,-0.082391,32.249710,-1.349625,32.835144,,,,,,
1478386146.97,2.368439,1.026088,2.229209,-6.574157,-1.300508,7.202895,0.361887,-0.855278,0.370859,0.036627,0.639534,0.756491,32.249710,-1.349625,32.835144,,,,,,
1478386146.99,2.417131,1.215769,2.170501,-5.787342,0.635974,7.555760,0.230376,-0.937637,0.260314,0.197984,0.775787,0.972031,30.607864,-18.230667,26.794434,,,,,,
1478386147.01,2.701008,1.404753,1.928766,-6.193768,3.914421,7.885666,0.070487,-0.986246,0.149498,0.806237,0.750803,2.455132,26.609116,-24.684204,23.248779,,,,,,
1478386147.03,-2.100258,1.469500,0.564749,-3.820887,7.144914,6.729826,-0.087277,-0.994874,0.051074,1.713208,0.275575,3.526990,20.133591,-31.437469,19.979309,,,,,,
1478386147.05,-1.638338,1.401705,0.204403,0.225912,3.146322,1.618809,-0.167903,-0.985738,0.011358,2.626735,-0.373149,3.468333,11.720322,-35.039429,18.030945,,,,,,
1478386147.07,-1.524043,1.410994,0.125774,0.470501,0.937686,0.137668,-0.158949,-0.987259,-0.007437,5.009612,0.345032,1.482870,11.720322,-35.039429,18.030945,,,,,,
1478386147.09,-1.778850,1.399143,0.351481,2.408810,-2.662348,-0.166953,-0.167128,-0.985304,0.035282,1.897535,1.617308,1.999081,7.217331,-35.789688,17.763123,,,,,,
1478386147.11,-2.557742,1.388718,1.113564,9.184511,0.367790,-5.886395,-0.099815,-0.983469,0.151078,1.248070,-0.229940,3.295607,8.119156,-34.812958,19.494263,,,,,,
1478386147.13,3.028618,1.265351,1.844615,5.879434,1.781790,-4.670253,0.033901,-0.953713,0.298801,0.396686,-6.172386,-1.853718,12.030960,-30.232086,25.369629,,,,,,
1478386147.15,2.932462,1.128726,1.966491,4.513787,-1.017843,-2.243259,0.088818,-0.903868,0.418491,0.741687,0.514006,0.896619,15.197037,-25.127487,29.960999,,,,,,
1478386147.17,2.958883,1.079164,1.944825,2.968343,1.047010,0.915852,0.085772,-0.881563,0.464208,0.746076,2.579302,0.566813,15.197037,-25.127487,29.960999,,,,,,
1478386147.19,2.956545,1.009555,1.958125,3.783317,0.147689,-2.351371,0.097928,-0.846595,0.523151,0.893176,1.546653,1.568661,15.961014,-20.999420,33.031250,,,,,,
1478386147.21,2.914827,0.957420,2.032997,1.060015,1.262836,-1.678867,0.129417,-0.817709,0.560894,0.440498,-3.066141,0.277286,16.654831,-15.821426,36.022644,,,,,,
1478386147.23,2.907833,0.938893,2.054361,0.567062,0.038980,-0.623216,0.136823,-0.806904,0.574617,0.817141,-0.496150,0.670561,16.435562,-14.245529,36.915741,,,,,,
1478386147.25,2.889017,0.927394,2.071006,0.487867,-0.223955,-0.723440,0.149919,-0.800059,0.580887,0.471235,-1.322270,0.213959,16.212173,-13.870468,36.987366,,,,,,
1478386147.27,2.883629,0.906953,2.089959,0.985864,0.909600,-0.765398,0.157187,-0.787630,0.595761,0.291483,-2.480848,-0.602856,16.212173,-13.870468,36.987366,,,,,,
1478386147.29,2.878764,0.883561,2.110515,1.142376,-0.213384,-1.114384,0.164826,-0.773003,0.612617,0.289611,-2.638680,-1.809318,16.287735,-13.569946,37.512207,,,,,,
1478386147.31,2.808131,0.860582,2.145091,0.695995,-3.071475,-1.631591,0.213408,-0.758222,0.616081,-0.233947,-1.729769,-1.740761,16.292465,-12.444717,37.733887,,,,,,
,,,,,,,,,,,,,,,,37.354559,-122.033394,34.592438,3.940000,9.492188,1478386365.00
1478386147.33,2.724559,0.804492,2.186938,2.925151,-2.164649,-2.790868,0.280893,-0.720478,0.634043,-0.290903,-0.833004,-0.387934,20.279312,-9.894989,37.466095,,,,,,
1478386147.35,2.668782,0.708140,2.228799,4.181308,-0.781713,-3.899242,0.345902,-0.650422,0.676242,-0.460771,-0.510894,-0.084674,22.020645,-6.295044,37.397705,,,,,,
1478386147.37,2.639462,0.569067,2.274127,5.837224,-0.030238,-5.467012,0.405444,-0.538846,0.738417,-0.705402,-0.577471,-0.053099,22.020645,-6.295044,37.397705,,,,,,
1478386147.39,2.577465,0.423559,2.326778,4.782254,-2.913143,-5.549430,0.487430,-0.411007,0.770380,-1.095386,-1.822544,-1.124277,23.994125,-0.969757,37.701477,,,,,,
1478386147.41,2.503242,0.277225,2.356819,5.430318,-2.907647,-5.291867,0.573121,-0.273687,0.772417,-0.715516,-2.757471,-1.167619,24.627365,6.380157,37.610748,,,,,,
1478386147.43,2.455497,0.123598,2.371288,5.666067,-2.277431,-5.134802,0.628688,-0.123284,0.767823,-0.505412,-2.697959,-0.815492,27.917038,19.426163,33.629517,,,,,,
1478386147.45,2.388086,-0.018436,2.367804,5.327236,-4.099509,-4.180960,0.684084,0.018435,0.729170,-0.756365,-1.997943,-0.883238,27.501663,25.947632,30.080811,,,,,,
1478386147.47,2.291965,-0.143414,2.341086,5.361918,-4.758812,-3.106812,0.743325,0.142923,0.653484,-0.573204,-1.985757,-0.740551,27.501663,25.947632,30.080811,,,,,,
1478386147.49,2.197802,-0.234358,2.284280,4.541704,-3.728057,-0.893769,0.787651,0.232219,0.570684,-0.782768,-2.531459,-0.182805,29.184555,31.642838,25.280518,,,,,,
1478386147.51,2.131467,-0.260401,2.233682,1.610891,-1.919793,0.693782,0.818347,0.257468,0.513827,-0.962375,-2.626593,0.109006,30.036392,35.762268,19.726685,,,,,,
1478386147.53,2.126130,-0.246053,2.230994,-1.348381,0.967345,0.597212,0.824132,0.243578,0.511347,-1.199391,-1.220263,0.078115,31.326218,37.708237,15.683777,,,,,,
1478386147.55,2.198313,-0.203120,2.272269,-3.738733,4.335852,0.867289,0.792847,0.201726,0.575066,-0.966751,-0.620046,0.107887,31.917191,36.209732,17.194214,,,,,,
1478386147.57,2.313477,-0.103864,2.331961,-6.594310,5.456232,2.821684,0.732689,0.103677,0.672621,-0.725410,-0.273996,0.083681,31.917191,36.209732,17.194214,,,,,,
1478386147.59,2.389267,0.085027,2.384577,-9.263410,2.297749,6.165335,0.680870,-0.084924,0.727464,-0.489509,0.045297,-0.119142,30.171432,33.365051,22.510254,,,,,,
1478386147.61,2.401917,0.302285,2.359587,-5.964747,-0.454559,9.042901,0.643486,-0.297702,0.705194,0.004143,0.515369,0.193823,29.456131,26.621674,29.123291,,,,,,
1478386147.63,2.423032,0.494419,2.291455,-4.640189,0.071367,8.348972,0.579467,-0.474520,0.662608,0.197099,0.527468,0.397618,31.279922,16.500473,32.921936,,,,,,
1478386147.65,2.432229,0.690179,2.270469,-8.192078,-0.205505,6.203050,0.502278,-0.636675,0.585117,0.463924,0.214449,-2.040286,32.249252,-1.424545,32.910400,,,,,,
1478386147.67,2.433640,0.878177,2.266293,-7.343930,-0.124111,6.498566,0.415240,-0.769576,0.485107,0.065183,0.177840,0.246002,32.249252,-1.424545,32.910400,,,,,,
1478386147.69,2.444542,1.083980,2.259873,-7.531437,0.430335,6.965597,0.300318,-0.883827,0.358691,0.191992,0.469200,0.577130,30.938919,-9.901413,31.047729,,,,,,
1478386147.71,2.504937,1.284123,2.204691,-7.249558,0.526604,6.896904,0.168105,-0.959190,0.227366,0.543793,0.417289,1.013890,28.353806,-18.679337,28.123169,,,,,,
1478386147.72,2.764518,1.480748,1.977647,-7.413800,3.029146,6.516734,0.033111,-0.995948,0.083609,1.297669,-0.005257,2.696909,23.224472,-26.332733,24.719849,,,,,,
1478386147.74,-1.226033,1.482031,-0.215383,-3.781629,5.651102,4.854979,-0.083433,-0.996063,-0.029961,2.244459,-0.523117,4.010216,18.479568,-32.412720,19.740662,,,,,,
1478386147.76,-1.146297,1.435352,-0.221045,-0.257067,2.245177,0.834474,-0.123045,-0.990842,-0.055614,2.528746,0.017880,2.988903,18.479568,-32.412720,19.740662,,,,,,
1478386147.78,-1.183611,1.416464,-0.168101,1.207536,-0.050378,1.431160,-0.142341,-0.988114,-0.058042,2.940711,1.910722,2.308943,7.740738,-36.841782,15.671570,,,,,,
1478386147.80,-1.598852,1.425376,0.201813,3.360106,-3.243275,-1.391308,-0.144851,-0.989445,0.004065,1.720870,1.973347,2.741083,6.238297,-37.366730,15.733154,,,,,,
1478386147.82,-2.932679,1.406065,1.508541,10.683278,-0.764570,-8.330383,-0.034011,-0.986462,0.160422,1.992553,-2.143878,5.834634,6.765579,-36.089401,18.059509,,,,,,
1478386147.84,2.887142,1.262514,1.996109,6.704730,3.114439,-3.424713,0.076375,-0.952856,0.293653,-0.136999,-6.667887,-1.231794,13.003311,-31.358719,23.732727,,,,,,
1478386147.86,2.853050,1.139582,2.076101,3.758730,1.509859,-2.298519,0.118937,-0.908459,0.400695,0.431905,0.917858,0.357377,13.003311,-31.358719,23.732727,,,,,,
1478386147.88,2.878170,1.080037,2.073026,2.282203,-0.402308,-0.135314,0.122719,-0.881975,0.455038,0.512779,2.306811,-0.173208,16.782272,-22.200531,31.918030,,,,,,
1478386147.90,2.846437,1.018607,2.087886,3.450012,-0.401541,-2.041482,0.152586,-0.851378,0.501869,0.821168,1.330611,1.580650,15.815628,-19.648453,34.000763,,,,,,
1478386147.92,2.830505,0.959294,2.126917,1.168469,1.464192,-1.383239,0.175728,-0.818787,0.546542,0.509834,-2.128342,0.754941,17.625656,-17.097473,34.986115,,,,,,
1478386147.94,2.833554,0.941473,2.141726,1.007198,0.313871,-0.617420,0.178457,-0.808426,0.560892,0.551157,-1.485153,0.433782,17.784317,-14.771271,36.180756,,,,,,
1478386147.96,2.830830,0.916964,2.153026,0.843630,0.481151,-0.671716,0.185988,-0.793759,0.579099,0.456513,-1.209476,-0.080197,17.784317,-14.771271,36.180756,,,,,,
1478386147.98,2.833140,0.899051,2.167380,0.607510,0.631256,-0.806335,0.188937,-0.782736,0.592981,0.443311,-2.071939,-0.892542,17.562088,-14.020905,36.551331,,,,,,
1478386148.00,2.812313,0.876558,2.190586,0.961027,-0.803802,-1.167590,0.206887,-0.768541,0.605427,0.429572,-2.250365,-1.155735,16.592148,-12.519714,37.737091,,,,,,
1478386148.02,2.750829,0.852504,2.218826,1.639303,-2.203789,-1.552756,0.250666,-0.752931,0.608491,-0.146952,-1.401214,-1.014985,17.722275,-11.394775,37.670044,,,,,,
1478386148.04,2.701367,0.790045,2.242922,2.901263,-1.121624,-2.293342,0.299926,-0.710385,0.636709,-0.298965,-0.752826,-0.311742,19.904221,-9.894913,37.537354,,,,,,
1478386148.06,2.673904,0.694569,2.270596,4.402760,-0.236806,-3.549034,0.346381,-0.640055,0.685821,-0.561301,-0.612722,-0.359939,19.904221,-9.894913,37.537354,,,,,,
1478386148.08,2.638304,0.557902,2.309884,5.328609,-1.330601,-5.087892,0.409176,-0.529407,0.743171,-0.796718,-0.902111,-0.664619,22.017136,-7.044983,37.474945,,,,,,
1478386148.10,2.570545,0.412587,2.350997,5.705961,-2.787571,-5.236549,0.495157,-0.400980,0.770736,-0.770106,-2.123953,-1.102416,24.244370,4.730530,37.986877,,,,,,
1478386148.12,2.507362,0.257961,2.369512,5.828246,-2.670635,-5.133446,0.572951,-0.255110,0.778875,-0.481704,-2.814592,-1.183522,26.302994,11.704025,36.486542,,,,,,
1478386148.14,2.443972,0.106712,2.379366,5.618967,-3.678042,-4.805370,0.638742,-0.106509,0.762013,-0.485040,-2.774869,-0.979909,27.388535,18.751480,33.926270,,,,,,
1478386148.16,2.346401,-0.029470,2.366082,5.350301,-5.437491,-3.811703,0.713688,0.029466,0.699844,-0.618686,-2.152787,-1.021469,27.388535,18.751480,33.926270,,,,,,
1478386148.18,2.233568,-0.145912,2.332846,4.911402,-5.329972,-2.893328,0.779913,0.145395,0.608766,-0.622839,-2.286661,-0.501863,28.096848,24.972931,30.389709,,,,,,
1478386148.20,2.132573,-0.225754,2.285599,3.469594,-4.073561,-1.248078,0.824836,0.223841,0.519174,-0.828177,-2.530985,0.061957,29.630875,30.742538,24.987671,,,,,,
1478386148.22,2.082743,-0.243328,2.266006,-0.121186,-0.886398,0.115613,0.846111,0.240934,0.475444,-1.080348,-1.888578,0.385106,32.673477,36.882568,15.024719,,,,,,
1478386148.24,2.122015,-0.220025,2.299334,-2.887525,3.039946,0.213485,0.831349,0.218254,0.511100,-1.071584,-0.845223,0.168771,32.898605,36.882507,14.951965,,,,,,
1478386148.26,2.232787,-0.161088,2.361925,-5.129959,5.770964,1.115640,0.778558,0.160392,0.606730,-0.826944,-0.332236,0.071584,32.898605,36.882507,14.951965,,,,,,
1478386148.28,2.347071,-0.031650,2.437765,-8.472532,4.384552,3.208666,0.713171,0.031645,0.700276,-0.672933,0.047518,-0.109898,30.935806,35.386536,18.986816,,,,,,
,,,,,,,,,,,,,,,,37.354609,-122.033384,34.590729,4.810000,8.789062,1478386366.00
1478386148.30,2.369350,0.173627,2.484589,-8.044904,-0.479299,7.092566,0.687252,-0.172756,0.705577,-0.371319,0.455593,-0.146099,29.561417,31.942459,24.908386,,,,,,
1478386148.32,2.356160,0.371158,2.446875,-4.781185,-1.156494,8.251347,0.658982,-0.362694,0.658935,0.085510,1.000680,0.968399,30.972397,14.850540,32.998840,,,,,,
1478386148.34,2.361107,0.538055,2.399025,-4.683429,-0.700851,6.970663,0.604207,-0.512467,0.610173,-0.145467,0.652680,-0.167104,32.286087,6.825653,33.111023,,,,,,
1478386148.36,2.319662,0.727871,2.418859,-6.926998,-1.128463,5.999730,0.546851,-0.665281,0.508287,-0.180304,-0.311098,-1.342378,32.286087,6.825653,33.111023,,,,,,
1478386148.38,2.295939,0.906907,2.436682,-6.885345,-0.247814,6.546052,0.461156,-0.787601,0.408680,-0.249425,0.249607,0.559368,33.450912,-1.350433,32.022217,,,,,,
1478386148.40,2.272004,1.107061,2.471387,-7.099744,0.465394,7.180146,0.341759,-0.894388,0.288566,-0.044640,0.642038,0.624184,33.040573,-9.902512,29.943726,,,,,,
1478386148.42,2.251625,1.309093,2.500191,-7.014943,0.125753,7.574676,0.201044,-0.965951,0.162852,0.411444,0.684731,1.418706,25.703262,-25.808685,23.768127,,,,,,
1478386148.44,2.192109,1.510986,2.601881,-5.866058,3.879307,7.529305,0.048603,-0.998212,0.034795,1.583126,0.349576,3.674846,19.831131,-32.263306,19.153748,,,,,,
1478386148.46,-1.255217,1.489345,-0.124059,-1.017743,5.204622,4.944050,-0.077344,-0.996685,-0.025252,2.388806,-0.208241,3.949797,19.831131,-32.263306,19.153748,,,,,,
1478386148.48,-1.210999,1.463455,-0.122687,-1.635010,1.069788,-0.646630,-0.100276,-0.994244,-0.037721,3.086741,0.215009,1.800843,12.469193,-35.790924,16.540710,,,,,,
1478386148.50,-1.377779,1.456529,0.017502,1.721138,-3.626894,0.865585,-0.111902,-0.993479,-0.021871,2.838434,1.275720,1.960500,8.490189,-36.615723,16.728394,,,,,,
1478386148.52,-2.520216,1.468867,1.104575,8.700057,-0.804904,-5.457734,-0.059236,-0.994810,0.082733,2.317201,-0.286028,5.101014,8.490280,-36.540573,16.878174,,,,,,
1478386148.54,2.889948,1.297337,1.985075,4.602736,-1.601305,-3.851598,0.067245,-0.962842,0.261558,-0.239700,-4.719470,-1.685142,15.935989,-28.655701,26.753967,,,,,,
1478386148.56,2.872309,1.168331,2.021186,5.083360,0.232186,-1.932174,0.104205,-0.920098,0.377572,0.717237,-0.026969,1.357215,15.935989,-28.655701,26.753967,,,,,,
1478386148.58,2.854539,1.135128,2.037706,0.804442,0.284439,-0.243888,0.119485,-0.906588,0.404748,0.409492,1.924502,0.607871,17.151718,-24.002258,30.202148,,,,,,
1478386148.60,2.834193,1.077511,2.043963,3.317758,-0.897976,-1.835786,0.143279,-0.880782,0.451325,0.669053,1.915419,1.589172,17.456345,-22.576050,31.400879,,,,,,
1478386148.62,2.803332,1.008093,2.096011,1.735118,1.749382,-2.245805,0.177032,-0.845816,0.503244,0.422578,-1.153940,0.731726,18.289352,-20.249405,33.052307,,,,,,
1478386148.64,2.800254,0.995759,2.135110,0.213347,0.926618,-0.880998,0.182059,-0.839172,0.512489,0.489603,-2.488022,0.610481,18.979691,-16.347916,34.547516,,,,,,
1478386148.66,2.798203,0.970933,2.155042,0.937232,0.722595,-0.945474,0.190066,-0.825413,0.531572,0.556058,-1.014522,-0.000200,18.979691,-16.347916,34.547516,,,,,,
1478386148.68,2.804773,0.956716,2.165147,0.589734,0.435481,-0.306883,0.190429,-0.817303,0.543831,0.380494,-2.243945,-1.429268,18.680710,-15.746796,35.667694,,,,,,
1478386148.70,2.780352,0.932351,2.174216,1.276974,-1.584135,-1.021744,0.210629,-0.803023,0.557484,0.373569,-2.238481,-1.283498,17.782608,-15.221497,35.957123,,,,,,
1478386148.72,2.709984,0.904413,2.204479,1.114922,-2.494981,-1.646353,0.258591,-0.786062,0.561459,-0.206803,-1.244150,-1.024396,18.086227,-14.321198,36.257446,,,,,,
1478386148.74,2.641529,0.846348,2.234280,2.779261,-2.044729,-2.527941,0.317763,-0.748865,0.581573,-0.382719,-0.626577,-0.408447,20.869095,-12.746704,35.755524,,,,,,
1478386148.76,2.590656,0.757900,2.264787,3.634089,-1.042331,-3.565408,0.380198,-0.687398,0.618816,-0.567911,-0.425960,-0.288754,20.869095,-12.746704,35.755524,,,,,,
1478386148.78,2.555633,0.630979,2.298256,5.351303,-0.443668,-5.081139,0.446519,-0.589936,0.672753,-0.866761,-0.569610,-0.377877,25.773514,-6.221756,35.710052,,,,,,
1478386148.80,2.513660,0.486516,2.331981,4.751018,-1.959017,-5.166483,0.519307,-0.467549,0.715345,-1.057789,-1.550075,-0.858976,26.622360,-0.746231,36.227081,,,,,,
1478386148.82,2.452370,0.352618,2.355099,4.688720,-2.686659,-4.958114,0.596810,-0.345356,0.724256,-0.762261,-2.377972,-1.200209,27.778488,6.078461,35.918182,,,,,,
1478386148.84,2.401446,0.208344,2.369534,5.247202,-2.321614,-5.392055,0.659812,-0.206840,0.722402,-0.388877,-2.297616,-1.017751,30.061325,12.601135,33.596436,,,,,,
1478386148.86,2.336787,0.058406,2.366127,5.510922,-3.873873,-4.817849,0.719467,-0.058373,0.692069,-0.611862,-2.064735,-0.751624,30.061325,12.601135,33.596436,,,,,,
1478386148.88,2.253352,-0.074511,2.344576,5.063284,-4.037696,-3.921604,0.773810,0.074442,0.629028,-0.586905,-2.114221,-0.260498,31.480087,25.794891,27.346069,,,,,,
1478386148.90,2.178052,-0.179508,2.310653,3.922947,-3.287289,-2.654375,0.808021,0.178546,0.561447,-0.538582,-2.808200,0.267944,31.435837,31.115372,22.829651,,,,,,
1478386148.92,2.132454,-0.223746,2.288504,0.984300,-1.076980,-0.461004,0.825276,0.221884,0.519314,-0.811055,-2.648474,0.446308,32.286118,35.160645,18.100952,,,,,,
1478386148.94,2.145507,-0.216243,2.302459,-1.726075,1.550330,0.035119,0.819802,0.214562,0.530932,-1.115578,-0.975060,-0.019060,32.444321,36.358765,16.223999,,,,,,
1478386148.96,2.227362,-0.176157,2.350825,-3.889583,4.733575,0.542293,0.779835,0.175247,0.600954,-1.065983,-0.369553,-0.206621,32.444321,36.358765,16.223999,,,,,,
1478386148.98,2.341790,-0.085693,2.407319,-5.905943,5.196938,2.351035,0.714587,0.085588,0.694291,-0.879412,0.001661,-0.534715,31.990616,35.985123,17.570618,,,,,,
1478386149.00,2.393740,0.082043,2.449431,-8.435662,0.431415,5.653113,0.677778,-0.081951,0.730685,-0.709532,0.220699,-0.464556,27.446701,29.620285,27.744263,,,,,,
1478386149.02,2.367788,0.294732,2.433494,-5.774662,-1.694201,8.754594,0.668727,-0.290483,0.684415,-0.135127,0.594346,0.602969,29.204636,21.599304,31.760864,,,,,,
1478386149.04,2.362319,0.477155,2.368877,-3.986657,-1.437847,8.217788,0.624268,-0.459254,0.631961,-0.005952,0.610606,0.233761,32.536758,12.375183,32.646851,,,,,,
1478386149.06,2.343918,0.659009,2.328754,-6.945299,-2.721784,7.338345,0.565859,-0.612334,0.552133,-0.036532,0.158583,-1.238992,32.536758,12.375183,32.646851,,,,,,
1478386149.08,2.318224,0.847925,2.314451,-5.633939,-1.154290,7.190016,0.485200,-0.749909,0.449685,-0.235963,-0.126250,0.328010,33.927750,4.649704,32.158936,,,,,,
1478386149.10,2.323317,1.037897,2.300408,-6.411908,0.280846,7.243895,0.370848,-0.861338,0.347231,-0.183485,0.340753,0.656416,33.782669,-12.454895,27.558838,,,,,,
1478386149.12,2.366373,1.232958,2.277300,-6.643190,1.411787,7.478451,0.231972,-0.943473,0.236742,0.123146,0.641044,1.008421,30.525253,-20.557602,24.850525,,,,,,
1478386149.14,2.467627,1.447929,2.211921,-7.635675,2.780294,7.827726,0.076487,-0.992461,0.095761,1.134649,0.632125,2.935764,25.246475,-28.060944,21.520264,,,,,,
1478386149.16,-1.689662,1.491478,0.205976,-1.923607,7.562447,6.887102,-0.078676,-0.996856,0.009396,3.101869,0.164260,4.738880,25.246475,-28.060944,21.520264,,,,,,
1478386149.18,-1.479907,1.429310,0.124526,-1.532931,5.460358,0.171239,-0.140433,-0.990007,-0.012799,3.526206,-0.127058,2.578580,17.351303,-33.915054,17.408875,,,,,,
1478386149.20,-1.469755,1.434070,0.148377,1.834300,-0.999756,1.007653,-0.135606,-0.990667,-0.013749,4.091584,1.432211,1.668427,8.493240,-35.790283,17.175964,,,,,,
1478386149.22,-1.933309,1.426781,0.545795,3.926538,-4.257649,-1.698640,-0.134191,-0.989648,0.050895,1.369725,1.401666,1.883446,6.692490,-35.564102,18.357239,,,,,,
1478386149.24,-3.080466,1.350924,1.645820,9.678543,-2.906116,-8.173445,-0.013324,-0.975925,0.217698,1.613208,-2.822308,4.023971,10.150223,-32.710693,21.758240,,,,,,
1478386149.26,2.907289,1.231052,1.926513,6.050678,2.526273,-3.315243,0.077368,-0.942840,0.324140,0.608636,-3.980881,1.869952,10.150223,-32.710693,21.758240,,,,,,
1478386149.28,2.904864,1.138813,1.994558,2.440164,2.803005,-1.535430,0.098189,-0.908137,0.406997,0.380861,1.390879,0.177415,16.389694,-27.830704,26.755981,,,,,,
,,,,,,,,,,,,,,,,37.354655,-122.033381,35.609589,4.810000,3.867188,1478386367.00
1478386149.30,2.895202,1.097006,2.015547,1.423371,-1.979055,-0.891137,0.111285,-0.889845,0.442483,0.272336,2.274473,-0.008050,17.304337,-23.326950,30.501648,,,,,,
1478386149.32,2.818126,1.039746,2.067776,2.848499,-0.739969,-2.570151,0.160974,-0.862276,0.480175,0.555380,0.827272,1.549168,18.442520,-19.499252,33.201538,,,,,,
1478386149.34,2.788775,0.989665,2.121679,0.472254,1.558955,-1.619202,0.189693,-0.835842,0.515155,0.405888,-2.556721,0.781156,18.978348,-16.572678,34.773102,,,,,,
1478386149.36,2.769242,0.984368,2.160886,0.548191,0.044134,-1.157405,0.201326,-0.832922,0.515469,0.277922,-1.637094,0.188465,18.978348,-16.572678,34.773102,,,,,,
1478386149.38,2.739798,0.956142,2.190827,0.768776,-0.005897,-1.215922,0.225521,-0.816973,0.530750,0.313404,-1.804670,-0.453296,18.604782,-16.197540,34.918274,,,,,,
1478386149.40,2.729116,0.935609,2.206498,1.120758,-0.595986,-0.788495,0.237853,-0.804961,0.543566,0.396287,-2.667665,-1.718646,20.106796,-15.672302,35.156677,,,,,,
1478386149.42,2.673567,0.909915,2.223377,0.876648,-2.660126,-1.099098,0.276906,-0.789452,0.547804,-0.051214,-1.583702,-1.440290,20.335526,-14.772064,35.381256,,,,,,
1478386149.44,2.594979,0.874548,2.250952,1.676333,-2.679221,-2.052929,0.333369,-0.767253,0.547894,-0.368617,-0.885197,-0.742733,23.872391,-12.448029,34.434723,,,,,,
1478386149.46,2.547011,0.792235,2.272581,3.577453,-0.847251,-3.291431,0.393377,-0.711924,0.581737,-0.429632,-0.410497,0.063832,23.872391,-12.448029,34.434723,,,,,,
1478386149.48,2.530968,0.676902,2.303175,4.566254,0.611762,-4.915041,0.446959,-0.626381,0.638651,-0.715178,-0.285301,-0.110163,26.962326,-9.148071,34.380707,,,,,,
1478386149.50,2.510119,0.520926,2.347851,5.225831,-0.488163,-6.437284,0.512032,-0.497683,0.700096,-1.009286,-1.033841,-0.774238,27.957657,-4.422470,34.976471,,,,,,
1478386149.52,2.468124,0.362833,2.384972,5.554806,-1.460528,-5.845344,0.583095,-0.354924,0.730773,-0.851787,-2.489787,-0.971603,28.664566,2.853104,35.561707,,,,,,
1478386149.54,2.438655,0.200111,2.399451,6.018373,-1.137446,-5.743217,0.633561,-0.198778,0.747722,-0.451310,-2.757140,-0.772700,28.883255,17.325745,33.195496,,,,,,
1478386149.56,2.400812,0.038307,2.402141,5.873635,-2.506616,-5.079471,0.674369,-0.038297,0.737400,-0.583412,-2.611361,-0.697148,28.883255,17.325745,33.195496,,,,,,
1478386149.58,2.331448,-0.096857,2.391222,4.844173,-3.795107,-3.907405,0.720992,0.096705,0.686162,-0.614791,-2.385798,-0.567235,28.770737,24.748016,30.472107,,,,,,
1478386149.60,2.252853,-0.200227,2.368022,3.986938,-3.589210,-2.573871,0.760769,0.198891,0.617797,-0.653179,-2.756020,-0.231063,28.802353,30.368805,26.255554,,,,,,
1478386149.62,2.186215,-0.254762,2.336878,1.952834,-2.455769,-0.497279,0.790177,0.252015,0.558667,-1.083024,-2.749146,-0.056668,29.427048,34.564896,22.349182,,,,,,
1478386149.64,2.162340,-0.259949,2.334326,-0.779909,-0.238222,-0.172201,0.802193,0.257031,0.538908,-1.270180,-1.333386,0.046618,29.217850,36.735916,18.365601,,,,,,
1478386149.66,2.209337,-0.234084,2.380189,-3.657295,3.111461,-0.075040,0.781067,0.231952,0.579769,-1.073365,-0.615588,0.097935,29.217850,36.735916,18.365601,,,,,,
1478386149.68,2.317205,-0.150270,2.454169,-6.563383,5.250299,1.664111,0.725859,0.149705,0.671355,-0.850630,-0.150071,-0.054198,29.738754,36.287262,19.722168,,,,,,
1478386149.70,2.408344,0.019196,2.519750,-9.327361,3.066036,4.944036,0.669164,-0.019195,0.742867,-0.617131,0.225234,-0.330208,27.090744,32.992722,25.180542,,,,,,
1478386149.72,2.411774,0.241807,2.512017,-6.567147,-0.941757,9.012774,0.647337,-0.239457,0.723612,-0.187666,0.725923,0.554861,25.623001,25.724411,31.862671,,,,,,
1478386149.74,2.418220,0.431868,2.433292,-3.939336,-0.965227,8.818556,0.601143,-0.418568,0.680755,-0.057824,0.715366,0.313660,28.352066,16.276718,34.168365,,,,,,
1478386149.76,2.433093,0.613215,2.363455,-6.896421,-1.518638,7.723166,0.532140,-0.575500,0.620989,0.054576,0.477172,-1.069765,28.352066,16.276718,34.168365,,,,,,
1478386149.78,2.431397,0.813051,2.339767,-6.288254,-0.396183,7.254001,0.448098,-0.726388,0.521123,0.101737,-0.090904,0.104899,31.051804,-0.598740,33.720947,,,,,,
1478386149.80,2.468443,1.016789,2.296733,-7.081701,0.671510,7.550442,0.327998,-0.850423,0.411337,0.309026,0.589742,0.430307,30.863632,-9.525055,32.395874,,,,,,
1478386149.82,2.562673,1.210023,2.206465,-6.647175,0.454466,7.022800,0.193132,-0.935624,0.295478,0.588820,0.655168,0.622597,26.327835,-18.377777,29.677063,,,,,,
1478386149.84,2.787287,1.396380,1.997407,-7.130979,1.933762,6.573017,0.060206,-0.984828,0.162755,1.244573,0.077678,2.458232,22.851303,-25.506470,25.988708,,,,,,
1478386149.86,-2.166058,1.484883,0.741922,-4.206088,4.908225,5.697361,-0.071049,-0.996312,0.048115,2.240391,-0.540706,3.804333,22.851303,-25.506470,25.988708,,,,,,
1478386149.88,-1.676578,1.438766,0.315885,-1.159922,1.838547,0.942942,-0.130911,-0.991297,0.013900,2.876578,-0.158514,2.329438,17.281631,-31.285706,21.750305,,,,,,
1478386149.90,-1.565639,1.428184,0.202578,0.411107,-1.318422,1.038491,-0.142128,-0.989848,-0.000733,2.844368,1.303431,2.098008,6.916458,-35.939545,17.910583,,,,,,
1478386149.92,-1.841886,1.427065,0.418527,2.768627,-3.021409,-1.828670,-0.138006,-0.989688,0.038356,2.457266,1.870029,5.315831,7.366989,-35.939911,17.540161,,,,,,
1478386149.94,-3.082341,1.319341,1.705135,12.047435,2.463763,-8.092583,-0.014734,-0.968551,0.248377,0.862619,-2.112351,2.642126,9.619553,-34.662796,19.658813,,,,,,
1478386149.96,2.908176,1.197277,2.030975,7.454937,1.893017,-4.505833,0.084401,-0.931049,0.354999,0.866176,-3.471432,1.282391,9.619553,-34.662796,19.658813,,,,,,
1478386149.98,2.859836,1.112364,2.099599,1.148088,1.015832,-1.107719,0.123046,-0.896747,0.425093,0.498612,1.488102,0.984911,13.608383,-29.030121,27.331848,,,,,,
1478386150.00,2.896044,1.063394,2.072391,2.477829,-0.929523,-0.185503,0.118119,-0.874010,0.471333,0.634597,2.358843,0.665202,15.659531,-21.224136,33.328918,,,,,,
1478386150.02,2.860522,0.989194,2.112321,3.656362,0.749479,-2.657574,0.152385,-0.835583,0.527806,0.786381,0.103100,1.165324,16.419327,-18.748230,34.229065,,,,,,
1478386150.04,2.851673,0.953501,2.166651,0.716706,1.609584,-1.204062,0.165474,-0.815447,0.554676,0.539009,-2.778334,0.509808,17.181137,-15.521423,36.027008,,,,,,
1478386150.06,2.848315,0.941179,2.187415,0.256085,0.364993,-0.643092,0.170227,-0.808253,0.563693,0.807098,-0.479100,0.553647,17.181137,-15.521423,36.027008,,,,,,
1478386150.08,2.847508,0.933227,2.201867,0.447842,0.767832,-0.479250,0.172540,-0.803545,0.569689,0.682410,-1.851957,-0.116701,16.284012,-14.695847,36.615570,,,,,,
1478386150.10,2.863575,0.917405,2.206175,0.762074,0.859717,-0.300024,0.166833,-0.794027,0.584541,0.573157,-2.545130,-1.319526,15.608444,-14.695480,36.983826,,,,,,
1478386150.12,2.844745,0.893250,2.219648,1.147404,-1.355289,-1.019153,0.183368,-0.779113,0.599465,0.518720,-2.309983,-1.568231,15.162155,-13.644806,37.651184,,,,,,
1478386150.14,2.762018,0.863077,2.256661,2.113586,-2.895101,-2.210861,0.240880,-0.759846,0.603830,-0.251500,-1.243099,-1.107919,16.443466,-12.294952,37.509918,,,,,,
1478386150.16,2.688416,0.785242,2.298186,3.165125,-1.432609,-3.206121,0.309637,-0.706996,0.635831,-0.378255,-0.542882,-0.191984,16.443466,-12.294952,37.509918,,,,,,
1478386150.18,2.658355,0.674110,2.345618,4.811261,0.705392,-4.741246,0.363013,-0.624202,0.691805,-0.703467,-0.386265,-0.225526,19.378311,-10.044769,37.682556,,,,,,
1478386150.20,2.624961,0.527058,2.401221,5.222686,-1.447027,-5.678115,0.426920,-0.502993,0.751490,-1.076914,-1.308332,-0.842540,21.046677,-5.919617,37.836853,,,,,,
1478386150.22,2.536189,0.378816,2.435327,5.969077,-4.623641,-5.004971,0.528747,-0.369821,0.763976,-0.579711,-2.726676,-0.899596,23.805191,7.055298,37.750519,,,,,,
1478386150.24,2.413048,0.221336,2.442442,5.694046,-6.964255,-5.224504,0.649543,-0.219534,0.727942,0.034204,-2.920649,-0.878531,27.592270,14.402618,35.066315,,,,,,
1478386150.26,2.256095,0.075775,2.433475,5.458825,-8.378144,-4.613391,0.772009,-0.075702,0.631088,-0.388159,-2.615673,-1.050811,27.592270,14.402618,35.066315,,,,,,
1478386150.28,2.084572,-0.052504,2.390805,5.125752,-8.409633,-3.751840,0.869695,0.052480,0.490792,-1.073308,-2.077504,-0.672036,31.003922,20.847519,29.981140,,,,,,
1478386150.30,1.947361,-0.137875,2.341982,3.326603,-5.096474,-2.226560,0.921109,0.137438,0.364239,-1.263836,-2.463641,0.134983,35.468765,27.290268,22.731445,,,,,,
,,,,,,,,,,,,,,,,37.354696,-122.033382,35.612213,3.950000,359.648438,1478386368.00
1478386150.32,1.908238,-0.181114,2.308975,1.595307,0.416632,-1.114999,0.928171,0.180126,0.325659,-1.512964,-2.212673,0.583002,37.917404,34.178497,10.960266,,,,,,
1478386150.34,1.970841,-0.201732,2.316598,-0.956681,4.180328,-1.210586,0.902366,0.200367,0.381562,-1.670783,-1.122532,0.448272,36.270706,35.079010,11.466064,,,,,,
1478386150.36,2.091317,-0.199208,2.369078,-3.222261,6.266292,-0.791036,0.850403,0.197893,0.487497,-1.340485,-0.670550,0.256919,36.270706,35.079010,11.466064,,,,,,
1478386150.38,2.233085,-0.138300,2.451646,-6.358280,5.760759,1.013094,0.781057,0.137859,0.609052,-0.907400,-0.332378,0.063906,33.790329,35.157806,15.266052,,,,,,
1478386150.40,2.282815,0.015384,2.525335,-7.854914,-0.302562,5.582685,0.756955,-0.015383,0.653286,-0.451535,0.064959,-0.470043,30.848679,33.514023,21.466553,,,,,,
1478386150.42,2.253335,0.229357,2.502085,-5.040537,-1.398410,10.154207,0.755653,-0.227352,0.614247,0.650337,0.688076,1.129176,29.689041,27.895248,27.696899,,,,,,
1478386150.44,2.265260,0.427280,2.450835,-4.400384,0.325321,8.199508,0.699315,-0.414396,0.582438,0.166728,0.839995,0.080862,35.080643,10.197754,30.203796,,,,,,
1478386150.46,2.261529,0.609592,2.475300,-7.133587,0.609623,5.520206,0.631948,-0.572533,0.522348,-0.278295,0.381508,-0.934457,35.080643,10.197754,30.203796,,,,,,
1478386150.48,2.258871,0.779937,2.525950,-7.012547,2.056296,5.544697,0.549194,-0.703235,0.451494,-0.385864,0.664294,0.575331,35.791763,1.572784,30.236816,,,,,,
1478386150.50,2.261865,0.964259,2.573565,-7.048821,1.546997,6.513360,0.439242,-0.821627,0.363312,-0.450656,0.819186,0.266739,33.655899,-6.452362,30.089539,,,,,,
1478386150.52,2.251846,1.166033,2.601145,-6.899059,0.388652,7.938915,0.305949,-0.919196,0.247941,-0.063578,0.641547,0.826018,30.695328,-14.703415,29.034729,,,,,,
1478386150.54,2.262524,1.377808,2.603777,-6.628718,0.836893,8.037844,0.147708,-0.981436,0.122338,0.589932,0.364202,2.332648,20.513351,-29.559998,22.452454,,,,,,
1478386150.56,2.984431,1.550196,1.917247,-3.901849,2.502522,6.552448,0.003224,-0.999788,0.020345,1.505229,-0.193068,3.388422,20.513351,-29.559998,22.452454,,,,,,
1478386150.58,-1.547078,1.479779,0.216846,0.322065,2.201852,3.204123,-0.090866,-0.995861,-0.002156,2.433060,-1.048985,3.348255,14.873123,-34.289017,18.435242,,,,,,
1478386150.60,-1.368424,1.458693,0.050808,0.486796,-0.744944,0.878895,-0.109586,-0.993723,-0.022485,3.237668,0.044062,1.373391,9.469101,-35.489975,17.484802,,,,,,
1478386150.62,-1.702026,1.422052,0.339496,2.433202,-2.663787,1.773409,-0.146923,-0.988958,0.019392,1.849407,1.708868,1.888521,7.664749,-36.690659,16.795349,,,,,,
1478386150.64,-2.280001,1.405665,0.869670,5.712210,-1.796319,-3.272137,-0.124746,-0.986397,0.107050,1.090795,0.804436,2.073278,6.616806,-35.714096,18.356934,,,,,,
1478386150.66,3.076277,1.296218,1.847441,7.085135,1.405165,-9.129786,0.017697,-0.962539,0.270563,1.027118,-4.329117,1.476416,6.616806,-35.714096,18.356934,,,,,,
1478386150.68,2.849249,1.166672,2.122655,6.213632,1.620435,-3.884756,0.113323,-0.919447,0.376530,1.509434,-0.738436,1.860179,13.612473,-27.904449,28.003418,,,,,,
1478386150.70,2.936902,1.085624,2.061491,3.781873,1.060125,2.042421,0.094794,-0.884595,0.456625,0.914712,2.443997,-0.526510,16.180374,-22.876282,31.164124,,,,,,
1478386150.72,2.949200,1.033463,2.006817,2.489195,-2.083645,-0.773085,0.097869,-0.859077,0.502403,1.004303,1.680732,1.387993,14.162399,-20.323318,34.136261,,,,,,
1478386150.74,2.889290,0.973785,2.065549,1.840224,0.694289,-1.977094,0.140338,-0.827019,0.544375,-0.107699,-1.952583,0.803617,15.821732,-18.072784,34.671021,,,,,,
1478386150.76,2.875771,0.944434,2.097304,0.603279,0.446928,-1.217073,0.153996,-0.810165,0.565613,0.343196,-0.846878,0.966110,15.821732,-18.072784,34.671021,,,,,,
1478386150.78,2.855008,0.931067,2.134940,0.379120,0.580406,-1.228849,0.168752,-0.802258,0.572630,0.264246,-0.958256,0.383089,17.635330,-14.471054,36.403381,,,,,,
1478386150.80,2.850296,0.920178,2.169869,0.297555,1.497586,-1.069409,0.173947,-0.795709,0.580163,0.333270,-2.122412,-0.441003,17.110550,-14.245529,36.922485,,,,,,
1478386150.82,2.854956,0.901666,2.197170,0.741403,0.883830,-1.222042,0.175377,-0.784361,0.594996,0.543327,-2.416536,-1.426951,15.761612,-13.870087,37.357849,,,,,,
1478386150.84,2.801197,0.881392,2.235253,0.477404,-2.553637,-1.433889,0.212361,-0.771625,0.599581,0.237026,-2.148022,-1.752825,15.990463,-12.894714,37.732208,,,,,,
1478386150.86,2.703238,0.843830,2.273175,2.493458,-3.472327,-2.322904,0.282093,-0.747194,0.601768,-0.173313,-1.079802,-0.438942,15.990463,-12.894714,37.732208,,,,,,
1478386150.88,2.631064,0.755525,2.299264,3.616149,-2.140770,-3.045952,0.355685,-0.685671,0.635093,-0.377826,-0.574125,-0.073081,18.095932,-11.845230,37.225128,,,,,,
1478386150.90,2.590886,0.639424,2.324746,5.331826,-0.677198,-4.425754,0.419909,-0.596733,0.683803,-0.728624,-0.438011,-0.182857,23.674179,-5.620422,37.037231,,,,,,
1478386150.92,2.554121,0.486651,2.360139,5.021371,-1.772991,-5.656925,0.489911,-0.467668,0.735713,-1.095517,-1.348585,-0.798961,25.876968,0.604736,37.190552,,,,,,
1478386150.94,2.477813,0.338521,2.390211,5.856770,-3.950585,-5.261872,0.581133,-0.332092,0.742967,-1.150926,-2.929733,-0.923066,27.183395,7.278824,36.283630,,,,,,
1478386150.96,2.394075,0.181816,2.392321,5.665961,-3.886621,-5.207539,0.668615,-0.180816,0.721291,-0.601919,-3.329072,-0.899025,27.183395,7.278824,36.283630,,,,,,
1478386150.98,2.309525,0.037048,2.387636,5.200934,-4.785395,-4.722520,0.738818,-0.037039,0.672886,-0.913287,-2.579858,-1.103916,29.843704,14.326431,33.889069,,,,,,
1478386151.00,2.201119,-0.092540,2.364674,4.765352,-5.456901,-3.986845,0.804381,0.092408,0.586883,-0.928115,-2.162415,-0.792907,31.715103,27.443161,25.618408,,,,,,
1478386151.02,2.100295,-0.187842,2.331172,3.498159,-4.222432,-2.446058,0.847879,0.186740,0.496215,-1.089837,-2.506900,-0.183929,33.771896,32.537247,19.698730,,,,,,
1478386151.04,2.038348,-0.237589,2.304537,1.468301,-1.829930,-1.184406,0.867598,0.235360,0.438041,-1.206908,-2.201180,0.091256,33.867508,35.682953,15.415283,,,,,,
1478386151.06,2.056764,-0.250558,2.317936,-1.349685,2.431505,-0.711754,0.856613,0.247945,0.452480,-1.131088,-1.248799,0.394383,33.867508,35.682953,15.415283,,,,,,
1478386151.08,2.163327,-0.219573,2.372782,-4.193393,5.797261,0.540475,0.809614,0.217813,0.545053,-0.883039,-0.598886,0.303076,33.576248,36.880707,13.158813,,,,,,
1478386151.10,2.299391,-0.109349,2.449011,-7.905996,5.688063,3.007113,0.741654,0.109131,0.661845,-0.680192,-0.195786,0.140065,32.070786,36.508255,15.694824,,,,,,
1478386151.12,2.362808,0.102833,2.514732,-9.622937,1.574913,6.979095,0.698704,-0.102652,0.708008,-0.365300,0.332861,-0.155701,28.786850,27.746277,28.738220,,,,,,
1478386151.14,2.380113,0.326828,2.491384,-6.247528,0.632519,8.859593,0.653468,-0.321041,0.685501,0.103963,1.080120,1.218170,30.309891,17.550293,32.759033,,,,,,
1478386151.16,2.428037,0.510847,2.447002,-5.230990,1.966052,6.996359,0.570963,-0.488917,0.659517,-0.099634,0.797312,0.111144,30.309891,17.550293,32.759033,,,,,,
1478386151.18,2.463056,0.695003,2.439832,-8.903166,0.727200,5.647830,0.482071,-0.640388,0.597922,-0.123581,0.279349,-1.629554,30.041641,8.326447,33.909058,,,,,,
1478386151.20,2.448442,0.900848,2.458985,-7.930923,-0.754636,6.446762,0.396762,-0.783854,0.477654,0.048963,0.386378,0.402961,28.354202,0.452805,35.265808,,,,,,
1478386151.22,2.414362,1.116091,2.445484,-7.772947,-2.901481,7.661269,0.291980,-0.898391,0.328088,0.311673,0.849669,0.951498,25.502701,-18.302490,29.968567,,,,,,
1478386151.24,2.427211,1.318792,2.365844,-6.166330,-3.006637,7.558001,0.163359,-0.968415,0.188380,0.813479,1.130814,1.835241,23.451492,-25.807510,24.945496,,,,,,
1478386151.26,2.767360,1.482657,2.008168,-4.471619,1.388204,6.357174,0.032178,-0.996118,0.081933,1.766299,0.501413,3.268775,23.451492,-25.807510,24.945496,,,,,,
1478386151.28,-1.832642,1.488805,0.417846,-1.860431,6.342874,4.479965,-0.079108,-0.996641,0.021201,2.150962,-0.628008,3.803842,18.859329,-31.137039,20.415649,,,,,,
1478386151.30,-1.584251,1.456230,0.282730,-0.459042,4.372364,-0.025349,-0.114305,-0.993445,0.001538,2.275423,-0.362009,2.168262,13.746628,-34.739410,18.050293,,,,,,
1478386151.32,-1.577129,1.458811,0.316412,1.632511,0.709883,0.825090,-0.111749,-0.993736,0.000708,2.692331,1.123070,1.585062,8.343338,-35.564682,17.773743,,,,,,
,,,,,,,,,,,,,,,,37.354728,-122.033381,35.988831,3.950000,356.484375,1478386369.00
1478386151.34,-1.998336,1.425003,0.724740,3.476200,-1.403216,0.320326,-0.132201,-0.989391,0.060237,1.225387,1.582973,1.523503,5.193192,-34.962769,19.690430,,,,,,
1478386151.36,-2.721096,1.372749,1.438545,8.298516,-0.190213,-4.866891,-0.080318,-0.980453,0.179615,1.128124,-0.996034,3.066921,5.193192,-34.962769,19.690430,,,,,,
1478386151.38,2.987244,1.249677,2.035782,6.065727,2.313573,-4.408740,0.048524,-0.948883,0.311877,0.410674,-6.504578,-0.379961,6.923813,-32.634537,22.925720,,,,,,
1478386151.40,2.951396,1.126088,2.118838,3.870905,1.321633,-1.186515,0.081329,-0.902736,0.422437,0.943543,1.193157,0.723742,12.410934,-28.129089,28.367126,,,,,,
1478386151.42,3.006315,1.058485,2.078270,2.894439,-0.872984,0.670146,0.066110,-0.871614,0.485715,0.458899,2.464647,-0.268674,13.254044,-22.649750,32.709106,,,,,,
1478386151.44,2.957533,1.006443,2.097320,2.849846,-1.143859,-1.889548,0.097893,-0.844935,0.525835,0.692405,0.609461,1.644438,12.596664,-17.621399,36.062439,,,,,,
1478386151.46,2.928844,0.961563,2.141411,0.993126,0.879384,-1.042090,0.120827,-0.820087,0.559337,0.136131,-3.037792,0.818028,12.596664,-17.621399,36.062439,,,,,,
1478386151.48,2.917558,0.946296,2.168883,0.630076,0.453537,-1.113341,0.129898,-0.811255,0.570080,0.331482,-0.664544,0.622089,14.256668,-15.220856,36.596863,,,,,,
1478386151.50,2.903342,0.922541,2.208917,1.013584,1.265965,-1.470497,0.142498,-0.797139,0.586740,0.497029,-1.899669,-0.236780,13.809128,-14.545486,36.965363,,,,,,
1478386151.52,2.912121,0.903239,2.229097,0.804519,0.827631,-0.492323,0.140816,-0.785336,0.602842,0.763695,-2.806156,-1.668104,13.809921,-14.169891,37.564240,,,,,,
1478386151.54,2.886359,0.875150,2.242273,1.270140,-1.727921,-0.980401,0.161805,-0.767640,0.620120,0.654876,-2.147247,-1.505557,13.287430,-13.344086,38.381561,,,,,,
1478386151.56,2.811980,0.840905,2.275367,1.882749,-2.585737,-2.052254,0.215824,-0.745247,0.630894,-0.132740,-1.021400,-0.977802,13.287430,-13.344086,38.381561,,,,,,
1478386151.58,2.735493,0.769558,2.326628,2.971325,-1.549022,-3.416158,0.283718,-0.695818,0.659805,-0.492916,-0.440398,-0.995757,16.448746,-10.869202,38.255707,,,,,,
1478386151.60,2.685094,0.662598,2.385232,4.550497,-0.017103,-4.748998,0.347532,-0.615167,0.707666,-0.712110,-0.469825,-0.635355,19.013962,-7.494186,38.271240,,,,,,
1478386151.62,2.663256,0.518789,2.440769,5.477926,0.063205,-5.550617,0.399737,-0.495829,0.770950,-0.861895,-1.375753,-0.608200,20.159409,-2.768661,38.793549,,,,,,
1478386151.64,2.602160,0.366978,2.494972,5.884107,-2.842535,-5.945741,0.479449,-0.358796,0.800871,-0.722430,-2.836364,-1.004591,19.887985,3.907288,39.745789,,,,,,
1478386151.66,2.524547,0.198397,2.527218,6.126789,-3.361541,-5.786483,0.567277,-0.197098,0.799593,-0.160890,-3.543899,-1.073625,19.887985,3.907288,39.745789,,,,,,
1478386151.68,2.454444,0.041697,2.537763,5.867128,-3.901967,-4.674057,0.633784,-0.041685,0.772386,-0.235209,-2.828509,-0.980974,23.932388,18.003311,35.768921,,,,,,
1478386151.70,2.347104,-0.092465,2.519299,5.370210,-6.084355,-3.372108,0.710458,0.092333,0.697657,-0.461922,-1.950945,-0.956613,24.943649,24.899857,32.308350,,,,,,
1478386151.72,2.217221,-0.192599,2.480003,4.353448,-5.887914,-1.887161,0.783483,0.191410,0.591199,-0.692938,-2.399601,-0.250318,26.624344,30.220352,27.809143,,,,,,
1478386151.74,2.119302,-0.233918,2.438364,1.648883,-3.344782,0.134448,0.830066,0.231790,0.507212,-1.146319,-2.115824,0.148122,29.727737,34.564453,21.902161,,,,,,
1478386151.76,2.112326,-0.218201,2.448567,-2.294861,1.417254,0.433434,0.836602,0.216474,0.503226,-1.088738,-0.852705,0.271356,29.727737,34.564453,21.902161,,,,,,
1478386151.78,2.203781,-0.161442,2.510497,-5.065382,5.208213,0.990349,0.795781,0.160742,0.583862,-0.914037,-0.195455,0.072724,31.239426,35.835480,17.938477,,,,,,
1478386151.80,2.329403,-0.044819,2.586628,-7.794037,5.540465,2.765439,0.725066,0.044804,0.687220,-0.708114,0.285610,-0.235834,29.488113,32.091782,24.232239,,,,,,
1478386151.82,2.364059,0.155772,2.645908,-9.046612,-0.518591,6.723260,0.693030,-0.155142,0.704017,-0.326193,0.759848,0.000420,26.377151,26.323441,30.893433,,,,,,
1478386151.84,2.352829,0.359458,2.611264,-4.522334,-0.981333,8.556860,0.664138,-0.351767,0.659683,0.136506,1.134039,1.059586,28.578506,16.576645,34.094727,,,,,,
1478386151.86,2.364100,0.528426,2.555608,-4.537020,-0.335943,7.294667,0.605812,-0.504175,0.615467,-0.150581,0.675058,-0.139790,28.578506,16.576645,34.094727,,,,,,
1478386151.88,2.332579,0.721399,2.572291,-7.523274,-1.201694,5.967588,0.543344,-0.660436,0.518268,-0.180215,-0.184993,-1.231571,30.191696,8.476898,34.360138,,,,,,
1478386151.90,2.296501,0.903440,2.599071,-7.270935,-0.656315,6.342407,0.462966,-0.785460,0.410749,-0.190474,0.532866,0.670657,29.743820,-8.324921,32.531006,,,,,,
1478386151.92,2.234644,1.102226,2.655301,-7.282672,-0.760755,6.803658,0.355701,-0.892215,0.278261,-0.047764,1.081210,0.651914,28.437698,-16.202850,29.616638,,,,,,
1478386151.94,2.154316,1.293887,2.720438,-6.307208,-1.097331,7.265987,0.228147,-0.961905,0.150625,0.350252,1.170035,1.658014,25.483780,-24.006973,25.485474,,,,,,
1478386151.96,2.024822,1.472078,2.852621,-4.496439,1.422566,6.918148,0.088573,-0.995131,0.043226,1.142353,0.525313,3.275209,25.483780,-24.006973,25.485474,,,,,,
1478386151.98,-1.307613,1.535391,-0.013518,-1.778099,5.393303,5.448692,-0.034180,-0.999373,-0.009209,1.554321,-0.318040,3.692605,21.188217,-30.086487,20.960815,,,,,,
1478386152.00,-1.391872,1.473846,0.134343,0.548438,0.878185,1.411333,-0.095253,-0.995304,-0.017227,2.003991,-0.355297,2.238770,15.174332,-34.214615,17.837952,,,,,,
1478386152.02,-1.498471,1.464857,0.224224,1.397546,-1.571982,1.138965,-0.105465,-0.994394,-0.007641,3.502133,0.677209,1.474804,6.991318,-36.240372,17.087280,,,,,,
1478386152.04,-2.015440,1.439038,0.671828,3.723832,-4.263269,-0.571730,-0.118603,-0.991332,0.056510,1.482754,1.261764,2.111596,7.367325,-35.564011,18.438965,,,,,,
1478386152.06,-3.066872,1.353867,1.708499,10.085520,2.017592,-8.187947,-0.016067,-0.976563,0.214631,1.905533,-2.853805,4.639113,7.367325,-35.564011,18.438965,,,,,,
1478386152.08,2.910834,1.221833,2.106429,6.499843,4.708871,-3.854329,0.078204,-0.939728,0.332861,0.431776,-3.611679,0.312494,9.922623,-33.310776,21.682800,,,,,,
1478386152.10,2.903741,1.107989,2.154021,3.545563,0.885917,-1.018366,0.105193,-0.894803,0.433892,0.556611,1.767514,-0.156777,13.687485,-27.904449,28.004211,,,,,,
1478386152.12,2.942568,1.043115,2.098376,2.800739,-1.490115,0.765546,0.099555,-0.863977,0.493592,0.850259,2.302270,0.869766,13.863632,-20.023239,34.207336,,,,,,
1478386152.14,2.922830,0.974412,2.112890,3.778774,0.155648,-1.924923,0.121892,-0.827372,0.548269,0.676051,0.158899,1.182139,14.548660,-17.397049,35.406281,,,,,,
1478386152.16,2.928778,0.920015,2.135136,1.869642,1.092139,-0.740788,0.127954,-0.795611,0.592141,0.337042,-2.574995,0.560737,14.548660,-17.397049,35.406281,,,,,,
1478386152.18,2.924898,0.891753,2.140952,1.017751,-0.468725,-0.359794,0.135032,-0.778174,0.613361,0.434563,-0.156946,0.457135,14.183701,-14.545181,37.269104,,,,,,
1478386152.20,2.910831,0.884274,2.142818,0.011242,-0.424095,-0.150943,0.144974,-0.773455,0.617050,0.320602,-1.161848,0.644639,14.115829,-12.744522,37.938019,,,,,,
1478386152.22,2.913291,0.878366,2.154511,0.396349,1.178324,-0.570029,0.144487,-0.769697,0.621845,0.253340,-1.959918,-0.139270,15.469498,-11.919510,37.949097,,,,,,
1478386152.24,2.927376,0.862126,2.176351,0.743969,1.446715,-1.168071,0.138354,-0.759228,0.635949,0.436857,-2.157322,-1.158380,14.194626,-11.693909,38.535675,,,,,,
1478386152.26,2.897168,0.842953,2.221544,0.449710,-0.767152,-1.847779,0.160992,-0.746611,0.645487,0.254581,-2.214952,-1.652323,14.194626,-11.693909,38.535675,,,,,,
1478386152.28,2.809223,0.807412,2.281417,2.625499,-2.479918,-3.066707,0.225583,-0.722500,0.653533,-0.234662,-1.403370,-1.023513,13.072983,-10.793488,38.971710,,,,,,
1478386152.30,2.736856,0.717499,2.333913,3.570843,-1.145698,-3.422518,0.296692,-0.657502,0.692578,-0.375733,-0.871093,-0.371930,15.402267,-10.044067,38.392822,,,,,,
1478386152.32,2.712079,0.603244,2.373380,5.351399,0.368514,-4.068061,0.342929,-0.567317,0.748700,-0.773654,-0.818456,-0.710675,19.092636,-6.443512,38.943878,,,,,,
,,,,,,,,,,,,,,,,37.354757,-122.033384,35.376709,3.050000,357.539062,1478386370.00
1478386152.34,2.680583,0.467902,2.412843,5.072541,-1.580595,-4.564314,0.397038,-0.451015,0.799341,-0.833257,-1.743122,-1.163507,19.367050,4.957733,40.187439,,,,,,
1478386152.36,2.607373,0.323980,2.443340,6.191674,-3.777981,-4.663501,0.482680,-0.318342,0.815891,-0.476958,-2.830827,-1.489612,19.367050,4.957733,40.187439,,,,,,
1478386152.38,2.525955,0.164897,2.454378,6.405611,-4.120453,-4.813651,0.569646,-0.164151,0.805331,-0.129857,-2.478382,-0.784701,21.346878,11.031097,38.539032,,,,,,
1478386152.40,2.420445,0.012561,2.439633,6.514016,-6.057442,-3.524931,0.660195,-0.012560,0.750989,-0.416940,-2.132353,-0.708386,24.459763,18.453094,35.547852,,,,,,
1478386152.42,2.286981,-0.116957,2.389991,6.201673,-6.531878,-2.588705,0.749162,0.116691,0.652027,-0.474413,-2.038321,-0.490223,27.122299,25.273529,30.979065,,,,,,
1478386152.44,2.165072,-0.216326,2.324894,4.960568,-4.651944,-1.424317,0.809243,0.214643,0.546859,-0.705803,-2.705426,0.322511,31.386276,35.311005,18.466492,,,,,,
1478386152.46,2.100923,-0.248219,2.276467,1.431538,-1.173610,0.532188,0.836301,0.245678,0.490146,-1.090360,-2.059215,0.684064,31.386276,35.311005,18.466492,,,,,,
1478386152.48,2.137690,-0.235125,2.283773,-1.693359,3.327097,0.049795,0.820363,0.232965,0.522238,-1.163182,-0.829827,0.294717,33.126083,37.332199,14.652893,,,,,,
1478386152.50,2.250333,-0.206776,2.338360,-3.784068,5.871222,-0.535545,0.761294,0.205306,0.615046,-1.027895,-0.400573,0.090200,33.047470,36.732803,15.253906,,,,,,
1478386152.52,2.388493,-0.127247,2.423482,-7.326141,5.752903,0.579811,0.678374,0.126904,0.723674,-0.925582,-0.043621,0.107030,30.561050,35.762512,19.956909,,,,,,
1478386152.54,2.446101,0.054807,2.515454,-10.397733,0.615644,4.018818,0.639801,-0.054779,0.766586,-0.902115,0.664383,-0.255569,26.110703,32.319061,26.522827,,,,,,
1478386152.56,2.429165,0.246179,2.505230,-5.298558,-1.637469,7.388090,0.633965,-0.243700,0.733961,-0.604287,1.530062,1.212420,26.110703,32.319061,26.522827,,,,,,
1478386152.58,2.409028,0.403800,2.451464,-4.152267,-1.868023,6.936440,0.614992,-0.392915,0.683669,-0.428773,0.568224,-0.122511,28.351517,16.277100,34.543365,,,,,,
1478386152.60,2.384940,0.568072,2.413803,-5.838766,-2.582475,6.701828,0.578671,-0.538007,0.612933,-0.392270,0.248335,-0.992160,31.022049,9.526459,33.915253,,,,,,
1478386152.62,2.340444,0.751945,2.405632,-5.837770,-1.571773,6.714227,0.524514,-0.683061,0.508245,-0.364235,0.420167,0.042627,32.939133,1.875458,32.907349,,,,,,
1478386152.64,2.331522,0.928484,2.400723,-6.212712,-0.090433,6.401396,0.433913,-0.800713,0.413013,-0.305907,0.926674,0.412580,32.828201,-6.901917,30.532654,,,,,,
1478386152.66,2.369378,1.105112,2.388333,-5.829529,2.134632,6.740463,0.313302,-0.893514,0.321674,-0.037164,1.256307,0.620328,32.828201,-6.901917,30.532654,,,,,,
1478386152.68,2.476367,1.296410,2.331533,-7.011661,3.235904,7.199789,0.167244,-0.962592,0.213183,0.481422,1.033270,2.078260,27.216660,-21.981125,26.321777,,,,,,
1478386152.70,3.005443,1.464703,1.905548,-4.739203,6.854567,6.678417,0.014373,-0.994377,0.104915,1.745377,0.253105,4.019689,21.493057,-28.209106,23.358215,,,,,,
1478386152.72,-2.152090,1.451230,0.906913,0.370461,5.014245,3.872294,-0.099690,-0.992860,0.065498,2.739613,-0.412260,3.447976,12.849747,-33.011276,21.186096,,,,,,
1478386152.74,-1.971863,1.444187,0.777312,-0.929386,1.736370,-0.428700,-0.116251,-0.991996,0.049296,5.567179,-0.054635,0.849477,6.320786,-34.061783,20.674011,,,,,,
1478386152.76,-2.364441,1.431984,1.097972,3.658260,-5.180440,-2.201574,-0.097030,-0.990381,0.098644,3.202148,0.224191,6.279133,6.320786,-34.061783,20.674011,,,,,,
1478386152.78,3.093700,1.272123,1.908382,7.434147,-2.994447,-4.849364,0.014087,-0.955728,0.293915,-0.643817,-4.397651,-2.762085,5.569290,-34.512161,20.292847,,,,,,
1478386152.80,2.964677,1.128907,2.015990,7.553704,-0.431114,-2.733039,0.075263,-0.903945,0.420973,0.618798,0.010452,2.066988,13.162613,-27.453186,29.272644,,,,,,
1478386152.82,2.919885,1.073308,2.060615,-0.416193,0.263775,-0.944701,0.104938,-0.878784,0.465539,0.360531,2.088272,0.974357,14.985672,-20.999207,33.246460,,,,,,
1478386152.84,2.911382,1.019822,2.085230,4.075109,0.197734,-1.710607,0.119458,-0.852015,0.509706,0.570453,2.170283,1.654829,16.189285,-20.098907,33.555786,,,,,,
1478386152.86,2.866615,0.940564,2.137954,3.068958,0.336576,-2.457734,0.160018,-0.807891,0.567192,0.258133,-1.277177,0.567528,16.189285,-20.098907,33.555786,,,,,,
1478386152.88,2.849239,0.901666,2.181327,0.854743,0.618878,-1.539829,0.178776,-0.784361,0.593984,0.637890,-1.486024,0.633433,16.276901,-16.722183,35.271576,,,,,,
1478386152.90,2.815561,0.881853,2.215432,0.616062,-0.860635,-1.239814,0.203613,-0.771918,0.602232,0.333496,-0.421075,0.609117,16.516556,-12.820236,37.212250,,,,,,
1478386152.92,2.779686,0.866801,2.247356,0.121814,0.104150,-1.254046,0.229171,-0.762262,0.605341,0.334123,-1.805197,0.261435,18.247391,-11.620514,36.925995,,,,,,
1478386152.94,2.795441,0.840983,2.276759,1.273996,2.516396,-1.296690,0.226209,-0.745299,0.627183,0.214831,-2.666383,-0.798692,18.773392,-11.245071,37.380096,,,,,,
1478386152.96,2.814255,0.819316,2.297816,0.920508,0.917955,-1.090155,0.219511,-0.730679,0.646470,0.590792,-2.522663,-1.877656,18.773392,-11.245071,37.380096,,,,,,
1478386152.98,2.769822,0.797218,2.323419,0.473136,-2.407517,-1.159913,0.253814,-0.715415,0.650969,0.008088,-1.823999,-1.588377,17.126572,-10.269272,38.185730,,,,,,
1478386153.00,2.702783,0.736739,2.343141,3.553614,-2.571093,-2.408226,0.314680,-0.671876,0.670492,-0.255857,-0.907576,-0.308645,16.455399,-9.143448,39.000580,,,,,,
1478386153.02,2.656144,0.637544,2.369400,4.177037,-0.584348,-3.601515,0.374945,-0.595224,0.710721,-0.413077,-0.601066,0.166079,21.955307,-3.894302,38.139862,,,,,,
1478386153.04,2.641139,0.501979,2.413526,5.372299,0.431292,-5.601001,0.420629,-0.481161,0.769127,-0.839727,-0.845789,-0.603370,22.577621,1.206131,38.580811,,,,,,
1478386153.06,2.597720,0.351567,2.472099,5.857018,-1.445525,-6.090385,0.485804,-0.344370,0.803371,-0.996012,-2.520056,-1.063594,22.577621,1.206131,38.580811,,,,,,
1478386153.08,2.546273,0.179323,2.495971,6.773360,-2.521929,-5.458177,0.551781,-0.178364,0.814692,-0.526665,-3.483654,-0.772044,22.832596,7.730743,38.188782,,,,,,
1478386153.10,2.481328,0.009550,2.503954,6.606659,-3.817618,-5.067784,0.613298,-0.009550,0.789794,-0.434252,-3.394717,-0.734557,22.417130,15.079727,37.187561,,,,,,
1478386153.12,2.380947,-0.144315,2.488693,6.125877,-5.538378,-4.074379,0.682223,0.143815,0.716860,-0.547061,-2.668000,-0.800692,24.969406,29.621841,29.294434,,,,,,
1478386153.14,2.261094,-0.268573,2.448003,5.443549,-5.269989,-2.477536,0.743415,0.265356,0.613939,-0.721549,-2.976721,-0.299135,26.352127,35.016205,23.667114,,,,,,
1478386153.16,2.159982,-0.339705,2.387205,3.562226,-3.298499,-0.417605,0.783882,0.333209,0.523929,-1.143989,-2.641589,-0.033679,26.352127,35.016205,23.667114,,,,,,
1478386153.18,2.133482,-0.356721,2.364670,-0.025845,0.794445,-0.230956,0.792578,0.349203,0.499877,-1.340750,-1.325018,0.088288,27.350632,38.310425,17.892212,,,,,,
1478386153.20,2.224647,-0.344868,2.402260,-2.665722,5.588843,-0.577076,0.747011,0.338073,0.572434,-1.070620,-0.721511,-0.008164,28.187973,40.107590,15.045166,,,,,,
1478386153.22,2.385713,-0.283212,2.465505,-5.479659,7.496943,1.023774,0.658604,0.279441,0.698680,-0.820027,-0.390433,-0.128978,27.584030,39.658875,16.315491,,,,,,
1478386153.24,2.509057,-0.116346,2.521906,-10.110322,3.294437,4.678462,0.587195,0.116084,0.801079,-0.578817,0.093175,-0.277672,21.387924,33.370743,28.197388,,,,,,
1478386153.26,2.500178,0.121743,2.487882,-6.412599,-1.639939,10.300838,0.593901,-0.121443,0.795320,0.264956,0.922453,0.957045,21.387924,33.370743,28.197388,,,,,,
1478386153.28,2.500457,0.317599,2.371924,-4.006884,-0.919057,9.956564,0.568193,-0.312287,0.761337,0.249586,0.544495,0.092820,23.137070,23.926331,33.793213,,,,,,
1478386153.30,2.510658,0.530228,2.315929,-8.666247,-0.281744,7.236418,0.508902,-0.505730,0.696603,0.535868,-0.524406,-2.173456,27.674118,15.752090,34.538177,,,,,,
,,,,,,,,,,,,,,,,37.354790,-122.033384,36.331146,3.050000,2.460938,1478386371.00
1478386153.32,2.528913,0.725563,2.283139,-7.582649,-0.183682,6.889200,0.430218,-0.663557,0.612050,-0.025372,-0.291872,0.023265,29.204544,6.002579,35.032623,,,,,,
1478386153.34,2.571611,0.933215,2.237896,-7.563981,0.752175,7.151433,0.321209,-0.803538,0.501151,0.030934,0.170130,-0.029791,26.423264,-12.824722,32.736328,,,,,,
1478386153.36,2.674027,1.136154,2.132097,-7.470823,0.440816,7.499044,0.189790,-0.907021,0.375890,0.546493,0.396614,0.584910,26.423264,-12.824722,32.736328,,,,,,
1478386153.38,2.954844,1.326505,1.846838,-7.530727,0.508671,7.480964,0.044907,-0.970309,0.237663,1.183579,0.429385,1.922768,22.491074,-20.927582,29.871338,,,,,,
1478386153.40,-2.274666,1.434337,0.814714,-6.793756,3.349854,7.118250,-0.103706,-0.990704,0.088039,2.705040,0.171826,3.796422,18.716690,-27.907257,25.204529,,,,,,
1478386153.42,-1.564923,1.354888,0.187163,-1.822826,4.305358,3.820623,-0.214231,-0.976782,-0.001258,3.564008,-0.483179,3.895530,12.549179,-33.537476,19.984741,,,,,,
1478386153.44,-1.336631,1.337144,0.014246,-1.864281,1.636261,-0.382486,-0.225214,-0.972827,-0.053723,3.298944,0.576404,1.888638,5.642807,-36.015686,16.773132,,,,,,
1478386153.46,-1.363013,1.334346,0.031146,1.072010,-1.114850,0.298845,-0.229215,-0.972175,-0.048324,1.930829,1.637810,2.180328,5.642807,-36.015686,16.773132,,,,,,
1478386153.48,-1.616707,1.362196,0.254655,4.283549,-1.372185,-2.500885,-0.206872,-0.978322,0.009504,0.786401,0.158589,2.095400,3.014587,-37.367584,14.875854,,,,,,
1478386153.50,-2.708069,1.378272,1.345144,7.356460,-1.733989,-9.085494,-0.080375,-0.981524,0.173637,2.045845,-6.695951,3.848733,4.965591,-36.465546,16.917664,,,,,,
1478386153.52,3.092766,1.285717,1.851725,8.545989,2.498866,-3.150584,0.013726,-0.959639,0.280898,0.441276,-0.442643,0.873277,10.753159,-31.433823,23.635498,,,,,,
1478386153.54,3.042073,1.150911,1.943666,4.104559,1.077509,-1.495482,0.040503,-0.913136,0.405639,0.282877,1.869831,-0.482940,13.011093,-28.354904,27.548828,,,,,,
1478386153.56,3.038029,1.093878,1.966059,2.286662,0.061091,-0.527040,0.047455,-0.888414,0.456584,0.465408,2.399492,0.164876,13.011093,-28.354904,27.548828,,,,,,
1478386153.58,3.001928,1.033456,2.017692,3.822661,0.872950,-2.361958,0.071256,-0.859073,0.506869,0.718997,0.522403,1.136366,13.485489,-20.923843,33.606262,,,,,,
1478386153.60,2.968398,0.961472,2.091088,2.202899,1.773767,-2.198829,0.098627,-0.820035,0.563751,0.481131,-3.265933,0.408524,14.245377,-18.297577,34.880981,,,,,,
