timestamp(unix),attitude_roll(radians),attitude_pitch(radians),attitude_yaw(radians),rotation_rate_x(radians/s),rotation_rate_y(radians/s),rotation_rate_z(radians/s),gravity_x(G),gravity_y(G),gravity_z(G),user_acc_x(G),user_acc_y(G),user_acc_z(G),magnetic_field_x(microteslas),magnetic_field_y(microteslas),magnetic_field_z(microteslas),latitude(degree),longitude(degree),altitude(meter),speed(m/s),course(degree),timestamp(unix)
1478385111.08,0.426888,1.485873,-0.270065,-0.010796,0.046529,-0.009070,0.035119,-0.996396,-0.077209,0.032141,-0.011462,0.046127,12.221313,-4.607010,-2.868713,,,,,,
,,,,,,,,,,,,,,,,37.354238,-122.033504,47.674927,0.000000,305.156250,1478385200.67
,,,,,,,,,,,,,,,,37.354238,-122.033504,47.674927,0.000000,305.156250,1478385200.00
1478385111.10,0.421330,1.485474,-0.263807,-0.042658,0.014331,-0.014554,0.034852,-0.996362,-0.077766,-0.022111,0.008463,0.002647,11.769409,-4.831406,-2.272583,,,,,,
1478385111.12,0.424579,1.484326,-0.265763,-0.054657,0.089772,-0.037873,0.035576,-0.996264,-0.078695,-0.012016,0.035555,0.027135,11.470764,-4.531403,-2.276428,,,,,,
1478385111.14,0.430076,1.482755,-0.269785,-0.077950,0.052501,-0.024128,0.036661,-0.996127,-0.079921,0.021933,-0.025541,0.004207,12.070618,-4.681778,-2.645020,,,,,,
1478385111.16,0.428585,1.480875,-0.267264,-0.099312,0.068390,-0.027327,0.037319,-0.995960,-0.081678,0.007496,0.010471,0.018690,12.070618,-4.681778,-2.645020,,,,,,
1478385111.18,0.426774,1.479164,-0.263341,-0.094116,0.115530,-0.013299,0.037877,-0.995805,-0.083296,0.004070,-0.003249,0.013823,12.296875,-4.456924,-2.793457,,,,,,
1478385111.20,0.425129,1.477367,-0.258863,-0.088957,0.164574,-0.018497,0.038478,-0.995639,-0.084989,0.006032,0.018969,0.008054,11.844940,-4.681335,-2.197266,,,,,,
1478385111.21,0.429532,1.475682,-0.259717,-0.074049,0.173414,-0.004438,0.039550,-0.995480,-0.086344,0.027268,0.004803,0.004038,11.996307,-4.607010,-2.870972,,,,,,
1478385111.23,0.423557,1.474457,-0.250696,-0.068548,0.134321,0.026449,0.039535,-0.995363,-0.087690,0.046769,-0.006407,-0.002734,12.071747,-4.456848,-2.720703,,,,,,
1478385111.25,0.421978,1.472844,-0.247107,-0.044886,0.074931,0.049827,0.040054,-0.995207,-0.089217,0.051148,0.024534,-0.020906,12.071747,-4.456848,-2.720703,,,,,,
1478385111.27,0.409490,1.473035,-0.233493,0.004269,0.040207,0.075459,0.038861,-0.995225,-0.089536,0.046527,0.027848,-0.048022,11.771362,-4.456558,-2.423706,,,,,,
1478385111.29,0.394234,1.474342,-0.217667,0.040629,0.011914,0.107497,0.036991,-0.995352,-0.088917,0.049649,0.010794,-0.096157,11.546021,-4.606781,-2.650452,,,,,,
1478385111.31,0.372481,1.474716,-0.196502,0.140015,-0.066120,0.154463,0.034913,-0.995388,-0.089355,0.067062,0.040401,-0.057862,12.295990,-4.606781,-2.643005,,,,,,
1478385111.33,0.348345,1.479643,-0.177431,0.215789,-0.419680,0.191017,0.031071,-0.995848,-0.085560,0.174342,0.018004,-0.112026,12.071045,-4.682083,-2.945007,,,,,,
1478385111.35,0.298448,1.485709,-0.140439,0.258488,-0.731080,0.283187,0.024989,-0.996382,-0.081228,0.080450,0.012373,-0.060862,12.071045,-4.682083,-2.945007,,,,,,
1478385111.37,0.230730,1.493109,-0.086095,0.317879,-0.637676,0.306101,0.017748,-0.996984,-0.075553,-0.008379,0.039632,-0.019876,12.370605,-4.757004,-2.866760,,,,,,
1478385111.39,0.154363,1.500509,-0.020957,0.316500,-0.531804,0.325622,0.010798,-0.997531,-0.069394,-0.005564,0.014575,-0.054187,12.145050,-4.907074,-2.943604,,,,,,
1478385111.41,0.054470,1.508211,0.069665,0.388684,-0.444878,0.344149,0.003405,-0.998042,-0.062451,-0.028872,0.043208,-0.034793,11.770203,-4.907166,-3.022339,,,,,,
1478385111.43,-0.064617,1.516355,0.182403,0.417933,-0.273124,0.330783,-0.003514,-0.998518,-0.054301,0.002461,0.018828,-0.031942,11.845612,-4.907455,-3.321594,,,,,,
1478385111.45,-0.240646,1.524163,0.352627,0.453291,-0.316246,0.372395,-0.011110,-0.998913,-0.045273,0.044984,0.037289,-0.053528,11.845612,-4.907455,-3.321594,,,,,,
,,,,,,,,,,,,,,,,37.354238,-122.033504,48.838379,0.000000,305.156250,1478385201.00
1478385111.47,-0.512008,1.531755,0.615997,0.621038,-0.457227,0.399009,-0.019123,-0.999238,-0.034026,0.068180,0.066453,-0.035584,11.094299,-5.057022,-2.878601,,,,,,
1478385111.49,-0.925220,1.536502,1.020353,0.672146,-0.447380,0.403399,-0.027388,-0.999412,-0.020630,0.069853,0.028648,-0.039429,11.319305,-5.207458,-3.325928,,,,,,
1478385111.51,-1.367037,1.534456,1.454009,0.657196,-0.424732,0.428009,-0.035581,-0.999340,-0.007352,0.051221,0.013179,-0.095004,11.318634,-5.357468,-3.325500,,,,,,
1478385111.53,-1.719025,1.526335,1.800091,0.694730,-0.193472,0.388219,-0.043960,-0.999012,0.006564,-0.119462,0.056461,-0.032291,11.468170,-5.432388,-3.248779,,,,,,
1478385111.55,-1.943338,1.516299,2.027807,0.628807,0.388008,0.311709,-0.050734,-0.998515,0.019826,-0.298845,0.027431,0.033167,11.468170,-5.432388,-3.248779,,,,,,
1478385111.57,-2.052063,1.507236,2.151175,0.462996,0.885684,0.218768,-0.056303,-0.997981,0.029403,-0.231310,0.071101,0.128022,10.491028,-5.731873,-2.732666,,,,,,
1478385111.59,-2.113884,1.500383,2.234487,0.395905,1.169401,0.139300,-0.060233,-0.997522,0.036358,0.008658,0.110681,0.195789,11.240448,-5.881943,-2.799744,,,,,,
1478385111.61,-2.155068,1.493758,2.299989,0.370417,1.157886,0.165935,-0.064195,-0.997034,0.042452,0.246446,-0.004843,0.103254,11.088898,-6.031342,-2.200745,,,,,,
1478385111.63,-2.184726,1.485463,2.345247,0.383483,0.475456,0.294428,-0.069666,-0.996361,0.049099,0.369821,-0.071159,-0.115689,11.014496,-5.730820,-1.677429,,,,,,
1478385111.65,-2.205138,1.474819,2.366721,0.412206,-0.109869,0.417873,-0.077187,-0.995398,0.056793,0.055962,0.029761,-0.122269,11.014496,-5.730820,-1.677429,,,,,,
1478385111.67,-2.226018,1.462044,2.384472,0.471074,-0.174207,0.462672,-0.086061,-0.994092,0.066136,-0.115690,0.041715,-0.082142,10.637115,-6.180588,-1.454895,,,,,,
1478385111.69,-2.249191,1.449928,2.403205,0.453055,-0.247877,0.374929,-0.093877,-0.992704,0.075666,-0.081096,0.004728,-0.026120,11.537903,-6.030655,-1.521240,,,,,,
1478385111.71,-2.274157,1.438486,2.425553,0.487453,-0.032633,0.338187,-0.100616,-0.991260,0.085327,-0.057450,-0.016553,0.138367,10.862213,-6.255890,-1.752319,,,,,,
1478385111.73,-2.294468,1.427527,2.445846,0.439642,-0.078878,0.323018,-0.106996,-0.989754,0.094540,0.028932,0.002786,0.022174,10.184540,-6.705460,-1.307861,,,,,,
1478385111.75,-2.314001,1.416760,2.459452,0.448198,-0.413839,0.329591,-0.112970,-0.988160,0.103817,0.076257,0.024033,-0.014279,10.184540,-6.705460,-1.307861,,,,,,
1478385111.77,-2.341485,1.405736,2.476529,0.496619,-0.576195,0.301449,-0.117882,-0.986408,0.114464,-0.013954,0.008717,-0.027153,11.084869,-6.705673,-1.523804,,,,,,
1478385111.79,-2.370962,1.394146,2.494860,0.539245,-0.585767,0.290813,-0.122414,-0.984438,0.126084,-0.066383,-0.042173,-0.034577,10.785767,-6.555817,-1.677246,,,,,,
1478385111.81,-2.402794,1.382767,2.515067,0.550947,-0.601174,0.248054,-0.125874,-0.982374,0.138188,-0.042033,-0.015199,0.000773,10.109619,-6.630310,-1.158813,,,,,,
1478385111.83,-2.434661,1.371097,2.534050,0.583252,-0.709953,0.243537,-0.128845,-0.980126,0.150836,0.022339,0.051385,-0.053759,10.110748,-6.480606,-1.459229,,,,,,
1478385111.85,-2.468574,1.359331,2.556277,0.614540,-0.535642,0.175692,-0.130837,-0.977724,0.164125,-0.046943,-0.028730,-0.088731,10.110748,-6.480606,-1.459229,,,,,,
1478385111.87,-2.503144,1.346083,2.581112,0.707206,-0.526630,0.186562,-0.132794,-0.974858,0.178935,-0.030018,-0.034908,-0.126399,10.859528,-6.780670,-1.525818,,,,,,
1478385111.89,-2.538236,1.332546,2.604902,0.694868,-0.666535,0.180814,-0.133910,-0.971752,0.194333,0.049071,-0.035709,-0.078824,10.184387,-6.855820,-1.682373,,,,,,
1478385111.91,-2.569633,1.318948,2.624108,0.711529,-0.554576,0.168330,-0.134884,-0.968453,0.209534,0.033947,0.030709,0.059937,10.333496,-7.080887,-1.755127,,,,,,
1478385111.93,-2.598242,1.304938,2.645061,0.755614,-0.369163,0.132590,-0.135837,-0.964867,0.224899,-0.003826,0.006783,-0.022125,10.332489,-7.155441,-1.305054,,,,,,
1478385111.95,-2.624747,1.290113,2.665633,0.789622,-0.336829,0.148765,-0.136883,-0.960866,0.240830,-0.015186,-0.047099,-0.130204,10.332489,-7.155441,-1.305054,,,,,,
1478385111.97,-2.649341,1.274369,2.682146,0.812559,-0.494246,0.184698,-0.138052,-0.956386,0.257423,0.003424,-0.022526,-0.121269,10.181915,-7.380753,-1.605774,,,,,,
1478385111.99,-2.672924,1.258120,2.696294,0.821127,-0.501517,0.198582,-0.138946,-0.951514,0.274437,0.027495,-0.014566,-0.065423,10.180908,-7.605743,-1.605103,,,,,,
1478385112.01,-2.692206,1.240911,2.705418,0.843852,-0.571947,0.280697,-0.140721,-0.946080,0.291772,0.087895,0.020054,-0.047662,9.505524,-7.530228,-1.087158,,,,,,
1478385112.03,-2.710730,1.223398,2.710894,0.820894,-0.711637,0.296299,-0.142192,-0.940261,0.309338,0.107219,0.054672,0.013767,10.255249,-7.605301,-1.154419,,,,,,
1478385112.05,-2.728589,1.206332,2.714188,0.786895,-0.744986,0.284395,-0.143065,-0.934315,0.326478,0.023604,0.053608,0.112395,10.255249,-7.605301,-1.154419,,,,,,
1478385112.07,-2.747312,1.189892,2.719727,0.832141,-0.615724,0.192945,-0.142809,-0.928329,0.343236,-0.014326,0.084701,0.082499,9.878540,-7.980301,-1.157043,,,,,,
1478385112.09,-2.765948,1.173033,2.728905,0.859256,-0.454956,0.153903,-0.142111,-0.921930,0.360347,-0.025278,0.001672,-0.109722,9.654510,-7.830460,-1.309814,,,,,,
1478385112.11,-2.781447,1.155415,2.735373,0.882041,-0.552281,0.217780,-0.142211,-0.914963,0.377650,0.008254,-0.131684,-0.033061,9.427795,-7.979782,-0.636536,,,,,,
1478385112.13,-2.799124,1.139284,2.742382,0.753913,-0.527757,0.077661,-0.140452,-0.908334,0.393957,-0.081624,-0.179694,0.131754,10.027985,-8.055145,-1.005310,,,,,,
1478385112.15,-2.817682,1.125780,2.754651,0.748417,-0.227821,-0.092471,-0.137009,-0.902604,0.408087,-0.052871,-0.178069,0.018412,10.027985,-8.055145,-1.005310,,,,,,
1478385112.17,-2.833760,1.111816,2.776236,0.826917,0.427213,-0.309559,-0.134237,-0.896505,0.422208,-0.102931,-0.423670,-0.056257,9.426117,-8.354782,-0.635437,,,,,,
1478385112.19,-2.841600,1.098144,2.800707,0.794950,0.762278,-0.300145,-0.134532,-0.890364,0.434917,0.018397,-0.641847,0.033558,10.175293,-8.354248,-0.102966,,,,,,
1478385112.21,-2.850476,1.087083,2.823555,0.592424,0.418692,-0.413627,-0.133485,-0.885274,0.445502,0.180238,-0.588344,0.009058,10.398376,-8.804321,-0.174377,,,,,,
1478385112.23,-2.867166,1.081050,2.848913,0.360934,0.162062,-0.474567,-0.127477,-0.882452,0.452800,0.213994,-0.644724,-0.018230,9.497070,-8.878662,0.491882,,,,,,
1478385112.25,-2.890800,1.078373,2.869549,0.248348,-0.574101,-0.427641,-0.117327,-0.881190,0.457973,0.211718,-0.675619,-0.551677,9.497070,-8.878662,0.491882,,,,,,
1478385112.27,-2.933452,1.072135,2.888763,0.605882,-1.690313,-0.273031,-0.098826,-0.878224,0.467928,0.101084,-0.596737,-1.476625,8.968658,-9.478195,0.938354,,,,,,
1478385112.29,-2.973058,1.046720,2.896506,1.705993,-1.363484,0.211640,-0.083938,-0.865786,0.493324,-0.084076,-0.130368,-1.166053,7.763733,-10.452835,1.304199,,,,,,
1478385112.31,-2.978003,0.999338,2.893430,2.727721,0.132485,0.686570,-0.088085,-0.841113,0.533638,-0.059468,-0.622357,-0.716408,7.685486,-11.127686,1.455505,,,,,,
1478385112.33,-2.962717,0.931695,2.877683,3.601102,0.066554,1.147330,-0.106127,-0.802632,0.586957,-0.097563,-1.001521,-0.765195,7.606476,-11.726791,2.356506,,,,,,
1478385112.35,-2.948361,0.844928,2.860900,4.525298,0.015793,1.432998,-0.127468,-0.747923,0.651431,0.056514,-1.255571,-0.221911,7.606476,-11.726791,2.356506,,,,,,
1478385112.37,-2.945572,0.734089,2.840851,5.625551,-0.991796,1.962078,-0.144604,-0.669911,0.728223,-0.119419,-1.041225,0.280414,7.526611,-12.250137,4.007263,,,,,,
1478385112.39,-2.959325,0.616363,2.820524,5.521137,-1.403126,1.774859,-0.147906,-0.578071,0.802470,-0.066785,-0.959771,0.581670,6.166718,-13.296692,7.446777,,,,,,
1478385112.41,-2.980695,0.508235,2.807003,5.047567,-1.444673,1.303815,-0.139955,-0.486636,0.862321,-0.136321,-0.968549,0.673232,6.838135,-13.519958,9.179138,,,,,,
1478385112.43,-3.006258,0.413805,2.800898,4.349624,-1.317238,0.755920,-0.123534,-0.402096,0.907226,-0.060563,-0.812809,0.631242,6.609650,-13.743317,10.827576,,,,,,
1478385112.45,-3.026625,0.339166,2.799709,3.285686,-0.905904,0.415442,-0.108179,-0.332701,0.936807,-0.037161,-0.767015,0.671408,6.609650,-13.743317,10.827576,,,,,,
,,,,,,,,,,,,,,,,37.354238,-122.033504,48.822144,0.000000,305.156250,1478385202.00
1478385112.47,-3.034888,0.287988,2.800187,2.064839,-0.023386,0.173214,-0.102116,-0.284023,0.953364,0.032109,-0.763569,0.578618,6.380615,-14.116745,12.401367,,,,,,
1478385112.49,-3.025328,0.269631,2.799034,0.150651,0.600180,0.176941,-0.111811,-0.266376,0.957362,0.173976,-0.669446,0.117971,6.073425,-14.864182,14.950562,,,,,,
1478385112.51,-3.011586,0.289811,2.792894,-1.705371,0.675972,0.133321,-0.124234,-0.285771,0.950211,0.348035,-0.373118,0.023239,6.218903,-15.839111,15.029968,,,,,,
1478385112.53,-2.994790,0.342606,2.786045,-3.249739,0.766697,-0.186438,-0.137774,-0.335943,0.931751,0.320224,0.031575,-0.136936,5.690521,-16.589127,15.026917,,,,,,
1478385112.55,-2.975344,0.430269,2.781544,-4.996729,0.858177,-0.647579,-0.150400,-0.417115,0.896323,0.307185,0.369981,-0.528952,5.690521,-16.589127,15.026917,,,,,,
1478385112.57,-2.956422,0.544234,2.776147,-5.963254,0.892414,-0.784856,-0.157514,-0.517763,0.840899,0.168287,0.805925,-0.451662,5.610382,-17.939713,14.430115,,,,,,
1478385112.59,-2.927826,0.672228,2.765637,-6.558015,1.273064,-0.892754,-0.165988,-0.622730,0.764627,0.093768,1.178562,-0.471811,5.380524,-20.418900,10.235291,,,,,,
1478385112.61,-2.886870,0.807311,2.750247,-6.783260,1.636531,-1.125062,-0.174228,-0.722431,0.669133,0.073413,1.528034,-0.501851,5.378601,-21.621231,7.913879,,,,,,
1478385112.63,-2.838990,0.947523,2.733565,-6.960400,1.843865,-1.578879,-0.173945,-0.811972,0.557175,0.067896,1.685736,-0.321503,5.307098,-21.774002,5.138611,,,,,,
1478385112.65,-2.782937,1.089874,2.710715,-6.899705,1.742076,-1.810901,-0.162379,-0.886569,0.433162,0.149500,1.602969,0.046208,5.307098,-21.774002,5.138611,,,,,,
1478385112.67,-2.710804,1.229919,2.654835,-6.874371,0.327875,-1.485673,-0.139605,-0.942462,0.303770,0.180346,1.785922,0.027956,5.234741,-21.851028,3.113159,,,,,,
1478385112.69,-2.582959,1.349546,2.495250,-5.749642,-2.162318,-0.640103,-0.116315,-0.975624,0.186089,0.190839,1.758506,0.391685,6.441010,-21.479095,0.049072,,,,,,
1478385112.71,-2.409619,1.433075,2.260695,-3.910829,-3.074224,-1.084944,-0.091754,-0.990531,0.102121,0.145861,1.312904,0.758871,7.430359,-19.984177,-5.045532,,,,,,
1478385112.73,-2.283131,1.498040,2.082921,-2.369434,-1.856705,-2.015920,-0.055016,-0.997354,0.047512,-0.106102,0.962641,1.146168,7.736786,-19.160980,-6.844910,,,,,,
1478385112.75,-2.878527,1.539911,2.684264,0.205550,1.802430,-2.459728,-0.008030,-0.999523,0.029818,-0.666317,0.621410,1.744032,7.736786,-19.160980,-6.844910,,,,,,
1478385112.77,2.882356,1.480253,-2.998138,4.300825,4.750457,-0.823550,0.023178,-0.995904,0.087398,-1.594330,-0.836662,1.561650,8.340851,-18.561874,-7.740662,,,,,,
1478385112.79,-3.014088,1.411274,2.997388,2.793504,4.624489,2.408664,-0.020199,-0.987303,0.157557,-0.178638,-2.705919,-0.221583,9.315369,-18.335892,-6.756592,,,,,,
1478385112.81,-2.777674,1.353048,2.807871,1.961214,0.735874,2.304635,-0.076894,-0.976386,0.201884,0.439595,0.041694,-0.722071,9.454163,-19.306320,-2.177307,,,,,,
1478385112.83,-2.677350,1.300508,2.658695,1.466101,-2.598298,3.039292,-0.119552,-0.963694,0.238749,0.598785,1.388529,0.331823,7.498108,-20.204987,-0.844177,,,,,,
1478385112.85,-2.618900,1.227307,2.556495,3.292982,-1.881662,2.431167,-0.168123,-0.941585,0.291808,1.336061,0.978725,0.980668,7.498108,-20.204987,-0.844177,,,,,,
1478385112.87,-2.729234,1.175130,2.657511,2.495700,-0.514142,-1.913868,-0.154466,-0.922740,0.353116,1.015047,-0.026433,0.362735,6.595642,-20.654694,-0.551880,,,,,,
1478385112.89,-2.846829,1.150946,2.783004,2.212656,0.274985,-1.423921,-0.118420,-0.913150,0.390043,0.197369,-0.285336,0.529116,6.444519,-20.578720,0.421448,,,,,,
1478385112.91,-2.867947,1.106723,2.825867,2.288543,1.042578,0.365793,-0.120959,-0.894237,0.430940,-0.308911,-0.224034,0.215773,7.195740,-19.977737,1.402161,,,,,,
1478385112.93,-2.855245,1.064693,2.813520,1.729194,-0.602785,0.996005,-0.136924,-0.874640,0.465033,-0.642022,-0.372735,0.035073,6.744293,-19.600647,3.496521,,,,,,
1478385112.95,-2.868864,1.030816,2.795829,1.351211,-1.725628,0.825585,-0.138483,-0.857719,0.495117,-0.655096,0.085609,0.111404,6.744293,-19.600647,3.496521,,,,,,
1478385112.97,-2.866214,1.001647,2.775042,1.303505,-0.070670,1.008481,-0.146537,-0.842360,0.518610,-0.203927,0.154311,0.309225,6.743164,-19.675110,4.021667,,,,,,
1478385112.99,-2.847689,0.971445,2.756902,1.245120,0.076601,0.759842,-0.163417,-0.825702,0.539918,-0.123281,0.035251,0.179259,6.966919,-19.749512,4.624207,,,,,,
1478385113.01,-2.849894,0.949007,2.752072,0.904509,-0.557727,0.291672,-0.167512,-0.812838,0.557884,-0.143691,0.011477,0.241433,6.817200,-19.523987,5.146973,,,,,,
1478385113.03,-2.870457,0.935561,2.754847,0.524309,-1.043602,0.024706,-0.158919,-0.804932,0.571689,-0.222444,0.058823,0.399883,6.592957,-19.073181,5.968384,,,,,,
1478385113.05,-2.893322,0.930522,2.760869,0.169504,-0.798933,-0.196402,-0.146802,-0.801932,0.579098,-0.281909,-0.177545,0.691074,6.592957,-19.073181,5.968384,,,,,,
1478385113.07,-2.914312,0.933387,2.770885,-0.270487,-0.546641,-0.378105,-0.134097,-0.803640,0.579811,-0.287320,-0.490641,0.829521,6.294067,-18.773026,6.114502,,,,,,
1478385113.09,-2.929054,0.951833,2.778781,-1.224869,-0.297403,-0.476306,-0.122387,-0.814480,0.567136,-0.264683,-0.558673,0.990466,6.744080,-18.848251,5.894165,,,,,,
1478385113.11,-2.936735,0.983391,2.794440,-1.474129,0.765795,-0.993068,-0.112740,-0.832382,0.542615,-0.190437,-0.977845,1.200366,6.067078,-19.298248,5.888794,,,,,,
1478385113.13,-2.933163,1.019706,2.833347,-1.658988,2.304363,-1.576790,-0.108349,-0.851954,0.512284,0.479870,-1.841146,0.114044,6.742188,-19.448776,5.370972,,,,,,
1478385113.15,-2.925177,1.063859,2.869645,-2.152638,1.357643,-1.082368,-0.104252,-0.874235,0.474177,1.054951,-1.916994,-1.126872,6.742188,-19.448776,5.370972,,,,,,
1478385113.17,-2.947462,1.111219,2.882825,-2.186508,-1.516821,-0.777287,-0.085571,-0.896240,0.435237,0.309142,-0.917618,-1.550105,7.038330,-20.499359,4.777100,,,,,,
1478385113.19,-2.996850,1.142527,2.900982,-0.935901,-1.403852,-0.554705,-0.059901,-0.909686,0.410954,-0.238255,-0.188855,-1.289418,7.188904,-20.650177,3.954041,,,,,,
1478385113.21,-3.046687,1.145227,2.926221,0.418916,-1.274453,-0.418439,-0.039122,-0.910804,0.410981,-0.610826,0.082984,-1.721421,6.961639,-21.250488,3.653564,,,,,,
1478385113.23,-3.049094,1.112633,2.915060,2.459924,-0.320945,0.867704,-0.040854,-0.896867,0.440411,-0.289972,0.704041,-1.424984,7.260284,-21.550491,3.657471,,,,,,
1478385113.25,-3.015699,1.043723,2.883517,3.729758,0.732599,1.033075,-0.063158,-0.864283,0.499025,-0.186491,0.999506,-1.168276,7.260284,-21.550491,3.657471,,,,,,
1478385113.27,-2.983813,0.956165,2.877513,4.598944,1.642534,0.825542,-0.090608,-0.816986,0.569494,0.148973,0.077621,-1.215170,6.732147,-21.247498,6.651306,,,,,,
1478385113.29,-2.936091,0.854763,2.873527,5.121448,2.272131,1.109178,-0.133943,-0.754415,0.642586,0.365343,-0.175638,-0.871010,5.528473,-21.169800,9.338989,,,,,,
1478385113.31,-2.920031,0.747978,2.874996,5.242858,-0.025186,1.084907,-0.161094,-0.680158,0.715146,0.280006,-0.597568,-0.751066,5.002808,-20.191437,12.705811,,,,,,
1478385113.33,-2.934889,0.646498,2.878820,4.886211,-0.869380,0.829816,-0.163818,-0.602395,0.781207,0.012924,-1.256370,0.174878,5.152618,-19.138138,16.004150,,,,,,
1478385113.35,-2.961665,0.550628,2.888573,4.672949,-1.040461,0.332158,-0.152507,-0.523223,0.838439,-0.300526,-1.223207,0.682527,5.152618,-19.138138,16.004150,,,,,,
1478385113.37,-2.983039,0.464352,2.903841,4.086741,-0.485220,-0.080814,-0.141171,-0.447843,0.882897,-0.325137,-1.037066,0.857475,4.705231,-16.807907,21.242737,,,,,,
1478385113.39,-2.999313,0.395540,2.917957,3.171314,-0.677927,-0.026310,-0.130851,-0.385307,0.913464,-0.140450,-1.161278,0.928318,4.480591,-15.980652,23.487976,,,,,,
1478385113.41,-3.019027,0.348768,2.918759,1.678920,-1.141309,0.417488,-0.114898,-0.341740,0.932745,0.190353,-0.844051,0.641779,5.230713,-15.454147,24.993896,,,,,,
1478385113.43,-3.048659,0.339008,2.917305,-0.262478,-1.610359,-0.186564,-0.087518,-0.332551,0.939016,0.201333,-0.155287,0.814143,5.379364,-15.603699,25.445862,,,,,,
1478385113.45,-3.072421,0.363762,2.926523,-1.593003,-0.528397,-0.670967,-0.064594,-0.355793,0.932330,0.284840,0.110783,1.095166,5.379364,-15.603699,25.445862,,,,,,
,,,,,,,,,,,,,,,,37.354241,-122.033506,48.508362,0.950000,175.078125,1478385203.00
1478385113.47,-3.070627,0.411758,2.940727,-2.956880,0.798244,-0.851322,-0.064980,-0.400221,0.914112,0.063637,0.231383,0.398113,5.900696,-16.579208,24.928955,,,,,,
1478385113.49,-3.053395,0.495884,2.946444,-4.788760,0.906049,-0.367012,-0.077473,-0.475809,0.876130,-0.109706,0.241755,-0.022721,6.341034,-19.506531,22.617188,,,,,,
1478385113.51,-3.031964,0.606922,2.938019,-5.995592,0.944017,-0.206606,-0.089869,-0.570342,0.816476,0.071330,0.802230,0.035849,6.409515,-21.758911,20.224609,,,,,,
1478385113.53,-2.995487,0.731748,2.928132,-6.338055,1.952077,-0.486493,-0.108318,-0.668171,0.736081,-0.012624,1.346470,0.133228,6.554382,-24.087509,16.633057,,,,,,
1478385113.55,-2.937518,0.863269,2.909036,-6.784698,2.046560,-0.477394,-0.131721,-0.759971,0.636470,0.038337,1.905937,-0.144938,6.554382,-24.087509,16.633057,,,,,,
1478385113.57,-2.886016,1.000293,2.855665,-7.112548,-0.920949,0.348310,-0.136528,-0.841629,0.522513,0.041771,2.241852,-0.414573,5.875183,-26.191025,13.107544,,,,,,
1478385113.59,-2.846763,1.133715,2.735461,-7.295880,-4.421154,1.200580,-0.123000,-0.905991,0.405033,0.108596,1.618805,-0.219074,5.429596,-28.149796,4.333984,,,,,,
1478385113.61,-2.755174,1.263235,2.528927,-7.215448,-5.117728,1.463772,-0.114093,-0.953075,0.280413,0.250369,0.965877,0.605268,5.138000,-27.929749,-0.619568,,,,,,
1478385113.63,-2.508842,1.358879,2.204434,-5.303584,-1.588140,1.101791,-0.124385,-0.977629,0.169615,0.253382,1.324462,1.904268,3.871948,-27.559647,-5.508301,,,,,,
1478385113.65,-2.162637,1.409052,1.901911,-2.812951,4.572962,-0.419729,-0.133650,-0.986948,0.089843,-0.133089,2.125681,1.512712,3.871948,-27.559647,-5.508301,,,,,,
1478385113.67,-1.941706,1.445039,1.798514,-0.751813,6.065529,-1.534950,-0.116896,-0.992103,0.045462,-0.341920,1.686927,0.761850,2.004639,-26.812531,-8.379272,,,,,,
1478385113.69,-1.988415,1.468340,1.925531,0.748296,2.303799,-1.036256,-0.093487,-0.994756,0.041482,-0.227786,0.938497,0.261237,3.885468,-26.064148,-10.012695,,,,,,
1478385113.71,-2.276632,1.445041,2.215918,3.304422,-0.850185,0.964944,-0.095457,-0.992103,0.081359,0.149931,0.097602,0.444291,7.035309,-25.838379,-9.231873,,,,,,
1478385113.73,-2.451008,1.378548,2.418438,2.435317,2.068967,0.305835,-0.121707,-0.981577,0.147288,0.165927,-3.161642,-0.988749,6.278442,-26.886963,-7.811340,,,,,,
1478385113.75,-2.623452,1.343198,2.620827,2.130716,0.928152,-0.676508,-0.111751,-0.974211,0.196021,0.145076,-0.386232,-0.409202,6.278442,-26.886963,-7.811340,,,,,,
1478385113.77,-2.689108,1.305085,2.678846,1.649102,-1.167851,1.062690,-0.114807,-0.964906,0.236169,0.135208,0.489702,0.509131,5.974884,-27.110229,-6.088684,,,,,,
1478385113.79,-2.572571,1.247439,2.528871,2.805400,-1.622975,4.585099,-0.171207,-0.948174,0.267683,0.904255,0.925637,1.212695,7.324554,-26.959549,-5.400635,,,,,,
1478385113.81,-2.588489,1.132507,2.504150,5.240398,-1.114976,2.045751,-0.222946,-0.905479,0.361114,1.217178,0.342719,0.594025,3.567841,-27.782547,-3.410767,,,,,,
1478385113.83,-2.648523,1.089844,2.554405,0.690826,-2.059926,-0.508677,-0.218974,-0.886555,0.407517,0.418269,0.246144,-0.347398,2.511993,-28.305237,-1.094727,,,,,,
1478385113.85,-2.726055,1.082610,2.613808,1.254689,-0.186739,-1.185265,-0.189337,-0.883185,0.429111,0.109793,-0.157022,1.207867,2.511993,-28.305237,-1.094727,,,,,,
1478385113.87,-2.786083,1.051076,2.680852,2.454637,-0.385720,-0.619598,-0.172864,-0.867958,0.465583,-0.381168,-0.357536,0.695215,3.412811,-28.080078,-0.936462,,,,,,
1478385113.89,-2.813887,0.999156,2.705057,2.426505,-0.212429,0.852047,-0.174137,-0.841015,0.512221,-0.921139,-0.305347,0.035478,3.939331,-27.479324,-0.182983,,,,,,
1478385113.91,-2.796269,0.982670,2.675147,0.243831,-0.735000,0.487823,-0.187802,-0.831981,0.522051,-1.912815,-0.217777,0.574644,4.462097,-27.628265,0.872803,,,,,,
1478385113.93,-2.811393,0.976337,2.690643,0.098115,0.782940,-0.315982,-0.181590,-0.828451,0.529805,-0.567144,-0.478479,0.853862,3.108978,-28.002304,1.835327,,,,,,
1478385113.95,-2.776495,0.992004,2.680204,-1.028986,1.010404,0.138899,-0.195306,-0.837124,0.510959,-0.418708,-0.519947,1.118329,3.108978,-28.002304,1.835327,,,,,,
1478385113.97,-2.759205,1.005979,2.666422,-0.788081,0.217227,-0.051975,-0.199726,-0.844686,0.496603,0.116901,-1.146296,0.631113,3.786774,-27.477600,1.540588,,,,,,
1478385113.99,-2.747751,1.031725,2.675833,-1.124651,1.346364,-1.095439,-0.196988,-0.858186,0.474039,1.132764,-2.257140,-0.291498,3.486237,-27.702896,1.238220,,,,,,
1478385114.01,-2.755883,1.061745,2.701222,-1.157308,-0.022511,-0.977462,-0.183349,-0.873207,0.451544,1.557998,-1.525077,-1.264059,3.411011,-27.853210,0.937866,,,,,,
1478385114.03,-2.785221,1.085950,2.697390,-1.082175,-2.731768,-0.097993,-0.162601,-0.884747,0.436789,1.079716,-0.623966,-1.657950,3.639221,-27.328796,0.338623,,,,,,
1478385114.05,-2.868920,1.095693,2.694026,-0.085608,-4.862213,-0.093573,-0.123189,-0.889246,0.440530,-0.235316,0.186624,-1.676858,3.639221,-27.328796,0.338623,,,,,,
1478385114.07,-2.949607,1.079622,2.700904,1.210082,-2.546251,0.155447,-0.089997,-0.881780,0.462996,-0.805160,0.396016,-1.461943,3.041748,-26.954330,-0.193542,,,,,,
1478385114.09,-2.957590,1.048901,2.707148,1.650703,1.145519,0.072348,-0.091213,-0.866876,0.490109,-0.605335,0.196008,-1.332577,1.991180,-27.029190,-0.053772,,,,,,
1478385114.11,-2.918360,1.005460,2.712903,2.596436,2.442095,0.583992,-0.118595,-0.844408,0.522408,-0.012219,0.243807,-1.075844,1.767731,-26.428452,0.692200,,,,,,
1478385114.13,-2.873128,0.940656,2.698361,3.240730,1.274704,1.455871,-0.156302,-0.807945,0.568150,0.442389,-0.181130,-1.042531,1.470734,-24.775452,3.684265,,,,,,
1478385114.15,-2.843602,0.858181,2.673943,3.978829,-0.359582,2.072345,-0.191960,-0.756655,0.625000,0.601231,-0.622023,-1.059173,1.470734,-24.775452,3.684265,,,,,,
1478385114.17,-2.880401,0.767422,2.654087,4.253846,-3.764432,1.921357,-0.185850,-0.694282,0.695293,-0.178148,-0.761178,-0.351909,0.648224,-23.498291,5.847168,,,,,,
1478385114.19,-2.948159,0.671040,2.632915,4.668813,-3.766760,1.597272,-0.150550,-0.621801,0.768569,-0.755029,-0.400797,0.929017,0.427979,-21.696060,8.089600,,,,,,
1478385114.21,-2.995528,0.575750,2.632387,4.692816,-1.526525,0.461333,-0.122082,-0.544464,0.829853,-0.760288,-0.711487,1.176678,-0.317383,-19.968964,10.177002,,,,,,
1478385114.23,-3.004491,0.487377,2.640429,4.166667,0.282333,0.188672,-0.120759,-0.468310,0.875273,-0.632231,-0.972059,0.897966,0.513672,-17.791473,12.653748,,,,,,
1478385114.25,-2.991211,0.416470,2.651001,3.256378,1.296686,-0.101801,-0.137010,-0.404535,0.904201,-0.255355,-0.814566,0.981007,0.513672,-17.791473,12.653748,,,,,,
1478385114.27,-2.960451,0.370884,2.674279,1.853239,2.160195,-1.162810,-0.167904,-0.362440,0.916758,0.108166,-0.341357,0.783269,-0.228058,-14.487076,17.061401,,,,,,
1478385114.29,-2.940743,0.360174,2.716588,0.343757,1.373664,-2.125974,-0.186701,-0.352437,0.917023,0.459406,-0.011195,0.758667,-1.273529,-13.060822,18.321716,,,,,,
1478385114.31,-2.952240,0.381400,2.769611,-1.188120,-0.047529,-3.059939,-0.174698,-0.372220,0.911555,0.792404,0.379728,0.556020,-2.848724,-12.759781,19.354980,,,,,,
1478385114.33,-2.971072,0.433827,2.831458,-2.617183,0.400641,-3.150940,-0.153975,-0.420347,0.894204,0.172896,-0.470019,0.313972,-2.623489,-12.684708,19.432068,,,,,,
1478385114.35,-2.983409,0.517859,2.875326,-4.523908,0.452066,-2.271599,-0.136870,-0.495021,0.858033,-0.389314,0.163996,0.123839,-2.623489,-12.684708,19.432068,,,,,,
1478385114.37,-2.981593,0.625017,2.895520,-5.488610,0.715724,-1.428498,-0.129200,-0.585111,0.800595,0.133686,0.584882,0.043948,-2.783524,-14.934784,19.362183,,,,,,
1478385114.39,-2.967806,0.745204,2.905787,-6.046302,1.222876,-1.409910,-0.127082,-0.678122,0.723879,0.192161,0.761984,-0.130617,-3.241501,-17.110977,18.164185,,,,,,
1478385114.41,-2.944235,0.878118,2.911801,-6.793432,1.347320,-1.389499,-0.125216,-0.769539,0.626204,-0.080442,0.924629,0.083589,-2.645584,-18.763214,15.925049,,,,,,
1478385114.43,-2.905617,1.018751,2.894141,-7.037519,1.062326,-0.695165,-0.122608,-0.851453,0.509896,0.044559,1.474714,0.066398,-2.576004,-20.715469,13.681580,,,,,,
1478385114.45,-2.827313,1.159730,2.800109,-7.544000,-1.400419,0.723523,-0.123525,-0.916695,0.380015,0.048299,2.306771,-0.249690,-2.576004,-20.715469,13.681580,,,,,,
,,,,,,,,,,,,,,,,37.354234,-122.033499,46.651306,0.950000,183.515625,1478385204.00
1478385114.47,-2.652532,1.289902,2.548864,-7.532662,-3.868926,1.498837,-0.130235,-0.960808,0.244719,0.029374,2.488060,0.288759,-2.578400,-22.293610,10.536377,,,,,,
1478385114.49,-2.311177,1.392217,2.122258,-6.324119,-3.342411,0.176476,-0.131130,-0.984097,0.119825,0.081691,2.205349,0.840365,-3.625946,-23.874985,4.155640,,,,,,
1478385114.51,-1.898877,1.445548,1.678869,-2.774099,0.295799,-0.804178,-0.118258,-0.992167,0.040253,0.162798,1.614985,1.989059,-2.723373,-24.328049,1.091003,,,,,,
1478385114.53,-1.712000,1.470831,1.537843,-0.336021,3.179618,-1.165951,-0.098806,-0.995008,0.014045,-0.257945,1.800397,1.627251,-2.571014,-24.179184,-0.032959,,,,,,
1478385114.55,-1.749495,1.495169,1.635304,0.598429,2.391700,-1.311798,-0.074352,-0.997142,0.013430,-0.557164,1.631663,0.796751,-2.571014,-24.179184,-0.032959,,,,,,
1478385114.57,-2.478504,1.466138,2.385152,6.044967,0.756829,0.643050,-0.064306,-0.994528,0.082331,-0.898936,1.159689,0.669287,-1.969009,-23.879623,-0.477844,,,,,,
1478385114.59,-2.501025,1.387039,2.410584,3.965756,-0.302809,2.005167,-0.109206,-0.983164,0.146501,-0.613191,-5.092962,-0.729601,-2.501862,-24.701843,2.294312,,,,,,
1478385114.61,-2.591305,1.338295,2.513166,2.344589,-0.241162,0.170172,-0.120490,-0.973093,0.196398,1.002128,-0.952810,-0.915697,-2.876511,-24.175507,3.638977,,,,,,
1478385114.63,-2.642344,1.285973,2.544345,1.867966,-0.734701,1.612492,-0.134527,-0.959711,0.246691,0.215201,0.525370,-0.044176,-2.950714,-23.574234,4.911499,,,,,,
1478385114.65,-2.554114,1.226104,2.445096,2.382193,-1.134610,3.347404,-0.187290,-0.941179,0.281254,0.553058,1.768541,0.497616,-2.950714,-23.574234,4.911499,,,,,,
1478385114.67,-2.606467,1.135147,2.464437,4.814224,-1.553925,1.076880,-0.215198,-0.906596,0.363005,0.780734,0.357967,1.166597,-3.400696,-23.047653,6.480347,,,,,,
1478385114.69,-2.696882,1.064873,2.567382,2.623059,0.421232,-0.921586,-0.208480,-0.874728,0.437479,0.533980,0.026812,0.054281,-4.973312,-22.071335,7.811768,,,,,,
1478385114.71,-2.761796,1.047477,2.634625,1.617141,0.002011,-1.309121,-0.185276,-0.866165,0.464145,0.044926,-0.173965,-0.019656,-4.519348,-20.118103,11.035400,,,,,,
1478385114.73,-2.821964,1.009829,2.714881,3.063337,0.169288,-1.246313,-0.167164,-0.846741,0.505061,-0.408871,-0.429382,0.907278,-3.768112,-19.667572,11.566589,,,,,,
1478385114.75,-2.865715,0.967524,2.752362,1.080996,-1.056110,0.412538,-0.154539,-0.823484,0.545887,-0.921557,-0.349047,-0.120212,-3.768112,-19.667572,11.566589,,,,,,
1478385114.77,-2.866456,0.954783,2.732055,0.603355,-0.536453,0.559510,-0.156972,-0.816188,0.556054,-1.156901,-0.246480,1.005881,-4.291763,-18.916229,12.909058,,,,,,
1478385114.79,-2.851367,0.943670,2.723598,0.221968,0.720870,0.435277,-0.167929,-0.809717,0.562279,-0.482278,0.017908,1.310493,-3.239059,-18.240997,13.142578,,,,,,
1478385114.81,-2.829715,0.943493,2.699450,-0.290589,-0.390197,0.756130,-0.180107,-0.809613,0.558648,0.038796,-0.565722,1.165229,-3.837814,-17.790482,13.660217,,,,,,
1478385114.83,-2.827503,0.954798,2.695795,-1.112396,0.630965,-0.866493,-0.178504,-0.816197,0.549508,0.611289,-1.448787,1.022651,-3.840851,-18.315033,14.111755,,,,,,
1478385114.85,-2.833970,0.987943,2.729979,-1.122133,0.819379,-1.259171,-0.166660,-0.834896,0.524570,1.070530,-1.848378,0.193005,-3.840851,-18.315033,14.111755,,,,,,
1478385114.87,-2.844975,1.022435,2.740411,-1.806823,-0.649251,-0.713096,-0.152366,-0.853380,0.498525,0.517631,-1.514235,-1.108022,-5.269760,-19.365570,13.575623,,,,,,
1478385114.89,-2.888970,1.059746,2.750623,-1.526477,-2.369020,-0.766487,-0.122246,-0.872231,0.473570,-0.059593,-0.950248,-1.378080,-5.048737,-20.265625,13.505554,,,,,,
1478385114.91,-2.960463,1.078955,2.781391,-0.139384,-1.853296,-0.994502,-0.085072,-0.881465,0.464524,-0.510570,-0.042989,-1.264649,-4.226761,-21.091080,13.066223,,,,,,
1478385114.93,-2.994456,1.059071,2.809914,1.734469,0.491958,-0.171722,-0.071790,-0.871901,0.484391,-0.519808,0.298613,-1.506150,-4.385208,-22.514709,14.418945,,,,,,
1478385114.95,-2.973534,1.001462,2.817628,3.625618,1.733884,0.561512,-0.090170,-0.842260,0.531477,-0.264536,0.333120,-1.936522,-4.385208,-22.514709,14.418945,,,,,,
1478385114.97,-2.931119,0.909547,2.810208,4.814785,1.664127,1.317695,-0.128301,-0.789225,0.600552,0.272832,0.142848,-1.558270,-4.387009,-22.588745,15.394104,,,,,,
1478385114.99,-2.895384,0.801753,2.790921,5.144173,0.692862,2.179950,-0.169501,-0.718576,0.674476,0.443152,-0.601248,-1.263511,-4.983032,-20.936432,17.708191,,,,,,
1478385115.01,-2.867888,0.694828,2.762048,4.721301,0.133837,2.412729,-0.207635,-0.640253,0.739570,0.599984,-0.791692,-0.774314,-6.404282,-19.058304,20.838379,,,,,,
1478385115.03,-2.871639,0.601923,2.740875,3.863264,-1.304179,1.824991,-0.219816,-0.566228,0.794397,-0.011156,-0.624659,-0.722329,-9.095551,-15.227646,26.499939,,,,,,
1478385115.05,-2.897629,0.525285,2.731027,3.598430,-1.459247,1.076208,-0.208985,-0.501460,0.839562,-0.300002,-0.899786,0.253868,-9.095551,-15.227646,26.499939,,,,,,
1478385115.07,-2.913614,0.452834,2.743797,3.669363,0.044331,-0.193092,-0.203230,-0.437515,0.875944,-0.275896,-0.792160,0.809374,-8.044312,-14.100098,29.057068,,,,,,
1478385115.09,-2.917133,0.391311,2.775836,2.959944,0.659151,-0.939462,-0.205755,-0.381401,0.901221,-0.262232,-0.618004,0.771906,-8.120636,-13.798294,30.855408,,,,,,
1478385115.11,-2.912552,0.348642,2.804632,2.160217,0.700051,-0.660814,-0.213384,-0.341622,0.915293,-0.075709,-0.837943,1.115682,-7.521423,-13.572083,32.060730,,,,,,
1478385115.13,-2.913378,0.316709,2.821650,1.307937,-0.146334,-0.409272,-0.214987,-0.311441,0.925627,0.194540,-0.521750,1.050127,-7.669281,-12.821259,32.882019,,,,,,
1478385115.15,-2.934449,0.313509,2.840933,-0.167212,-0.899029,-1.141505,-0.195641,-0.308398,0.930922,0.201653,0.175143,0.856676,-7.669281,-12.821259,32.882019,,,,,,
1478385115.17,-2.957979,0.336803,2.869045,-1.344059,-0.600820,-1.715406,-0.172326,-0.330472,0.927951,0.079552,0.205411,1.012372,-6.396545,-13.195877,33.270874,,,,,,
1478385115.19,-2.973522,0.386472,2.895181,-2.794837,-0.204415,-1.488197,-0.154943,-0.376923,0.913193,-0.186457,0.112442,0.643035,-4.826538,-14.170471,33.664490,,,,,,
1478385115.21,-2.984590,0.465613,2.906491,-4.396630,-0.423423,-1.009728,-0.139714,-0.448970,0.882556,-0.239070,-0.038319,0.178494,-4.085205,-16.045303,33.827515,,,,,,
1478385115.23,-2.992599,0.567053,2.908735,-5.295989,-0.236308,-0.787478,-0.125210,-0.537148,0.834143,0.091762,0.370477,0.108072,-3.275421,-19.796417,32.721802,,,,,,
1478385115.25,-2.996475,0.681160,2.908126,-5.821056,-0.311865,-0.874073,-0.112339,-0.629695,0.768677,0.220172,0.769221,-0.319748,-3.275421,-19.796417,32.721802,,,,,,
1478385115.27,-3.013869,0.810764,2.912936,-6.849694,-0.907193,-1.168111,-0.087756,-0.724814,0.683333,0.022540,1.081808,-0.482848,-1.053207,-28.127884,26.244080,,,,,,
1478385115.29,-3.038086,0.955428,2.927144,-7.236612,-0.262933,-1.337959,-0.059644,-0.816561,0.574170,-0.218936,1.286654,0.183414,-0.084320,-31.208054,21.088074,,,,,,
1478385115.31,-3.041291,1.103558,2.949137,-7.408077,1.429466,-1.197912,-0.045103,-0.892816,0.448159,-0.271716,2.328362,0.269081,0.363251,-33.538437,15.699463,,,,,,
1478385115.33,-3.010653,1.241535,2.937304,-6.415777,0.166302,-0.055381,-0.042218,-0.946281,0.320576,-0.362674,2.691032,0.124645,1.941223,-34.894501,9.644287,,,,,,
1478385115.35,-2.908815,1.350629,2.810985,-5.352115,-1.481207,0.960144,-0.050379,-0.975861,0.212502,-0.164480,1.966706,0.259727,1.941223,-34.894501,9.644287,,,,,,
1478385115.37,-2.630710,1.438957,2.494380,-4.877888,-1.552403,0.926584,-0.064276,-0.991322,0.114673,0.060965,1.582997,0.655378,1.806030,-34.904404,-0.256958,,,,,,
1478385115.39,-2.099563,1.484196,1.957456,-2.329266,0.922369,0.233735,-0.074680,-0.996253,0.043632,-0.065930,1.554221,1.749428,1.063263,-34.533081,-3.940552,,,,,,
1478385115.41,-2.073358,1.492591,1.969518,0.757726,2.182094,-0.683751,-0.068466,-0.996944,0.037631,-0.448349,1.774043,1.443265,0.244904,-33.935715,-6.575562,,,,,,
1478385115.43,-2.400471,1.488044,2.336275,1.706800,1.537515,-0.715926,-0.055804,-0.996578,0.060978,-0.444059,1.381099,0.596997,1.521667,-33.711227,-7.088440,,,,,,
1478385115.45,-2.590963,1.427467,2.555257,3.152307,1.197262,2.683236,-0.074737,-0.989746,0.121727,-1.660142,-1.280777,-3.894584,1.521667,-33.711227,-7.088440,,,,,,
1478385115.47,-2.587169,1.341131,2.611691,2.937681,3.294438,0.545376,-0.119848,-0.973743,0.193550,0.495092,-3.042538,-0.068535,2.568176,-34.235474,-6.326355,,,,,,
,,,,,,,,,,,,,,,,37.354224,-122.033493,43.797974,0.950000,186.679688,1478385205.00
1478385115.49,-2.692022,1.298860,2.721153,2.616039,-1.657108,-0.171826,-0.116726,-0.963253,0.241907,0.243527,-0.189762,-0.163004,0.683411,-35.131653,-2.517517,,,,,,
1478385115.51,-2.675423,1.267140,2.686571,1.936189,0.321863,2.496012,-0.134396,-0.954249,0.267106,0.206158,1.499141,1.481734,1.884766,-34.455521,-1.382568,,,,,,
1478385115.53,-2.622362,1.167949,2.609039,4.463611,-1.903242,3.030636,-0.194535,-0.919948,0.340369,0.989335,1.150341,0.952249,0.234009,-34.530243,-1.098877,,,,,,
1478385115.55,-2.694625,1.087498,2.672836,3.019398,0.167921,-0.720615,-0.200860,-0.885467,0.419051,1.051705,-0.031708,0.607912,0.234009,-34.530243,-1.098877,,,,,,
1478385115.57,-2.756421,1.076080,2.735125,1.045068,-0.198700,-1.047722,-0.178385,-0.880103,0.439997,0.432794,-0.452935,0.741583,-1.644897,-34.678085,1.057861,,,,,,
1478385115.59,-2.791941,1.049980,2.775150,1.627508,0.040930,-0.019296,-0.170459,-0.867413,0.467480,-0.060925,-0.456454,1.011783,-1.271912,-34.300613,3.535400,,,,,,
1478385115.61,-2.791178,1.025266,2.778558,0.720888,-0.084872,0.362344,-0.178122,-0.854852,0.487340,-0.802011,-0.358328,0.878734,-0.522034,-34.074860,4.292236,,,,,,
1478385115.63,-2.824893,1.034691,2.785970,-0.721867,-1.540359,-0.879265,-0.159077,-0.859705,0.485389,-2.527111,-0.332663,0.839089,-1.497131,-34.074783,4.357483,,,,,,
1478385115.65,-2.816165,1.060436,2.796722,-1.280688,2.252919,-0.193492,-0.156178,-0.872569,0.462852,-0.892712,-0.587575,1.447746,-1.497131,-34.074783,4.357483,,,,,,
1478385115.67,-2.736830,1.075163,2.761823,-0.962250,2.039539,0.692197,-0.187288,-0.879667,0.437160,0.082429,-1.567079,0.718877,-0.970123,-33.700012,4.136658,,,,,,
1478385115.69,-2.704211,1.101493,2.746429,-1.507820,0.326512,-0.949218,-0.191565,-0.891884,0.409690,1.380012,-2.129326,-0.676933,-1.721588,-34.150391,3.755493,,,,,,
1478385115.71,-2.745642,1.143614,2.773621,-1.761795,-1.619449,-1.190066,-0.159793,-0.910137,0.382253,1.852130,-1.114659,-1.221975,-1.417419,-33.476135,3.006470,,,,,,
1478385115.73,-2.798526,1.174750,2.762887,-1.185975,-3.937821,-0.171893,-0.129765,-0.922593,0.363294,0.665151,-0.186095,-1.318662,-0.739059,-33.027039,2.111877,,,,,,
1478385115.75,-2.885636,1.183348,2.777846,0.239311,-3.095606,-0.504718,-0.095655,-0.925876,0.365518,-0.446414,0.474994,-0.946039,-0.739059,-33.027039,2.111877,,,,,,
1478385115.77,-2.935685,1.161598,2.807154,1.742132,0.082865,-0.207023,-0.081348,-0.917440,0.389470,-0.794949,0.399206,-0.955250,-1.261230,-32.502335,1.805176,,,,,,
1478385115.79,-2.938494,1.112546,2.846126,3.174442,2.469591,-0.329382,-0.089230,-0.896828,0.433287,-0.662082,0.676048,-0.982481,-2.386993,-32.501816,2.318848,,,,,,
1478385115.81,-2.904701,1.037995,2.883144,4.151355,3.649173,0.117989,-0.119206,-0.861387,0.493763,-0.031169,0.624510,-0.901172,-1.407486,-30.624191,4.948059,,,,,,
1478385115.83,-2.856856,0.948051,2.913827,4.737961,3.614354,0.503546,-0.163843,-0.812280,0.559783,0.388132,0.218118,-0.886107,-1.631348,-29.722244,6.893066,,,,,,
1478385115.85,-2.811375,0.851897,2.936895,4.802060,2.809547,1.001465,-0.213537,-0.752531,0.622976,0.705571,-0.143755,-0.918249,-1.631348,-29.722244,6.893066,,,,,,
1478385115.87,-2.781735,0.757244,2.940535,4.212213,0.747660,1.700994,-0.255912,-0.686922,0.680182,0.992973,-0.440993,-0.738944,-3.127594,-28.220245,8.898560,,,,,,
1478385115.89,-2.800828,0.664952,2.939145,4.382383,-1.835207,1.608711,-0.263004,-0.617022,0.741696,0.579212,-0.458677,-0.387235,-3.343796,-25.743683,10.464050,,,,,,
1478385115.91,-2.844594,0.574030,2.940082,4.230513,-2.157240,1.229340,-0.245745,-0.543021,0.802956,0.259539,-1.005487,0.367165,-3.853348,-21.315689,13.445679,,,,,,
1478385115.93,-2.886987,0.490643,2.940331,3.829807,-2.158979,1.119659,-0.222152,-0.471193,0.853596,0.039351,-1.364622,0.596752,-3.920364,-18.913818,15.312805,,,,,,
1478385115.95,-2.931996,0.419145,2.937634,3.258821,-2.316615,0.787021,-0.190055,-0.406980,0.893447,-0.175165,-1.123644,0.911973,-3.920364,-18.913818,15.312805,,,,,,
1478385115.97,-2.972586,0.358616,2.934252,2.753822,-1.987050,0.751791,-0.157503,-0.350979,0.923042,-0.184172,-1.131275,1.249947,-3.838242,-16.812256,16.882324,,,,,,
1478385115.99,-3.004978,0.310164,2.929049,2.067568,-1.423807,0.414525,-0.129692,-0.305215,0.943411,-0.255974,-0.459891,1.372660,-3.005249,-14.410385,18.758423,,,,,,
1478385116.01,-3.022046,0.279523,2.937443,1.349759,-0.304949,-0.566595,-0.114634,-0.275897,0.954327,-0.201605,0.233401,1.480228,-2.475967,-12.758270,20.858765,,,,,,
1478385116.03,-3.023752,0.269042,2.954103,0.060979,0.204593,-0.744793,-0.113338,-0.265808,0.957340,-0.089985,0.318756,0.993313,-3.076141,-11.103195,25.947754,,,,,,
1478385116.05,-3.025630,0.287382,2.964753,-1.411072,-0.056198,-0.499129,-0.110958,-0.283443,0.952548,-0.089344,0.163112,0.618283,-3.076141,-11.103195,25.947754,,,,,,
1478385116.07,-3.030102,0.331931,2.963341,-2.655707,-0.349251,0.011811,-0.105187,-0.325869,0.939545,-0.083183,0.392336,0.332077,-2.480545,-11.401154,27.979614,,,,,,
1478385116.09,-3.034171,0.399255,2.952257,-3.810143,-0.375178,0.166789,-0.098783,-0.388732,0.916040,-0.080645,0.649626,-0.081934,-2.490784,-13.274948,29.185120,,,,,,
1478385116.11,-3.031688,0.482961,2.938364,-4.451438,-0.046757,0.167645,-0.097138,-0.464404,0.880280,-0.096526,0.745562,-0.313065,-2.279846,-16.425018,29.121704,,,,,,
1478385116.13,-3.019542,0.577275,2.923644,-4.879299,0.424805,0.025030,-0.102019,-0.545742,0.831720,-0.107026,1.029431,-0.564203,-2.754211,-23.179047,25.087280,,,,,,
1478385116.15,-2.996741,0.678376,2.911162,-5.265077,0.967844,-0.310701,-0.112386,-0.627530,0.770439,-0.145075,1.367459,-0.481178,-2.754211,-23.179047,25.087280,,,,,,
1478385116.17,-2.968163,0.784788,2.902584,-5.200422,1.261328,-0.596118,-0.122094,-0.706675,0.696924,-0.146415,1.707652,-0.477335,-2.685745,-25.657120,22.020386,,,,,,
1478385116.19,-2.928035,0.890487,2.892139,-5.339630,1.718367,-0.793830,-0.133316,-0.777378,0.614744,-0.015060,1.980061,-0.595533,-2.916855,-28.060257,18.875183,,,,,,
1478385116.21,-2.888617,0.995243,2.881592,-5.040182,1.323792,-0.865978,-0.136231,-0.838891,0.526975,0.086289,1.411340,-0.254545,-2.919693,-29.863785,15.355652,,,,,,
1478385116.23,-2.853345,1.096575,2.851687,-5.196788,-0.157203,-0.536977,-0.129812,-0.889648,0.437806,0.120703,1.306793,-0.286851,-3.294693,-30.841705,12.429810,,,,,,
1478385116.25,-2.820252,1.203383,2.790570,-5.617679,-1.684871,-0.369896,-0.113450,-0.933260,0.340816,0.108842,1.489473,-0.133494,-3.294693,-30.841705,12.429810,,,,,,
1478385116.27,-2.769091,1.309064,2.691456,-5.203705,-2.222480,-0.392023,-0.094173,-0.965943,0.241009,0.075267,1.703187,0.436054,-2.012787,-31.749039,5.095337,,,,,,
1478385116.29,-2.731336,1.384876,2.621339,-2.773881,-0.852742,-1.006918,-0.073727,-0.982767,0.169512,-0.105808,1.508096,1.163664,-1.257294,-31.752716,1.427917,,,,,,
1478385116.31,-2.827242,1.415379,2.738549,-0.205898,2.236079,-1.667060,-0.047861,-0.987947,0.147207,-0.356008,1.007127,1.152293,-1.103241,-31.680191,-1.045776,,,,,,
1478385116.33,-2.933380,1.432011,2.924626,-1.927136,4.348110,-1.200549,-0.028597,-0.990385,0.135353,-0.706312,0.278196,-0.477058,-0.577026,-31.681015,-1.865479,,,,,,
1478385116.35,-2.964406,1.446225,2.994897,1.249755,0.280606,0.065211,-0.021900,-0.992251,0.122304,-0.634777,0.019213,0.216136,-0.577026,-31.681015,-1.865479,,,,,,
1478385116.37,-2.835541,1.378282,2.872105,3.595007,1.057334,2.089678,-0.057646,-0.981526,0.182436,-0.202959,-4.949367,-1.309282,1.747223,-32.131882,-2.740906,,,,,,
1478385116.39,-2.842519,1.309812,2.910771,2.605434,0.664807,-0.086295,-0.076025,-0.966136,0.246578,0.807531,-0.707646,-0.638332,0.694580,-32.205322,-1.176208,,,,,,
1478385116.41,-2.883046,1.269759,2.891857,1.092764,-3.216826,2.122714,-0.075811,-0.955029,0.286656,0.315862,0.389478,0.354412,0.394806,-31.528442,0.693787,,,,,,
1478385116.43,-2.690812,1.191535,2.701976,3.822687,0.810791,4.156793,-0.161299,-0.928938,0.333250,0.983519,1.830290,1.345964,-0.054932,-31.227707,1.438416,,,,,,
1478385116.45,-2.717806,1.106883,2.742566,3.596726,0.910262,-0.572164,-0.183999,-0.894308,0.407869,0.899438,0.358664,0.451887,-0.054932,-31.227707,1.438416,,,,,,
1478385116.47,-2.788903,1.086090,2.821952,1.272526,-0.192112,-1.368804,-0.160949,-0.884812,0.437268,0.439117,-0.092712,0.046573,-2.155350,-30.776077,3.066040,,,,,,
1478385116.49,-2.823085,1.058583,2.871521,1.861091,0.568983,-0.103879,-0.153477,-0.871662,0.465458,0.197743,-0.274045,0.708371,-1.931015,-29.948151,5.990784,,,,,,
1478385116.51,-2.825431,1.019160,2.867964,1.682837,-0.702680,1.139161,-0.162948,-0.851668,0.498106,-0.054276,-0.347429,0.417254,-2.156006,-29.722488,6.662842,,,,,,
,,,,,,,,,,,,,,,,37.354213,-122.033489,43.397339,1.100000,202.148438,1478385206.00
1478385116.53,-2.802219,0.988245,2.824216,0.809973,-0.654745,1.671986,-0.183145,-0.835062,0.518777,-0.306540,-0.156836,0.667929,-2.077957,-28.821808,7.335938,,,,,,
1478385116.55,-2.808076,0.970866,2.797967,0.259038,-1.767894,0.581380,-0.184827,-0.825375,0.533474,-0.923999,-0.057773,0.301578,-2.077957,-28.821808,7.335938,,,,,,
1478385116.57,-2.816875,0.972139,2.779550,-0.408228,-0.677036,0.544756,-0.179790,-0.826093,0.534084,-0.613728,-0.400225,0.966023,-3.052399,-28.596512,7.625488,,,,,,
1478385116.59,-2.799144,0.982545,2.754287,-1.027347,-0.056428,0.343455,-0.186335,-0.831912,0.522687,-0.623098,-0.212399,1.110583,-4.027832,-28.520996,8.140564,,,,,,
1478385116.61,-2.794915,1.010537,2.739357,-1.615787,-0.583321,-0.343877,-0.180559,-0.847117,0.499791,-0.530242,-0.382039,1.078883,-3.950699,-28.221527,7.615356,,,,,,
1478385116.63,-2.805005,1.051467,2.742330,-2.053946,-0.136098,-1.001557,-0.163911,-0.868152,0.468449,-0.172774,-1.340557,0.756359,-3.804291,-29.197052,7.094788,,,,,,
1478385116.65,-2.812550,1.099444,2.754648,-2.287054,0.188819,-0.885680,-0.146734,-0.890955,0.429730,0.582678,-1.840399,-0.229565,-3.804291,-29.197052,7.094788,,,,,,
1478385116.67,-2.809410,1.148409,2.732883,-2.662220,-1.733956,-0.220652,-0.133684,-0.912113,0.387529,0.934511,-1.348919,-1.302766,-3.656448,-29.947861,6.273499,,,,,,
1478385116.69,-2.863180,1.203631,2.723858,-2.401449,-3.642016,-0.932743,-0.098656,-0.933349,0.345149,0.336174,-0.134477,-1.209544,-4.257904,-30.699142,4.994751,,,,,,
1478385116.71,-2.958226,1.233601,2.743411,-0.710180,-3.592900,-0.386907,-0.060326,-0.943686,0.325295,-0.488090,0.642981,-1.104867,-3.507462,-30.925110,4.027954,,,,,,
1478385116.73,-2.992609,1.227224,2.736773,0.838701,-1.259249,0.370103,-0.050000,-0.941557,0.333122,-0.548694,0.815336,-0.959541,-3.659393,-31.375183,3.952759,,,,,,
1478385116.75,-2.999024,1.192736,2.726456,2.272464,-0.548984,0.422630,-0.052446,-0.929383,0.365373,-0.439833,0.826355,-1.262941,-3.659393,-31.375183,3.952759,,,,,,
1478385116.77,-2.999080,1.128359,2.717807,3.562497,-0.375564,0.780067,-0.060809,-0.903711,0.423803,-0.390866,0.657694,-1.278814,-4.108017,-30.849518,4.621704,,,,,,
1478385116.79,-2.985925,1.044311,2.709027,4.421328,0.888398,0.822433,-0.077907,-0.864579,0.496421,-0.209370,0.498246,-0.865287,-4.408905,-30.397568,6.567322,,,,,,
1478385116.81,-2.941926,0.950229,2.708364,4.727572,2.657611,0.725351,-0.115336,-0.813549,0.569944,0.196161,0.283519,-0.645750,-5.005264,-28.143234,10.904663,,,,,,
1478385116.83,-2.911586,0.856733,2.733048,4.718511,2.539401,0.123489,-0.149309,-0.755707,0.637662,0.168382,-0.416030,-0.861539,-6.428879,-27.015778,13.362000,,,,,,
1478385116.85,-2.858752,0.756754,2.758220,5.295900,4.148763,0.760358,-0.202914,-0.686565,0.698180,0.340274,-1.424382,-0.476103,-6.428879,-27.015778,13.362000,,,,,,
1478385116.87,-2.797139,0.641150,2.777511,5.921099,3.042397,1.119529,-0.270622,-0.598117,0.754334,0.111411,-1.555371,0.068099,-6.875809,-25.588531,15.603210,,,,,,
1478385116.89,-2.778325,0.527500,2.803985,5.499931,0.750030,0.875300,-0.307030,-0.503375,0.807680,0.293587,-1.871686,0.509062,-9.266525,-22.886612,17.521240,,,,,,
1478385116.91,-2.806494,0.431656,2.826175,4.406640,-1.861033,0.693131,-0.298697,-0.418375,0.857754,0.349570,-1.622701,0.633838,-10.072372,-17.483185,20.946960,,,,,,
1478385116.93,-2.873557,0.359425,2.839192,3.216584,-3.654701,0.272647,-0.247915,-0.351736,0.902674,0.257986,-1.107996,0.931890,-9.467621,-15.756165,22.972778,,,,,,
1478385116.95,-2.955328,0.308506,2.861616,2.485809,-3.546411,-0.884359,-0.176447,-0.303635,0.936308,0.029764,-0.709258,1.495058,-9.467621,-15.756165,22.972778,,,,,,
1478385116.97,-3.017519,0.277145,2.895782,1.217309,-1.998705,-1.615246,-0.119033,-0.273611,0.954446,-0.326264,-0.111490,1.364126,-8.414139,-14.404434,24.704346,,,,,,
1478385116.99,-3.042434,0.279983,2.930036,-0.633831,-0.085942,-1.530936,-0.095142,-0.276339,0.956339,-0.677090,0.093341,1.063665,-6.084991,-13.128357,25.773743,,,,,,
1478385117.01,-3.035047,0.314842,2.947942,-2.297594,0.901652,-0.700950,-0.101117,-0.309666,0.945453,-0.638049,0.357091,0.558056,-5.858994,-12.752914,26.224915,,,,,,
1478385117.03,-3.015754,0.382901,2.946155,-3.986290,0.878838,-0.208202,-0.116418,-0.373613,0.920250,-0.277183,0.485688,0.014412,-6.464157,-14.028290,25.847656,,,,,,
1478385117.05,-2.998363,0.476572,2.938470,-5.094635,0.625444,-0.349723,-0.126835,-0.458736,0.879474,0.012730,0.777980,-0.195789,-6.464157,-14.028290,25.847656,,,,,,
1478385117.07,-2.984422,0.589758,2.928473,-5.954447,0.290192,-0.453641,-0.130084,-0.556160,0.820832,0.035540,1.071052,-0.459504,-7.668671,-15.304123,25.014465,,,,,,
1478385117.09,-2.975343,0.715633,2.915356,-6.475638,-0.001067,-0.553643,-0.124888,-0.656095,0.744273,-0.104345,1.468412,-0.501551,-7.601425,-17.555695,23.446899,,,,,,
1478385117.11,-2.960780,0.851543,2.901784,-6.852987,0.614614,-0.796207,-0.118475,-0.752298,0.648083,-0.138834,1.782938,-0.315701,-7.762268,-20.557480,21.654297,,,,,,
1478385117.13,-2.918351,0.988307,2.887990,-6.845488,2.140183,-1.009955,-0.121789,-0.835096,0.536454,-0.122855,2.007993,-0.013810,-8.525574,-25.363022,16.111084,,,,,,
1478385117.15,-2.841385,1.124800,2.855704,-6.729650,2.269786,-0.916444,-0.127560,-0.902181,0.412065,-0.098804,1.784078,0.079390,-8.525574,-25.363022,16.111084,,,,,,
1478385117.17,-2.729143,1.252066,2.756690,-6.594611,0.049351,-0.226775,-0.125612,-0.949634,0.287083,0.018343,1.473728,0.126415,-8.227509,-27.016693,12.443970,,,,,,
1478385117.19,-2.491963,1.363348,2.482545,-6.456747,-2.031705,0.516705,-0.124586,-0.978560,0.164011,0.202344,1.572386,0.400351,-8.002640,-28.295441,8.700012,,,,,,
1478385117.21,-2.007818,1.427102,1.950058,-4.635265,-1.798966,0.225629,-0.129742,-0.989694,0.060608,0.333462,1.717721,1.070632,-8.375748,-29.048965,5.173584,,,,,,
1478385117.23,-1.691726,1.455735,1.618547,-1.108845,0.316168,-1.309493,-0.113970,-0.993388,0.013850,0.101015,1.249690,1.242544,-8.072403,-29.126450,2.701843,,,,,,
1478385117.25,-1.843186,1.486740,1.819649,0.985985,3.899108,-1.728704,-0.080862,-0.996469,0.022587,-0.490656,0.501550,0.301708,-8.072403,-29.126450,2.701843,,,,,,
1478385117.27,-2.399924,1.469040,2.433790,4.831330,1.660282,0.281530,-0.068620,-0.994827,0.074900,-1.054640,-0.864655,0.555883,-7.547287,-29.728317,0.833923,,,,,,
1478385117.29,-2.530874,1.395911,2.585265,3.386880,0.612865,1.575337,-0.099779,-0.984747,0.142543,0.116655,-2.445399,-0.496440,-7.174866,-29.801804,2.337830,,,,,,
1478385117.31,-2.569001,1.337102,2.650544,2.623619,0.801969,0.939887,-0.125469,-0.972817,0.194637,0.351391,0.344522,-0.859783,-8.298843,-29.050247,3.899414,,,,,,
1478385117.33,-2.552253,1.291909,2.637146,0.916209,0.777289,1.728549,-0.153007,-0.961362,0.228847,-0.009270,1.091535,1.069523,-9.499374,-28.598526,5.611023,,,,,,
1478385117.35,-2.534320,1.225628,2.617499,3.934931,-0.886530,2.198261,-0.193075,-0.941018,0.277860,0.449957,0.746042,1.541354,-9.499374,-28.598526,5.611023,,,,,,
1478385117.37,-2.647911,1.131283,2.706392,5.032785,-1.091222,0.087337,-0.201632,-0.904959,0.374692,0.657473,0.198431,0.569385,-11.368805,-26.571152,7.986267,,,,,,
1478385117.39,-2.707230,1.095946,2.775341,1.132214,-0.189480,-0.477890,-0.192407,-0.889361,0.414748,0.535409,-0.346891,0.116700,-11.592667,-25.368301,10.830444,,,,,,
1478385117.41,-2.738526,1.060702,2.809856,2.269874,-0.115730,0.337362,-0.191516,-0.872698,0.449132,0.155459,-0.313688,0.701030,-11.591660,-24.767181,11.953613,,,,,,
1478385117.43,-2.742263,1.016956,2.803540,1.612425,-0.565957,1.353186,-0.204493,-0.850511,0.484576,-0.059194,0.136445,0.384702,-12.039383,-24.016449,12.696899,,,,,,
1478385117.45,-2.727488,0.987983,2.776600,0.846118,-0.361433,0.848120,-0.221454,-0.834917,0.503856,-0.390133,0.248843,0.641301,-12.039383,-24.016449,12.696899,,,,,,
1478385117.47,-2.768136,0.967750,2.803599,1.353468,-1.179468,-0.701391,-0.206918,-0.823612,0.528061,-0.854514,-0.213345,0.727356,-12.708618,-22.214874,14.259766,,,,,,
1478385117.49,-2.782882,0.963337,2.799375,-0.630300,-0.705202,0.848880,-0.200383,-0.821101,0.534453,-0.452403,-0.790120,0.605013,-12.258163,-21.914276,14.863403,,,,,,
1478385117.51,-2.754364,0.972336,2.745592,-1.154180,-0.890595,1.303675,-0.212742,-0.826204,0.521659,-0.384334,-0.452864,1.400994,-12.709854,-22.138840,15.309570,,,,,,
,,,,,,,,,,,,,,,,37.354204,-122.033486,43.537170,1.100000,185.976562,1478385207.00
1478385117.53,-2.737362,0.991985,2.692945,-1.530995,-1.605956,0.673887,-0.215153,-0.837114,0.502941,-0.173153,-0.583144,1.653553,-12.258728,-21.913895,15.238403,,,,,,
1478385117.55,-2.740968,1.033160,2.677085,-2.758606,-0.097040,-1.261147,-0.199719,-0.858922,0.471557,0.308697,-1.634929,0.870468,-12.258728,-21.913895,15.238403,,,,,,
1478385117.57,-2.751348,1.099541,2.686814,-3.122809,-0.377985,-1.083059,-0.172710,-0.890999,0.419872,0.268047,-2.085670,-0.436458,-12.261322,-22.513962,15.165161,,,,,,
1478385117.59,-2.753258,1.173566,2.659727,-3.890435,-2.135826,-1.048630,-0.146486,-0.922136,0.358060,0.558733,-1.201826,-1.491071,-12.276306,-26.190018,14.126038,,,,,,
1478385117.61,-2.821695,1.237614,2.655145,-2.224205,-4.371119,-0.829648,-0.102848,-0.945006,0.310460,-0.211453,0.307067,-1.446584,-11.981506,-27.766281,12.858704,,,,,,
1478385117.63,-2.896935,1.252552,2.653144,0.089721,-3.026843,0.031745,-0.075792,-0.949786,0.303582,-0.052016,1.436435,-1.212777,-10.036728,-29.041626,12.506958,,,,,,
1478385117.65,-2.953724,1.230627,2.662957,1.725632,-2.210550,0.142610,-0.062314,-0.942698,0.327776,-0.787753,0.831355,-1.509417,-10.036728,-29.041626,12.506958,,,,,,
1478385117.67,-2.997067,1.178581,2.666403,2.862477,-2.068862,0.571278,-0.055051,-0.924065,0.378251,-0.294559,0.557411,-1.212113,-9.289307,-29.265564,13.565125,,,,,,
1478385117.69,-3.024612,1.111977,2.653584,3.566598,-1.657763,0.730692,-0.051692,-0.896576,0.439863,-0.420278,0.461182,-1.151320,-9.139053,-27.911667,17.462585,,,,,,
1478385117.71,-3.029983,1.029507,2.646114,4.332999,0.067044,0.522017,-0.057387,-0.857045,0.512036,-0.392626,0.768758,-1.092816,-8.687027,-26.709427,19.713501,,,,,,
1478385117.73,-3.011257,0.936971,2.651418,4.754364,1.810052,0.426045,-0.076971,-0.805768,0.587208,-0.160883,0.335385,-0.878086,-9.207047,-24.681671,22.477234,,,,,,
1478385117.75,-2.952712,0.833974,2.651517,5.168457,3.530181,1.096056,-0.126163,-0.740608,0.659987,0.139316,-0.413430,-0.701247,-9.207047,-24.681671,22.477234,,,,,,
1478385117.77,-2.881906,0.724429,2.652566,5.412345,3.218372,1.091348,-0.192296,-0.662708,0.723768,-0.103267,-1.212582,-0.552260,-10.851273,-22.654434,24.704712,,,,,,
1478385117.79,-2.847258,0.618359,2.671992,5.181517,1.927557,0.660027,-0.236385,-0.579699,0.779789,-0.059513,-1.804456,-0.037037,-12.716980,-19.877289,26.852722,,,,,,
1478385117.81,-2.830227,0.516097,2.686924,5.082717,0.697800,1.010120,-0.266456,-0.493489,0.827931,0.024101,-1.007869,0.419750,-16.894608,-13.874191,29.942871,,,,,,
1478385117.83,-2.846391,0.421454,2.709592,4.609949,-0.803152,0.039390,-0.265475,-0.409088,0.873024,-0.005460,-0.846665,0.779427,-17.111053,-11.472717,31.433533,,,,,,
1478385117.85,-2.881960,0.345436,2.745693,3.830036,-1.177248,-0.839102,-0.241560,-0.338607,0.909392,-0.079561,-1.156480,1.205354,-17.111053,-11.472717,31.433533,,,,,,
1478385117.87,-2.915453,0.286722,2.781795,2.746937,-1.008074,-0.989031,-0.215063,-0.282810,0.934755,-0.267954,-0.720593,1.150878,-16.655869,-9.896423,32.708313,,,,,,
1478385117.89,-2.939526,0.257566,2.812604,1.311075,-0.525959,-1.273335,-0.194074,-0.254728,0.947338,-0.308383,-0.055453,1.332295,-16.203278,-8.920227,33.909973,,,,,,
1478385117.91,-2.941135,0.248878,2.843934,0.251204,0.669304,-1.469549,-0.192983,-0.246317,0.949782,0.065953,0.332880,1.166124,-14.926819,-8.620300,33.846802,,,,,,
1478385117.93,-2.937017,0.273972,2.873044,-1.712909,0.452518,-1.763105,-0.195574,-0.270557,0.942629,0.145434,0.140919,0.534574,-15.530090,-9.445602,33.543274,,,,,,
1478385117.95,-2.935898,0.335632,2.899937,-3.282362,0.475829,-1.912145,-0.192851,-0.329366,0.924298,0.115107,0.301030,0.387912,-15.530090,-9.445602,33.543274,,,,,,
1478385117.97,-2.934865,0.420887,2.920427,-4.369375,0.385863,-1.689915,-0.187345,-0.408570,0.893293,0.001432,0.591248,0.013140,-16.436371,-11.096359,32.789124,,,,,,
1478385117.99,-2.930907,0.522791,2.930283,-5.153232,0.468645,-1.394029,-0.181196,-0.499300,0.847271,0.075728,0.678392,-0.328579,-16.372635,-13.872162,31.973145,,,,,,
1478385118.01,-2.921705,0.634528,2.934600,-5.621346,0.607702,-1.398735,-0.175663,-0.592797,0.785961,0.061543,0.944589,-0.451686,-15.936752,-17.548798,30.338501,,,,,,
1478385118.03,-2.914741,0.758077,2.937248,-6.179821,0.304271,-1.523410,-0.163321,-0.687526,0.707555,-0.092783,1.164058,-0.279790,-15.362228,-24.753418,25.715881,,,,,,
1478385118.05,-2.912155,0.887204,2.938684,-6.245527,0.238872,-1.439299,-0.143641,-0.775309,0.615031,-0.080877,1.765436,-0.170696,-15.362228,-24.753418,25.715881,,,,,,
1478385118.07,-2.891143,1.010148,2.927907,-5.984627,0.813063,-0.977844,-0.131785,-0.846910,0.515146,-0.022710,2.165148,-0.134699,-15.374283,-28.431412,22.726746,,,,,,
1478385118.09,-2.854853,1.124706,2.892021,-5.642390,-0.382067,-0.546756,-0.122023,-0.902141,0.413826,-0.021578,1.854549,-0.188179,-14.106781,-31.435440,18.698486,,,,,,
1478385118.11,-2.817246,1.234028,2.818556,-5.661704,-2.126559,-0.164820,-0.105307,-0.943828,0.313209,-0.033715,1.475566,0.136834,-13.657806,-33.164932,14.208191,,,,,,
1478385118.13,-2.716760,1.335990,2.657177,-5.462020,-2.931772,0.524582,-0.095893,-0.972559,0.211974,0.011710,1.415858,0.587678,-12.606979,-35.196594,7.549744,,,,,,
1478385118.15,-2.433618,1.413385,2.319523,-4.425787,-1.802743,0.650222,-0.101942,-0.987636,0.119089,-0.027025,1.762249,1.446325,-12.606979,-35.196594,7.549744,,,,,,
1478385118.17,-2.177473,1.449390,2.062411,-1.383670,1.307444,-0.602011,-0.099497,-0.992639,0.069049,-0.265189,1.751184,1.811887,-12.827820,-35.349823,4.322998,,,,,,
1478385118.19,-2.342206,1.456803,2.287055,2.972381,3.542011,-1.331908,-0.081548,-0.993510,0.079298,-0.537256,1.249384,0.778688,-12.447891,-35.052216,1.925842,,,,,,
1478385118.21,-2.646938,1.382873,2.684280,3.646939,4.619677,0.411622,-0.088688,-0.982394,0.164426,-1.260982,-4.192929,0.714557,-11.771667,-35.128265,0.882874,,,,,,
1478385118.23,-2.741663,1.338109,2.834614,2.079957,1.179531,-0.599542,-0.089782,-0.973050,0.212396,1.123718,-2.009295,-1.884790,-12.301254,-35.426086,3.053467,,,,,,
1478385118.25,-2.783788,1.299066,2.848250,1.413815,-2.092572,1.273926,-0.093998,-0.963308,0.251401,0.035405,0.018941,0.540225,-12.301254,-35.426086,3.053467,,,,,,
1478385118.27,-2.671635,1.258427,2.706893,1.569153,-1.350371,3.414151,-0.139167,-0.951608,0.273998,0.032813,2.033181,0.616826,-10.874023,-33.998306,5.838440,,,,,,
1478385118.29,-2.635664,1.176852,2.627244,3.673833,-2.027050,2.478945,-0.186013,-0.923402,0.335748,0.744210,0.809892,1.205923,-12.521042,-33.022354,6.794067,,,,,,
1478385118.31,-2.718666,1.086938,2.707731,5.016017,1.367496,-0.788370,-0.190932,-0.885207,0.424210,0.922728,-0.012468,0.559753,-14.016739,-31.445496,8.649353,,,,,,
1478385118.33,-2.753068,1.058164,2.789227,0.851694,1.234189,-1.178477,-0.185803,-0.871456,0.453918,0.313335,-0.328312,-0.444427,-14.992828,-30.617279,11.862183,,,,,,
1478385118.35,-2.791710,1.033449,2.838289,1.981630,-0.788117,-0.114720,-0.175459,-0.859069,0.480847,0.216566,-0.503617,0.277301,-14.992828,-30.617279,11.862183,,,,,,
1478385118.37,-2.819174,0.986576,2.822547,2.027420,-2.138582,1.875321,-0.174765,-0.834143,0.523129,0.023016,-0.168100,0.308170,-13.188690,-29.341217,12.926331,,,,,,
1478385118.39,-2.782433,0.943261,2.762861,1.101735,0.326513,2.259781,-0.206376,-0.809477,0.549686,-0.114196,-0.043016,0.781261,-13.261185,-28.364944,14.197754,,,,,,
1478385118.41,-2.757412,0.919378,2.744998,0.991843,0.264149,-0.065468,-0.227247,-0.795224,0.562118,-0.659121,0.251355,0.511902,-14.531342,-27.014130,15.005981,,,,,,
1478385118.43,-2.791851,0.911889,2.785318,0.545544,-0.294409,-1.214198,-0.209791,-0.790662,0.575188,-0.968187,-0.065524,1.022956,-16.178726,-26.338852,15.287476,,,,,,
1478385118.45,-2.817677,0.920036,2.799697,-0.780119,-0.904102,-0.029028,-0.192812,-0.795624,0.574288,-1.057951,-0.577973,1.085380,-16.178726,-26.338852,15.287476,,,,,,
1478385118.47,-2.806589,0.942097,2.771506,-1.477864,-0.295535,0.571886,-0.193349,-0.808793,0.555400,-0.600093,-0.999526,1.367985,-14.455765,-26.563156,15.980347,,,,,,
1478385118.49,-2.778405,0.969029,2.742014,-1.548213,0.458927,0.059928,-0.201110,-0.824336,0.529173,0.319595,-1.662266,0.718584,-14.608124,-27.238617,15.530823,,,,,,
1478385118.51,-2.774707,1.008276,2.752534,-2.001647,0.517822,-1.655517,-0.191307,-0.845914,0.497827,1.627769,-1.953799,-0.643441,-16.036835,-28.138840,15.294250,,,,,,
,,,,,,,,,,,,,,,,37.354193,-122.033482,43.994934,1.540000,169.804688,1478385208.00
1478385118.53,-2.804498,1.058188,2.778223,-2.167179,-1.297548,-0.908630,-0.162215,-0.871468,0.462849,1.620360,-1.223991,-1.695592,-15.667236,-29.414062,15.076843,,,,,,
1478385118.55,-2.869096,1.092542,2.776355,-1.064948,-3.951979,-0.494124,-0.123865,-0.887800,0.443249,-0.249853,-0.055117,-1.817944,-15.667236,-29.414062,15.076843,,,,,,
1478385118.57,-2.951887,1.091622,2.800067,0.982926,-2.111014,-0.490839,-0.086940,-0.887376,0.452776,-0.624318,0.507737,-1.425371,-14.169983,-30.239731,14.419250,,,,,,
1478385118.59,-2.975353,1.051697,2.825780,2.635471,0.913960,-0.136680,-0.082092,-0.868267,0.489259,-0.605958,0.804607,-1.805604,-12.302414,-31.062225,16.915344,,,,,,
1478385118.61,-2.962581,0.982079,2.848567,4.118663,1.913809,0.112251,-0.098874,-0.831654,0.546421,-0.302966,0.433842,-1.531361,-13.276031,-30.160431,18.702942,,,,,,
1478385118.63,-2.927643,0.886902,2.861130,4.986057,2.506276,0.841917,-0.134148,-0.775118,0.617411,0.066643,-0.259840,-0.883021,-12.893478,-27.758255,20.874573,,,,,,
1478385118.65,-2.870679,0.781389,2.859284,5.117318,2.814096,1.645378,-0.189987,-0.704266,0.684043,0.533585,-0.932041,-0.369025,-12.893478,-27.758255,20.874573,,,,,,
1478385118.67,-2.827599,0.671675,2.853862,5.170790,1.114493,1.653616,-0.241769,-0.622298,0.744509,0.531519,-0.854509,-0.623751,-14.307510,-24.681351,22.801208,,,,,,
1478385118.69,-2.841140,0.577142,2.863562,4.463057,-1.119647,0.835307,-0.248016,-0.545631,0.800484,0.026977,-0.928917,-0.047356,-18.782425,-17.702133,27.010498,,,,,,
1478385118.71,-2.869956,0.490264,2.872641,4.100827,-1.069866,0.917082,-0.236704,-0.470859,0.849860,-0.078496,-1.170102,0.381325,-18.472290,-14.624649,29.479370,,,,,,
1478385118.73,-2.893698,0.415554,2.879026,3.460060,-1.180624,0.332304,-0.224481,-0.403697,0.886926,-0.360892,-0.926534,0.652701,-17.710464,-11.548309,30.827759,,,,,,
1478385118.75,-2.924620,0.358964,2.901728,2.720670,-0.978956,-0.687702,-0.201553,-0.351304,0.914309,-0.387390,-0.897566,1.182080,-17.710464,-11.548309,30.827759,,,,,,
1478385118.77,-2.945238,0.317503,2.926614,1.987151,-0.425848,-0.608394,-0.185344,-0.312195,0.931763,-0.532307,-0.769943,1.296768,-16.951019,-8.996964,32.177673,,,,,,
1478385118.79,-2.958205,0.296092,2.936734,0.561064,-0.615141,-0.109237,-0.174426,-0.291785,0.940445,-0.693937,-0.116770,0.936477,-15.818817,-7.121124,33.008362,,,,,,
1478385118.81,-2.963104,0.299819,2.935585,-0.565095,0.177854,0.074754,-0.169623,-0.295347,0.940212,-0.237650,0.453215,1.141423,-15.056778,-3.969711,34.431580,,,,,,
1478385118.83,-2.947759,0.329276,2.931318,-2.170764,0.791366,-0.230787,-0.182274,-0.323358,0.928556,-0.062630,0.333963,0.444827,-14.906998,-3.593445,35.706909,,,,,,
1478385118.85,-2.932275,0.393248,2.925160,-3.667445,0.715808,-0.371425,-0.191932,-0.383191,0.903508,-0.061578,0.375119,0.406245,-14.906998,-3.593445,35.706909,,,,,,
1478385118.87,-2.906983,0.477311,2.914109,-4.544976,1.238293,-0.487973,-0.206481,-0.459393,0.863900,0.085754,0.824200,0.133307,-15.964066,-4.717087,37.049683,,,,,,
1478385118.89,-2.868401,0.576340,2.896670,-5.182151,1.606125,-0.494480,-0.226223,-0.544959,0.807368,0.140377,0.969184,-0.104075,-16.958069,-8.315216,38.925537,,,,,,
1478385118.91,-2.818296,0.682543,2.866477,-5.614234,1.553077,-0.334046,-0.246521,-0.630768,0.735771,0.241013,1.320084,-0.369621,-18.278015,-18.967224,36.919373,,,,,,
1478385118.93,-2.764723,0.794644,2.818584,-6.024552,0.673427,-0.235679,-0.257806,-0.713614,0.651376,0.305215,1.540671,-0.429513,-19.046249,-24.070358,33.776978,,,,,,
1478385118.95,-2.710239,0.909662,2.747020,-6.332941,-0.358761,0.014161,-0.256719,-0.789296,0.557769,0.387533,1.534902,-0.270752,-19.046249,-24.070358,33.776978,,,,,,
1478385118.97,-2.638047,1.023830,2.634435,-6.571450,-1.492878,0.463637,-0.250965,-0.854106,0.455542,0.475193,1.532543,-0.145529,-18.537247,-28.798859,30.271301,,,,,,
1478385118.99,-2.533588,1.123854,2.463759,-6.255811,-2.659366,0.978094,-0.246892,-0.901773,0.354753,0.617894,1.598672,0.072050,-19.000122,-33.002914,26.229187,,,,,,
1478385119.01,-2.377904,1.207140,2.237609,-5.904573,-2.423724,0.585105,-0.245995,-0.934602,0.256914,0.632988,1.748308,0.511549,-17.431351,-35.782089,22.053284,,,,,,
1478385119.03,-2.180517,1.279238,1.996555,-4.774003,-0.826609,-0.688504,-0.235650,-0.957797,0.164602,0.528451,1.852542,1.083811,-16.161835,-39.614929,14.202515,,,,,,
1478385119.05,-1.986427,1.332332,1.810050,-2.484345,1.469847,-1.131215,-0.216101,-0.971702,0.095374,0.204473,1.438743,1.419701,-16.161835,-39.614929,14.202515,,,,,,
1478385119.07,-1.913508,1.356383,1.769899,0.037508,1.489943,-0.861804,-0.200401,-0.977101,0.071501,-0.151467,1.255818,0.834947,-16.313202,-40.968094,11.054993,,,,,,
1478385119.09,-2.069754,1.360471,1.937085,2.554383,-0.397773,-0.933134,-0.183325,-0.977963,0.099903,-0.337107,1.176663,0.279965,-15.412888,-41.645325,8.816040,,,,,,
1478385119.11,-2.308154,1.321028,2.187821,3.841027,1.197855,0.921865,-0.182974,-0.968970,0.166187,-1.113519,-0.826517,-2.597416,-14.288361,-41.720245,8.902466,,,,,,
1478385119.13,-2.410867,1.251080,2.325725,3.709086,2.003138,-0.050551,-0.209765,-0.949325,0.234054,0.104342,-3.274430,-0.872390,-15.716690,-40.965759,13.385986,,,,,,
1478385119.15,-2.545011,1.217150,2.489851,3.166380,0.055981,-1.015226,-0.194569,-0.938116,0.286498,0.307164,-0.235971,-0.148894,-15.716690,-40.965759,13.385986,,,,,,
1478385119.17,-2.595390,1.180021,2.529130,0.339049,-0.249103,1.749435,-0.197860,-0.924614,0.325485,0.162520,1.107765,1.276612,-15.564194,-39.763809,15.333862,,,,,,
1478385119.19,-2.478334,1.112288,2.410297,2.726616,-0.705264,4.442621,-0.272510,-0.896714,0.348773,0.646091,1.871109,1.245389,-13.685608,-38.412140,16.998596,,,,,,
1478385119.21,-2.552125,1.007097,2.434072,5.341561,-3.143159,1.165750,-0.297037,-0.845284,0.444144,0.973795,0.156426,0.892175,-16.756973,-37.587097,17.040405,,,,,,
1478385119.23,-2.641262,0.963357,2.519443,0.563151,-1.197102,-1.388602,-0.273806,-0.821112,0.500804,0.612886,-0.609552,-0.289882,-18.246674,-33.306122,23.012695,,,,,,
1478385119.25,-2.696564,0.966519,2.561769,1.057738,-0.384349,-0.860911,-0.244587,-0.822913,0.512827,0.136723,-0.601648,1.206548,-18.246674,-33.306122,23.012695,,,,,,
1478385119.27,-2.727043,0.937509,2.591586,1.972042,-0.373235,0.051006,-0.238363,-0.806087,0.541671,-0.570551,-0.121282,1.069383,-16.899155,-33.680588,23.552307,,,,,,
1478385119.29,-2.760526,0.910178,2.610029,0.361434,-1.709873,0.055211,-0.228207,-0.789613,0.569590,-1.951725,-0.342711,-0.256205,-16.071228,-32.704605,24.532654,,,,,,
1478385119.31,-2.794803,0.923727,2.613660,-0.376874,-0.706172,-0.644197,-0.204897,-0.797854,0.566962,-1.427915,-0.383787,1.581918,-16.070572,-32.253708,25.431274,,,,,,
1478385119.33,-2.772104,0.941995,2.617007,-1.276623,2.000884,-0.201331,-0.212413,-0.808733,0.548481,-0.298757,-0.580610,1.144131,-15.172134,-32.553558,25.591125,,,,,,
1478385119.35,-2.738725,0.961838,2.605328,-0.914908,0.541125,-0.132065,-0.224263,-0.820244,0.526219,0.229496,-1.304649,0.547649,-15.172134,-32.553558,25.591125,,,,,,
1478385119.37,-2.743153,0.994490,2.618636,-1.544031,0.365472,-1.596312,-0.211422,-0.838481,0.502245,1.251797,-1.842747,-0.278429,-15.473389,-33.304977,24.165405,,,,,,
1478385119.39,-2.775026,1.042773,2.659937,-2.000176,-0.241666,-1.628692,-0.180578,-0.863805,0.470354,1.430120,-1.352641,-0.981982,-15.026443,-34.130417,23.722351,,,,,,
1478385119.41,-2.812973,1.084024,2.653355,-1.821617,-3.424303,-0.300540,-0.150968,-0.883847,0.442744,0.261427,-0.348742,-1.150447,-13.680054,-35.331604,22.539368,,,,,,
1478385119.43,-2.888491,1.108887,2.653888,-0.725119,-3.598109,-0.452963,-0.111596,-0.895203,0.431460,-0.338172,0.418351,-0.829638,-12.932785,-36.082047,22.099121,,,,,,
1478385119.45,-2.973408,1.111450,2.686568,0.473831,-1.970898,-0.837444,-0.074216,-0.896342,0.437107,-0.799152,0.618434,-0.940677,-12.932785,-36.082047,22.099121,,,,,,
1478385119.47,-3.007448,1.085067,2.718405,2.077535,0.452548,-0.262792,-0.062438,-0.884335,0.462659,-0.604096,0.531246,-1.626660,-9.562439,-36.755951,23.184875,,,,,,
1478385119.49,-2.999738,1.021842,2.733748,3.716790,1.388283,0.197782,-0.073771,-0.853071,0.516554,-0.589574,0.554502,-1.366332,-8.887451,-36.379822,24.315491,,,,,,
,,,,,,,,,,,,,,,,37.354179,-122.033476,43.228210,1.540000,181.757812,1478385209.00
1478385119.51,-2.974715,0.936790,2.750917,4.580512,2.405492,0.128361,-0.098396,-0.805661,0.584148,-0.284935,0.184094,-1.007335,-8.804108,-33.827728,26.408630,,,,,,
1478385119.52,-2.927116,0.837902,2.770254,5.098522,3.486697,0.521143,-0.142392,-0.743241,0.653695,0.229978,-0.192504,-1.009118,-10.372635,-31.650513,28.636475,,,,,,
1478385119.54,-2.860754,0.737591,2.779649,4.775667,3.474756,1.140233,-0.205125,-0.672507,0.711097,0.685822,-0.622964,-0.598502,-10.372635,-31.650513,28.636475,,,,,,
1478385119.56,-2.824955,0.638553,2.784705,4.638988,0.690818,1.284053,-0.250020,-0.596034,0.763042,0.498510,-1.045964,-0.640911,-12.009323,-28.123795,30.334534,,,,,,
1478385119.58,-2.855684,0.546156,2.791965,4.341746,-2.056122,1.002463,-0.241001,-0.519407,0.819838,0.144703,-1.605700,0.147492,-15.428741,-20.546463,32.677551,,,,,,
1478385119.60,-2.890614,0.466365,2.793809,3.651085,-1.298095,0.981979,-0.221830,-0.449643,0.865224,-0.119265,-1.344287,0.837748,-15.117920,-17.544662,34.471680,,,,,,
1478385119.62,-2.910371,0.398375,2.799004,3.084476,-0.722722,0.194080,-0.211222,-0.387921,0.897164,-0.343359,-0.969790,1.155006,-14.206345,-14.618607,35.522095,,,,,,
1478385119.64,-2.929713,0.349913,2.817216,2.273498,-0.584598,-0.406336,-0.197555,-0.342816,0.918395,-0.244248,-1.139606,1.539827,-14.206345,-14.618607,35.522095,,,,,,
1478385119.66,-2.947472,0.314190,2.832590,1.568545,-0.671712,-0.421691,-0.183460,-0.309046,0.933184,-0.223614,-0.269979,1.371564,-13.218491,-11.693390,35.748108,,,,,,
1478385119.68,-2.964702,0.302505,2.858154,0.410494,-0.183531,-1.534591,-0.167979,-0.297912,0.939698,-0.122227,0.386001,1.470871,-12.002975,-7.942490,36.649048,,,,,,
1478385119.70,-2.969005,0.313392,2.895779,-0.655586,0.558571,-1.877367,-0.163367,-0.308287,0.937161,-0.129830,0.263747,1.124225,-12.900391,-7.116745,37.387573,,,,,,
1478385119.72,-2.971705,0.349921,2.925204,-2.171866,0.199890,-1.504907,-0.158826,-0.342824,0.925876,-0.208850,0.277760,0.517987,-12.977402,-7.115402,38.736816,,,,,,
1478385119.74,-2.974832,0.410869,2.937069,-3.266299,-0.025817,-0.852489,-0.152174,-0.399406,0.904056,-0.111833,0.418174,0.325634,-12.977402,-7.115402,38.736816,,,,,,
1478385119.76,-2.975451,0.490189,2.939546,-4.277345,0.057104,-0.741836,-0.145904,-0.470792,0.870096,-0.040680,0.532773,-0.132684,-13.137405,-8.914124,40.015625,,,,,,
1478385119.78,-2.970712,0.585517,2.935722,-4.918852,0.207325,-0.561975,-0.141724,-0.552630,0.821288,-0.034301,0.686557,-0.320769,-13.529160,-12.137619,41.521332,,,,,,
1478385119.80,-2.953721,0.687816,2.925016,-5.228333,0.750477,-0.465930,-0.144304,-0.634851,0.759039,0.023027,1.048197,-0.487723,-14.095169,-21.588654,40.494019,,,,,,
1478385119.82,-2.922960,0.796917,2.908841,-5.610943,1.090521,-0.555408,-0.151591,-0.715204,0.682278,-0.020314,1.296091,-0.415127,-13.888641,-26.541183,37.960938,,,,,,
1478385119.84,-2.879900,0.908398,2.882515,-5.537498,1.209339,-0.365787,-0.159113,-0.788520,0.594070,0.113871,1.733939,-0.346909,-13.888641,-26.541183,37.960938,,,,,,
1478385119.86,-2.809654,1.016603,2.827849,-5.692330,1.185855,0.038811,-0.171495,-0.850325,0.497531,0.254045,1.917525,-0.379947,-14.054993,-31.269470,34.673523,,,,,,
1478385119.88,-2.713330,1.119042,2.731036,-5.597558,0.059487,0.407688,-0.181293,-0.899682,0.397120,0.331195,1.739114,-0.264597,-14.217514,-35.323288,30.859009,,,,,,
1478385119.90,-2.584546,1.213774,2.573044,-5.676160,-1.300826,0.452957,-0.184767,-0.936942,0.296651,0.347395,1.860419,-0.013738,-15.278809,-40.731979,22.164612,,,,,,
1478385119.92,-2.394209,1.302425,2.339441,-5.638462,-1.647715,-0.011627,-0.180236,-0.964204,0.194488,0.343414,1.924684,0.529999,-14.830185,-42.536469,17.674500,,,,,,
1478385119.94,-2.100862,1.369430,2.009302,-4.436300,-1.242051,-0.194325,-0.172562,-0.979794,0.101122,0.217941,1.583508,1.129332,-14.830185,-42.536469,17.674500,,,,,,
1478385119.96,-1.861350,1.395148,1.743660,-1.823000,-0.986214,-0.228607,-0.167422,-0.984613,0.050062,-0.044660,1.511011,1.095660,-14.156250,-44.190735,13.411255,,,,,,
1478385119.98,-1.769429,1.405443,1.634944,-0.852945,-0.535572,-0.236364,-0.161365,-0.986360,0.032481,-0.127972,1.320665,0.675115,-14.604568,-44.793655,10.483582,,,,,,
1478385120.00,-1.552365,1.408749,1.423810,-2.620064,1.197734,0.074104,-0.161312,-0.986899,-0.002974,-0.336308,1.253729,0.716139,-13.473846,-44.421356,7.793762,,,,,,
1478385120.02,-1.668107,1.407931,1.595970,2.772336,5.025368,0.527794,-0.161379,-0.986767,0.015754,-3.766706,-6.614185,0.644418,-15.282959,-46.295914,8.231323,,,,,,
1478385120.04,-1.992938,1.399094,2.080460,3.262332,6.435538,-1.366061,-0.155860,-0.985295,0.070004,0.912223,-1.479289,-0.335369,-15.282959,-46.295914,8.231323,,,,,,
1478385120.06,-2.310914,1.394320,2.346785,1.690446,-7.372183,0.248208,-0.129633,-0.984469,0.118394,0.766565,0.708208,-0.582902,-14.896240,-43.595612,8.527039,,,,,,
1478385120.08,-2.175423,1.280027,2.151584,2.584322,0.387702,7.723355,-0.235863,-0.958024,0.162970,1.948632,2.166657,2.582819,-14.072815,-43.218430,10.709167,,,,,,
1478385120.10,-2.210156,1.197158,2.209334,2.160579,1.227784,-0.063870,-0.292909,-0.931005,0.217792,1.049470,0.498419,-0.127841,-15.422989,-42.240372,13.767761,,,,,,
1478385120.12,-2.320803,1.216478,2.319585,0.783854,-0.470402,-2.525103,-0.253859,-0.937883,0.236497,0.340773,-0.204924,1.256392,-18.561325,-38.712570,16.575745,,,,,,
1478385120.14,-2.447074,1.231312,2.455666,1.049059,0.230067,-1.767340,-0.213126,-0.942926,0.255865,-0.315759,-0.509451,0.817575,-18.561325,-38.712570,16.575745,,,,,,
1478385120.16,-2.505320,1.231441,2.507933,0.066493,-1.109748,0.006188,-0.197797,-0.942969,0.267740,-1.678881,-1.030557,0.293676,-17.214844,-39.161575,17.565613,,,,,,
1478385120.18,-2.498288,1.228512,2.474489,-0.401723,-0.693416,0.522567,-0.201331,-0.941990,0.268552,-1.441216,0.075779,0.525058,-16.917206,-39.385666,18.469238,,,,,,
1478385120.20,-2.464627,1.237611,2.458229,-0.479882,1.679738,-0.263810,-0.204877,-0.945005,0.254932,-0.326540,0.323255,0.438488,-16.165298,-38.935593,18.550415,,,,,,
1478385120.22,-2.417829,1.244226,2.446896,-0.329685,1.530025,0.108919,-0.212434,-0.947148,0.240379,0.238832,-0.101192,-0.049690,-16.166763,-39.686859,17.277588,,,,,,
1478385120.24,-2.379107,1.244328,2.414698,-0.338996,-0.346870,0.480892,-0.221514,-0.947181,0.231905,0.648180,-0.477227,-0.416536,-16.166763,-39.686859,17.277588,,,,,,
1478385120.26,-2.379411,1.245502,2.385599,-0.378283,-1.873144,0.110157,-0.220676,-0.947557,0.231168,0.747791,-0.177321,-0.436032,-17.443085,-40.137329,16.816223,,,,,,
1478385120.28,-2.424015,1.251076,2.385290,-0.101097,-2.446481,-0.269160,-0.206672,-0.949323,0.236795,0.027656,0.111509,-0.302484,-16.768234,-40.137238,16.897949,,,,,,
1478385120.30,-2.482412,1.254009,2.397157,0.069429,-2.124147,-0.227376,-0.190794,-0.950241,0.246251,-0.260134,0.049820,-0.120870,-16.318909,-40.136795,17.352417,,,,,,
1478385120.32,-2.528373,1.253870,2.417440,0.291320,-0.920991,-0.252528,-0.179354,-0.950198,0.254865,-0.088010,0.138400,-0.100843,-15.271530,-40.360733,18.413574,,,,,,
1478385120.34,-2.569587,1.248604,2.444156,0.497927,-0.860437,-0.161186,-0.171407,-0.948544,0.266242,0.206151,0.150250,-0.276938,-15.271530,-40.360733,18.413574,,,,,,
1478385120.36,-2.611213,1.241344,2.460778,0.459488,-1.701751,0.082170,-0.163658,-0.946220,0.279077,0.196343,0.099723,-0.206415,-14.598648,-40.359299,19.845337,,,,,,
1478385120.38,-2.657493,1.231010,2.460070,0.445040,-2.710415,0.333654,-0.155115,-0.942826,0.294989,0.085932,0.300568,-0.072409,-13.324554,-40.358688,20.458069,,,,,,
1478385120.40,-2.715487,1.219782,2.458552,0.515982,-2.973311,0.189886,-0.142123,-0.939024,0.313104,-0.000272,0.330489,0.121237,-12.724457,-39.982620,21.512939,,,,,,
1478385120.42,-2.773630,1.208659,2.466885,0.648479,-2.186062,0.036292,-0.127438,-0.935142,0.330559,-0.122059,0.260261,0.208167,-11.675812,-39.831268,22.872986,,,,,,
1478385120.44,-2.818427,1.194350,2.481800,0.836944,-1.206549,-0.030133,-0.116745,-0.929977,0.348588,-0.294831,0.238906,-0.017762,-11.675812,-39.831268,22.872986,,,,,,
,,,,,,,,,,,,,,,,37.354166,-122.033471,42.808472,1.320000,189.492188,1478385210.00
1478385120.46,-2.850419,1.175681,2.494460,1.007075,-1.034319,0.130900,-0.110500,-0.922952,0.368713,-0.284855,0.169839,-0.332336,-10.100159,-38.929001,25.136047,,,,,,
1478385120.48,-2.879350,1.153239,2.498671,1.141581,-1.394183,0.246603,-0.105132,-0.914082,0.391664,-0.278901,0.053090,-0.152666,-9.498230,-38.178024,26.114746,,,,,,
1478385120.50,-2.924780,1.131306,2.514973,1.034423,-1.489412,-0.366052,-0.091528,-0.904969,0.415517,-0.509516,-0.347168,-0.030538,-8.895767,-37.427414,26.718506,,,,,,
1478385120.52,-2.964333,1.113304,2.545528,1.032945,-0.024686,-0.310741,-0.077886,-0.897163,0.434778,0.056051,-0.285500,0.278662,-8.669754,-36.675858,28.293579,,,,,,
1478385120.54,-2.958484,1.092002,2.532248,0.952635,-0.925083,0.983707,-0.083889,-0.887551,0.453008,0.242336,-0.201103,-0.124791,-8.669754,-36.675858,28.293579,,,,,,
1478385120.56,-2.974800,1.073755,2.479787,0.430052,-4.771259,1.476513,-0.079163,-0.878997,0.470209,0.462830,-0.295319,-0.400858,-7.768967,-36.225006,29.126160,,,,,,
1478385120.58,-3.058734,1.070113,2.416138,-0.243879,-7.772722,1.623074,-0.039729,-0.877255,0.478378,0.496119,-0.303394,0.219757,-6.188904,-34.573425,30.712097,,,,,,
1478385120.60,-3.135437,1.077082,2.336528,-0.473419,-6.775398,2.016460,-0.002917,-0.880579,0.473891,0.391482,0.016199,0.482423,-2.589981,-34.572723,31.423035,,,,,,
1478385120.62,3.099589,1.088150,2.255585,-0.559272,-5.686321,1.828059,0.019489,-0.885770,0.463716,-0.019749,0.218487,0.250746,-0.191681,-34.872467,31.672913,,,,,,
1478385120.64,3.063821,1.102673,2.173035,-0.649422,-5.373400,2.056337,0.035056,-0.892416,0.449849,0.213815,-0.007837,0.108440,-0.191681,-34.872467,31.672913,,,,,,
1478385120.66,3.036594,1.123475,2.076235,-1.000358,-6.097356,2.305883,0.045334,-0.901609,0.430170,0.417205,-0.041598,-0.150781,2.508148,-35.098038,31.100586,,,,,,
1478385120.68,2.994283,1.152021,1.965959,-1.168157,-7.747180,2.619442,0.059686,-0.913588,0.402238,0.472113,0.103590,-0.117616,6.404480,-36.600098,29.044128,,,,,,
1478385120.70,2.948468,1.185610,1.833717,-1.251047,-8.653119,2.915964,0.072113,-0.926729,0.368746,0.396423,0.285783,0.113508,7.677948,-37.577026,27.109741,,,,,,
1478385120.72,2.905153,1.223941,1.693520,-1.351366,-8.650593,2.801476,0.079629,-0.940446,0.330484,0.276267,0.408830,0.360373,9.624878,-39.154709,24.433960,,,,,,
1478385120.74,2.867424,1.262295,1.557647,-1.301540,-8.084731,2.453745,0.082207,-0.952790,0.292291,0.180946,0.371903,0.326544,9.624878,-39.154709,24.433960,,,,,,
1478385120.76,2.831851,1.299240,1.438685,-1.252284,-7.073220,1.983302,0.081760,-0.963355,0.255467,0.072262,0.368658,0.170787,11.874939,-40.132690,21.459412,,,,,,
1478385120.78,2.796157,1.330573,1.348467,-1.081832,-5.421161,1.320379,0.080561,-0.971285,0.223865,-0.381068,0.315615,-0.025318,12.999359,-41.335892,18.249268,,,,,,
1478385120.80,2.749302,1.354214,1.320496,-0.903183,-2.496323,0.363950,0.082155,-0.976638,0.198569,-0.630266,0.217635,0.127954,12.698792,-43.140915,13.226624,,,,,,
1478385120.82,2.730188,1.367635,1.335036,-0.535670,0.973893,0.069635,0.080686,-0.979434,0.184931,-0.260785,0.334521,0.125142,13.151215,-43.217789,11.356384,,,,,,
1478385120.84,2.745516,1.372658,1.359804,-0.274220,2.334756,-0.250920,0.075943,-0.980435,0.181605,0.296067,0.232830,-0.160136,13.151215,-43.217789,11.356384,,,,,,
1478385120.86,2.740889,1.374648,1.406030,-0.258144,1.568737,-0.420742,0.076021,-0.980825,0.179455,0.515196,0.033147,-0.320583,13.602478,-42.992935,11.210205,,,,,,
1478385120.88,2.731214,1.378695,1.425808,-0.302009,-0.053632,0.186925,0.076169,-0.981605,0.175069,0.598528,-0.752510,-0.628423,13.376923,-42.992554,11.582947,,,,,,
1478385120.90,2.741665,1.387110,1.406887,-0.300704,-0.391342,0.322756,0.071117,-0.983177,0.168242,-0.108348,-0.999489,-0.479033,12.478027,-42.767639,11.498352,,,,,,
1478385120.92,2.756399,1.392892,1.392793,-0.135849,0.299595,0.225580,0.066493,-0.984217,0.164000,0.091694,-0.227346,-0.025817,13.077942,-42.918015,11.129822,,,,,,
1478385120.94,2.789707,1.396392,1.364926,-0.092475,0.108797,0.319152,0.059808,-0.984830,0.162889,0.241248,0.202268,0.089155,13.077942,-42.918015,11.129822,,,,,,
1478385120.96,2.805720,1.403164,1.334895,-0.332151,-1.192551,0.348277,0.054992,-0.985983,0.157525,0.074235,0.106588,-0.026299,12.703400,-42.918320,10.825989,,,,,,
1478385120.98,2.792086,1.414123,1.312117,-0.493464,-2.018664,0.384187,0.053431,-0.987752,0.146599,0.070287,-0.015864,0.044090,12.176666,-43.293320,10.821838,,,,,,
1478385121.00,2.781927,1.426797,1.286341,-0.546067,-1.557651,0.402458,0.050507,-0.989650,0.134320,0.098998,0.098842,0.193790,12.103241,-43.520050,9.096802,,,,,,
1478385121.02,2.779847,1.439170,1.265666,-0.517547,-0.875826,0.299678,0.046449,-0.991350,0.122753,-0.210832,0.161455,0.093586,11.802673,-43.895798,8.344971,,,,,,
1478385121.04,2.766978,1.449978,1.269012,-0.492110,-0.266469,0.116561,0.044102,-0.992710,0.112166,-0.245685,0.090031,-0.094695,11.802673,-43.895798,8.344971,,,,,,
1478385121.06,2.751056,1.459688,1.283158,-0.483239,-0.049908,0.108625,0.042210,-0.993834,0.102531,-0.058125,-0.060762,-0.109535,11.577606,-44.121399,7.743408,,,,,,
1478385121.08,2.730426,1.469893,1.299253,-0.563259,-0.331729,0.124805,0.040260,-0.994914,0.092336,0.089409,0.027979,-0.036947,10.901917,-44.271408,7.737122,,,,,,
1478385121.10,2.694185,1.481709,1.325891,-0.510175,-0.592673,0.149822,0.038491,-0.996034,0.080213,0.035194,0.048067,-0.011212,10.978607,-44.122070,7.062378,,,,,,
1478385121.12,2.665054,1.492082,1.345033,-0.525457,-0.471964,0.165085,0.036069,-0.996904,0.069872,0.003466,0.054490,-0.104418,11.580994,-44.123642,5.493408,,,,,,
1478385121.14,2.628652,1.504279,1.368785,-0.538965,-0.863662,0.252663,0.032619,-0.997789,0.057914,-0.029430,-0.058974,-0.211707,11.580994,-44.123642,5.493408,,,,,,
1478385121.16,2.597608,1.514635,1.376096,-0.441365,-1.413334,0.212858,0.029051,-0.998423,0.048029,0.216188,-0.017934,-0.101634,11.505737,-44.273956,5.193115,,,,,,
1478385121.18,2.534623,1.524160,1.401570,-0.441186,-2.126210,0.208760,0.026591,-0.998913,0.038292,0.225271,-0.091038,-0.103737,10.380951,-44.499786,4.357605,,,,,,
1478385121.20,2.453945,1.533707,1.432942,-0.383931,-2.678225,0.253284,0.023536,-0.999312,0.028654,0.325890,0.015960,-0.046141,10.757721,-44.350540,3.610901,,,,,,
1478385121.22,2.345105,1.541030,1.475147,-0.287696,-3.825265,0.142385,0.021277,-0.999557,0.020810,0.607354,0.138183,-0.175351,10.685303,-44.427490,1.660400,,,,,,
1478385121.24,2.216841,1.546738,1.511055,-0.202927,-4.956098,0.230238,0.019208,-0.999711,0.014483,0.438906,0.000596,-0.238894,10.685303,-44.427490,1.660400,,,,,,
1478385121.26,2.169092,1.552878,1.464060,-0.118227,-4.435290,0.298060,0.014805,-0.999839,0.010092,-0.151127,0.004631,0.042643,9.785858,-44.578308,0.826843,,,,,,
1478385121.28,2.194625,1.558557,1.367089,-0.096261,-3.018580,0.257122,0.009934,-0.999925,0.007149,-0.633499,0.032396,0.151512,9.262604,-44.654663,-0.528198,,,,,,
1478385121.30,2.478409,1.563723,1.044356,-0.076492,-1.224462,0.277049,0.004355,-0.999975,0.005574,-0.812491,0.038381,0.179408,9.188812,-44.580261,-1.129150,,,,,,
1478385121.32,2.803838,1.566362,0.713599,-0.085511,0.148686,0.083153,0.001469,-0.999990,0.004184,-0.447362,0.004919,0.170087,8.589294,-44.580582,-1.435120,,,,,,
1478385121.34,3.075248,1.568291,0.445111,-0.048677,-0.036756,0.091254,0.000166,-0.999997,0.002500,0.145265,0.005460,-0.018003,8.589294,-44.580582,-1.435120,,,,,,
1478385121.36,-2.271905,1.568115,-0.505300,-0.056397,-1.264963,0.096409,-0.002049,-0.999996,0.001730,0.582997,-0.011005,-0.152609,8.214508,-44.655960,-1.813660,,,,,,
1478385121.38,-1.649351,1.565421,-1.175057,-0.088041,-2.939951,0.226368,-0.005359,-0.999986,0.000422,0.535129,-0.044448,-0.212336,8.739380,-44.731094,-1.958191,,,,,,
1478385121.40,-1.484496,1.560928,-1.407376,-0.067242,-3.445826,0.214328,-0.009831,-0.999951,-0.000851,0.084554,0.044537,-0.021763,8.364960,-44.731476,-2.336914,,,,,,
1478385121.42,-1.481899,1.557271,-1.471571,-0.026776,-2.812495,0.157378,-0.013471,-0.999909,-0.001201,-0.218600,0.021790,0.194499,7.990295,-44.882156,-3.015259,,,,,,
1478385121.44,-1.528941,1.554691,-1.473918,-0.027332,-2.339363,0.102052,-0.016091,-0.999870,-0.000674,-0.277824,0.015404,0.025988,7.990295,-44.882156,-3.015259,,,,,,
1478385121.46,-1.489529,1.552631,-1.555190,-0.064988,-1.897733,0.101064,-0.018104,-0.999835,-0.001475,-0.158241,-0.023877,0.138453,6.041870,-44.807999,-3.859985,,,,,,
1478385121.48,-1.514999,1.551191,-1.564474,0.003469,-1.685882,0.037661,-0.019573,-0.999808,-0.001093,-0.074604,0.045554,-0.067526,6.418121,-44.583145,-4.006836,,,,,,
,,,,,,,,,,,,,,,,37.354166,-122.033471,43.255737,0.000000,21.796875,1478385211.00
1478385121.50,-1.618201,1.551886,-1.488760,0.126164,-1.130540,-0.052483,-0.018888,-0.999821,0.000896,-0.240969,0.054158,-0.097576,6.268555,-44.583450,-4.308350,,,,,,
1478385121.52,-1.845103,1.551673,-1.276489,0.235140,-0.547939,-0.000474,-0.018407,-0.999817,0.005180,-0.280726,0.030609,-0.244819,6.119568,-44.433685,-4.535339,,,,,,
1478385121.54,-2.186567,1.547023,-0.941020,0.543765,-0.094601,0.066483,-0.019405,-0.999717,0.013730,-0.182240,0.112587,-0.219617,6.119568,-44.433685,-4.535339,,,,,,
1478385121.56,-2.484018,1.538482,-0.641686,0.644113,0.140924,0.009611,-0.019747,-0.999478,0.025571,-0.028257,0.063366,-0.358076,5.367828,-44.733383,-4.241943,,,,,,
1478385121.58,-2.660668,1.524460,-0.459088,0.876897,0.350126,0.119570,-0.021428,-0.998927,0.041066,0.019261,0.065226,-0.367527,5.816071,-44.732254,-3.112427,,,,,,
1478385121.60,-2.728924,1.507050,-0.385762,0.855476,0.115676,0.241757,-0.025548,-0.997969,0.058355,0.140233,0.075667,-0.239523,5.662964,-45.106277,-2.137817,,,,,,
1478385121.62,-2.755556,1.487323,-0.363201,0.987136,-0.373872,0.311155,-0.031393,-0.996518,0.077240,0.229116,0.088819,-0.115769,4.837341,-44.955383,-1.246582,,,,,,
1478385121.64,-2.784504,1.466107,-0.343154,1.031994,-0.408893,0.313274,-0.036527,-0.994525,0.097906,-0.019778,-0.025327,-0.075201,4.837341,-44.955383,-1.246582,,,,,,
1478385121.66,-2.781171,1.444327,-0.349849,0.991536,-0.003545,0.491676,-0.044483,-0.992013,0.118029,-0.025677,-0.056952,0.094374,4.385864,-45.029648,-0.500854,,,,,,
1478385121.68,-2.758739,1.423470,-0.372174,0.915111,-0.082659,0.503078,-0.054838,-0.989167,0.136167,0.186903,0.127824,0.055163,4.383270,-44.952698,1.448914,,,,,,
1478385121.70,-2.750900,1.402548,-0.385222,0.920048,-0.302766,0.477908,-0.063772,-0.985880,0.154837,-0.028162,0.002893,0.053827,4.081268,-45.026566,2.571106,,,,,,
1478385121.72,-2.747188,1.383330,-0.393767,0.778694,-0.107759,0.409819,-0.071615,-0.982480,0.172062,-0.153529,-0.038196,-0.000095,2.804047,-45.175537,3.608765,,,,,,
1478385121.74,-2.742599,1.366274,-0.401019,0.787459,-0.184612,0.405349,-0.078903,-0.979158,0.187147,-0.215302,-0.027907,-0.127531,2.804047,-45.175537,3.608765,,,,,,
1478385121.76,-2.740658,1.348308,-0.401859,0.890270,0.267309,0.328777,-0.086118,-0.975351,0.203159,-0.035861,0.063440,0.000867,3.028717,-45.024857,4.285645,,,,,,
1478385121.78,-2.735505,1.328835,-0.400188,0.925649,0.238584,0.414233,-0.094649,-0.970870,0.220121,0.048812,0.001952,-0.204435,2.352478,-44.798370,5.778137,,,,,,
1478385121.80,-2.735034,1.305334,-0.402233,1.133140,-0.300554,0.507132,-0.103749,-0.964971,0.240970,0.199909,-0.013239,-0.317493,2.274445,-45.022018,7.128052,,,,,,
1478385121.82,-2.751248,1.279136,-0.401219,1.269484,-0.954213,0.504503,-0.109412,-0.957768,0.265913,0.089881,-0.028270,-0.360685,0.548798,-44.871124,8.010376,,,,,,
1478385121.84,-2.768623,1.250487,-0.402143,1.367078,-0.794000,0.575629,-0.114729,-0.949138,0.293213,-0.017290,0.034038,-0.155213,0.548798,-44.871124,8.010376,,,,,,
1478385121.86,-2.778039,1.220127,-0.405602,1.427185,-0.585609,0.585961,-0.122157,-0.939143,0.321073,-0.061116,0.075129,-0.031782,0.773224,-44.569855,9.286621,,,,,,
1478385121.88,-2.788043,1.188884,-0.405817,1.494847,-0.441674,0.554422,-0.129039,-0.927954,0.349645,-0.050771,0.099050,-0.063420,0.322815,-44.268661,10.481262,,,,,,
1478385121.90,-2.795043,1.154794,-0.405487,1.667065,-0.320147,0.579630,-0.137257,-0.914712,0.380083,0.126041,0.044884,-0.233828,-0.878845,-43.665756,13.392395,,,,,,
1478385121.92,-2.803487,1.120271,-0.402718,1.552705,-0.265564,0.450302,-0.144435,-0.900218,0.410786,-0.026341,0.001613,-0.237004,-0.878387,-43.139481,14.665894,,,,,,
1478385121.94,-2.816597,1.091304,-0.395018,1.413201,-0.376296,0.246755,-0.147304,-0.887229,0.437179,-0.076893,0.130195,0.132127,-0.878387,-43.139481,14.665894,,,,,,
1478385121.96,-2.833842,1.059198,-0.384103,1.699485,-0.271198,0.290279,-0.148299,-0.871963,0.466570,-0.117875,0.174682,0.070966,-1.328598,-42.612762,16.384766,,,,,,
1478385121.98,-2.835156,1.026165,-0.380640,1.583173,0.209838,0.485852,-0.156293,-0.855318,0.493967,-0.061206,-0.102979,-0.068323,-1.178360,-42.086334,17.809692,,,,,,
1478385122.00,-2.829844,0.993553,-0.384125,1.444605,-0.013843,0.652738,-0.167384,-0.837970,0.519411,0.032191,-0.156750,-0.038775,-2.978333,-41.108429,20.713806,,,,,,
1478385122.02,-2.830994,0.962323,-0.393893,1.412992,-0.726601,0.757565,-0.174702,-0.820522,0.544264,0.071263,-0.010564,-0.051802,-2.827637,-40.507080,22.063477,,,,,,
1478385122.04,-2.841055,0.932349,-0.400355,1.321956,-0.687055,0.523531,-0.176421,-0.803022,0.569238,0.036513,-0.009081,0.093207,-2.827637,-40.507080,22.063477,,,,,,
1478385122.06,-2.856733,0.902670,-0.397017,1.586797,-0.692624,0.242981,-0.174098,-0.784984,0.594550,0.004237,-0.091771,0.023248,-2.826279,-39.830948,23.186462,,,,,,
1478385122.08,-2.873626,0.871776,-0.392092,1.448307,-0.649397,0.331538,-0.170372,-0.765473,0.620504,-0.018273,-0.200088,-0.069921,-3.124802,-39.079681,24.456238,,,,,,
1478385122.10,-2.890750,0.840614,-0.392810,1.573125,-0.978350,0.447308,-0.165564,-0.745053,0.646131,-0.059686,-0.271061,-0.180555,-4.175552,-38.627823,26.319336,,,,,,
1478385122.12,-2.906722,0.808983,-0.393453,1.445330,-0.700209,0.366651,-0.160629,-0.723586,0.671284,-0.099457,-0.384996,-0.097538,-2.895401,-36.901093,28.052002,,,,,,
1478385122.14,-2.918705,0.781371,-0.394223,1.316190,-0.639131,0.338815,-0.156932,-0.704253,0.692387,-0.109792,-0.289002,0.019283,-2.895401,-36.901093,28.052002,,,,,,
1478385122.16,-2.933530,0.753715,-0.395970,1.390526,-0.887292,0.355357,-0.150617,-0.684352,0.713426,-0.138827,-0.009740,-0.053697,-2.594604,-36.224594,29.552917,,,,,,
1478385122.18,-2.951120,0.721434,-0.395533,1.682070,-0.818834,0.278058,-0.142155,-0.660462,0.737280,-0.107265,0.007691,-0.166311,-3.569016,-35.698395,30.741638,,,,,,
1478385122.20,-2.964575,0.688113,-0.394898,1.604693,-0.600105,0.299893,-0.136024,-0.635081,0.760375,0.049522,-0.466940,-0.332412,-3.115417,-34.647644,31.493042,,,,,,
1478385122.22,-2.976957,0.652667,-0.399728,1.825643,-0.905828,0.632784,-0.130208,-0.607307,0.783724,0.088749,-0.640175,-0.434832,-2.285355,-32.770401,33.745667,,,,,,
1478385122.24,-2.996539,0.610988,-0.413941,2.054911,-1.767622,1.043223,-0.118394,-0.573677,0.810480,0.204835,-0.551903,-0.853601,-2.285355,-32.770401,33.745667,,,,,,
1478385122.26,-3.029104,0.561229,-0.437844,2.573630,-2.527816,1.471540,-0.095033,-0.532227,0.841251,0.383012,-0.623855,-1.051639,-2.507416,-31.643982,35.165100,,,,,,
1478385122.28,-3.069224,0.502001,-0.468157,2.964086,-2.996105,1.542516,-0.063385,-0.481181,0.874327,0.502212,-0.584615,-1.114927,-2.428787,-30.292328,36.811829,,,,,,
1478385122.30,-3.124549,0.432270,-0.495589,3.740845,-3.491220,1.302110,-0.015475,-0.418933,0.907885,0.300494,-0.325345,-0.947833,-0.845596,-27.965820,38.320740,,,,,,
1478385122.32,3.102166,0.346088,-0.520331,4.689279,-3.122004,0.916938,0.037079,-0.339221,0.939976,0.057526,-0.178388,-0.785343,0.361603,-25.789093,40.051208,,,,,,
1478385122.34,3.053967,0.245727,-0.541733,5.305719,-2.508890,0.595965,0.084885,-0.243262,0.966239,-0.453034,-0.477518,-0.753410,0.361603,-25.789093,40.051208,,,,,,
1478385122.36,3.020907,0.142310,-0.562194,5.137812,-1.428012,0.372141,0.119176,-0.141831,0.982691,-0.589300,-0.809326,-0.822412,2.635925,-19.260712,43.429352,,,,,,
1478385122.38,3.010339,0.046971,-0.579641,4.634862,-0.161194,0.185640,0.130733,-0.046954,0.990305,-0.565410,-0.754530,-0.699534,3.479950,-14.835114,44.024536,,,,,,
1478385122.40,3.004691,-0.052269,-0.594137,5.293115,-0.563606,-0.029074,0.136289,0.052245,0.989291,-0.303235,-0.357390,0.028562,3.799744,-10.334824,44.314240,,,,,,
1478385122.42,2.971903,-0.155824,-0.598580,5.293962,-2.209638,-0.878723,0.166830,0.155194,0.973695,-0.493139,0.102771,0.617659,3.822388,-5.610733,43.400269,,,,,,
1478385122.44,2.932599,-0.254171,-0.582977,4.023777,-2.095510,-2.271704,0.200810,0.251443,0.946811,-0.639760,-0.726083,0.705746,3.822388,-5.610733,43.400269,,,,,,
1478385122.46,2.916383,-0.320440,-0.531670,1.814232,-1.031155,-3.597464,0.211944,0.314985,0.925129,-1.145950,-1.804013,1.180614,5.894196,4.062073,41.217010,,,,,,
1478385122.48,2.941448,-0.345635,-0.456698,-0.211284,0.772994,-3.528714,0.187054,0.338795,0.922079,-1.252850,-0.430347,1.648737,6.736633,7.435577,39.715271,,,,,,
1478385122.50,2.991740,-0.327605,-0.403374,-2.053205,1.743129,-1.515274,0.141353,0.321777,0.936205,-0.618129,0.065125,1.277617,5.319977,9.160187,39.320923,,,,,,
,,,,,,,,,,,,,,,,37.354159,-122.033460,42.453186,0.210000,108.984375,1478385212.00
1478385122.52,3.019566,-0.258317,-0.375121,-4.614325,0.471484,-0.866148,0.117685,0.255454,0.959632,0.085211,0.169854,0.290673,3.066986,8.786057,40.199493,,,,,,
1478385122.54,3.029405,-0.146189,-0.333039,-6.369788,0.057275,-1.671658,0.110759,0.145669,0.983114,0.249730,0.420646,0.295618,3.066986,8.786057,40.199493,,,,,,
1478385122.56,3.040949,-0.008593,-0.280126,-7.590645,0.603361,-1.938317,0.100470,0.008593,0.994903,-0.099066,0.560209,0.050355,1.627472,6.012405,41.543488,,,,,,
1478385122.58,3.058220,0.152337,-0.228316,-8.520555,1.338796,-1.721022,0.082312,-0.151749,0.984986,-0.299017,0.575607,-0.079819,2.174774,-5.311432,42.707916,,,,,,
1478385122.60,3.093374,0.327249,-0.190545,-9.103120,2.670811,-0.892481,0.045642,-0.321439,0.945830,-0.125247,0.964460,0.068010,2.218353,-12.737747,41.380646,,,,,,
1478385122.62,-3.138276,0.516715,-0.181595,-9.600141,2.412657,0.251293,-0.002884,-0.494026,0.869442,0.176422,1.307900,0.136722,1.063080,-20.315308,38.841827,,,,,,
1478385122.64,-3.112551,0.704156,-0.218589,-9.080441,-1.326599,1.953523,-0.022131,-0.647390,0.761837,0.611059,1.541952,-0.136959,1.063080,-20.315308,38.841827,,,,,,
1478385122.66,-3.127277,0.880133,-0.282082,-9.149595,-3.460310,1.660128,-0.009120,-0.770824,0.636983,0.727610,1.388865,0.056117,-0.764420,-27.819489,34.646057,,,,,,
1478385122.68,3.092401,1.069805,-0.295206,-9.123315,-3.536990,-0.120029,0.023617,-0.877107,0.479715,0.851597,0.913331,0.338660,0.409943,-37.732132,22.012512,,,,,,
1478385122.70,2.993967,1.223129,-0.221825,-6.862161,-0.409068,-0.716491,0.050114,-0.940170,0.337000,0.284023,0.377044,1.550741,2.283142,-40.589523,14.614868,,,,,,
1478385122.72,2.950495,1.345471,-0.160054,-6.010076,1.344459,0.825138,0.042436,-0.974721,0.219357,-0.614076,0.326940,0.548084,2.133667,-42.470520,8.619019,,,,,,
1478385122.74,3.052876,1.449604,-0.232907,-4.458732,1.524717,1.405280,0.010711,-0.992665,0.120420,-0.896377,0.974324,0.462130,2.133667,-42.470520,8.619019,,,,,,
1478385122.76,-3.013766,1.522130,-0.418453,-3.054210,1.484132,0.250511,-0.006202,-0.998816,0.048250,-0.284890,1.268637,0.475553,1.989868,-42.850769,3.368652,,,,,,
1478385122.78,2.921141,1.568307,-0.054628,-1.826748,0.339810,-0.610582,0.000544,-0.999997,0.002429,0.295568,0.852719,0.108838,1.926605,-42.332077,-2.933472,,,,,,
1478385122.80,0.275178,1.557951,2.585696,-0.027752,-0.753549,0.381036,0.003490,-0.999918,-0.012362,0.184986,0.548852,-0.249433,2.602997,-42.483414,-4.276306,,,,,,
1478385122.82,-2.047896,1.557153,-1.392183,1.382149,-0.441398,0.701669,-0.012119,-0.999907,0.006265,0.029072,0.875548,-0.232156,2.077850,-42.408127,-3.981750,,,,,,
1478385122.84,-2.798881,1.501512,-0.644492,5.414887,-1.014213,0.622704,-0.023264,-0.997601,0.065203,-0.438696,0.906689,-0.142611,2.077850,-42.408127,-3.981750,,,,,,
1478385122.86,-2.954085,1.328322,-0.441119,6.986410,4.635471,1.599385,-0.044758,-0.970747,0.235896,-2.812282,1.211836,4.573857,2.449707,-42.556473,-2.327576,,,,,,
1478385122.88,-2.927862,1.245566,-0.454846,3.093918,1.876773,-0.061414,-0.067774,-0.947577,0.312256,-0.037161,-3.223733,0.311187,1.838379,-43.225922,3.218262,,,,,,
1478385122.90,-2.901042,1.140041,-0.372201,6.071993,8.228797,-1.474719,-0.099478,-0.908651,0.405535,1.153113,-3.066020,1.140425,0.548706,-43.517014,12.131287,,,,,,
1478385122.92,-2.902990,1.072835,-0.215368,3.943684,2.311715,-1.433799,-0.112887,-0.878558,0.464104,1.592592,-2.605435,-0.155876,0.473877,-42.087814,16.326172,,,,,,
1478385122.94,-2.927591,0.975247,-0.313964,3.622452,-8.105853,7.371769,-0.119133,-0.827841,0.548167,1.619941,0.236898,-1.325587,0.473877,-42.087814,16.326172,,,,,,
1478385122.96,-2.803091,0.897461,-0.599111,0.358301,-2.134414,8.114386,-0.207080,-0.781746,0.588210,1.217456,1.199959,2.997621,1.449554,-40.959885,19.257629,,,,,,
1478385122.98,-2.848423,0.840233,-0.594165,2.633086,-2.363716,-3.203290,-0.192838,-0.744798,0.638818,-0.026400,3.083513,1.217215,-1.547485,-39.532593,21.548340,,,,,,
1478385123.00,-2.980729,0.837440,-0.423702,0.838099,1.656754,-5.799098,-0.107213,-0.742932,0.660725,-0.194697,0.563199,1.100262,-1.845093,-38.029678,24.465881,,,,,,
1478385123.02,-3.018295,0.797895,-0.295481,3.698431,2.481228,-2.619708,-0.085870,-0.715888,0.692915,-1.011603,-1.262246,1.635348,1.981995,-37.203598,25.551697,,,,,,
1478385123.04,-3.040264,0.744286,-0.285031,0.116781,-2.746332,1.458149,-0.074407,-0.677446,0.731799,-1.534724,-1.166853,-2.041507,1.981995,-37.203598,25.551697,,,,,,
1478385123.06,-3.032021,0.756888,-0.344969,-0.284778,-1.531490,1.980045,-0.079497,-0.686663,0.722616,-0.883348,-0.443617,0.585962,1.910278,-35.626038,28.096252,,,,,,
1478385123.08,-3.026983,0.750415,-0.381265,0.287914,-0.542023,1.020047,-0.083643,-0.681942,0.726608,-0.299109,-0.053959,0.542496,2.359924,-35.851486,27.651367,,,,,,
1478385123.10,-3.017146,0.737300,-0.396025,0.991982,0.174594,0.403558,-0.091889,-0.672292,0.734561,0.084107,-0.257671,0.310345,1.084503,-35.926422,27.713867,,,,,,
1478385123.12,-3.019308,0.700279,-0.381999,1.900857,0.772903,-0.978959,-0.093274,-0.644431,0.758952,0.434842,-0.490609,-0.476238,0.863007,-34.800385,28.758301,,,,,,
1478385123.14,-3.053077,0.683822,-0.325308,1.480872,-0.740227,-2.273438,-0.068525,-0.631760,0.772129,1.046018,-1.163741,-1.337284,0.863007,-34.800385,28.758301,,,,,,
1478385123.16,-3.096180,0.639619,-0.302061,2.397914,-1.658237,0.538788,-0.036423,-0.596890,0.801496,1.100479,-1.335773,-1.403379,1.688538,-34.424622,29.515381,,,,,,
1478385123.18,-3.140423,0.581998,-0.342133,3.075562,-4.328359,1.915161,-0.000977,-0.549694,0.835365,0.798188,-0.852222,-1.723961,3.642365,-33.374008,30.131775,,,,,,
1478385123.20,3.071663,0.517526,-0.392586,3.407100,-4.915776,2.215416,0.060722,-0.494731,0.866922,0.111748,-0.436207,-1.198526,3.723114,-31.647659,31.477417,,,,,,
1478385123.22,3.005423,0.445160,-0.457211,4.196894,-4.563151,2.544698,0.122520,-0.430602,0.894187,-0.508063,-0.381288,-0.671943,8.014496,-27.596436,32.708130,,,,,,
1478385123.24,2.959142,0.365233,-0.511576,4.294668,-2.582159,1.034226,0.169473,-0.357167,0.918537,-1.223016,0.106542,-0.406696,8.014496,-27.596436,32.708130,,,,,,
1478385123.26,2.932799,0.281064,-0.519307,4.164735,-0.890077,-0.917627,0.199146,-0.277378,0.939895,-1.366261,0.034565,-0.498183,8.851410,-24.670609,33.532776,,,,,,
1478385123.28,2.926260,0.195878,-0.529638,4.186952,-0.137744,-0.119544,0.209586,-0.194628,0.958224,-0.800651,-0.393766,-0.567798,9.611328,-22.044342,34.807495,,,,,,
1478385123.30,2.932166,0.124043,-0.535412,3.292530,0.370825,-0.859049,0.206302,-0.123725,0.970635,-0.408084,-0.560006,-0.958687,10.901642,-18.518951,35.184814,,,,,,
1478385123.32,2.943347,0.063155,-0.523691,2.378590,0.485238,-1.268462,0.196557,-0.063113,0.978459,-0.271219,-0.829221,-0.558217,10.690460,-15.443970,35.173462,,,,,,
1478385123.34,2.929666,0.032364,-0.496475,0.960866,-1.115057,-1.777489,0.210233,-0.032358,0.977116,-0.743162,-0.770437,0.556393,10.690460,-15.443970,35.173462,,,,,,
1478385123.36,2.930484,0.023268,-0.468486,-0.520286,0.816058,-1.433926,0.209488,-0.023265,0.977534,-0.319931,-0.373173,0.519414,11.911041,-10.944199,34.947205,,,,,,
1478385123.38,2.947707,0.049889,-0.430841,-2.404675,0.738337,-1.545329,0.192433,-0.049868,0.980042,-0.518666,-0.631299,0.729919,11.691864,-9.819656,34.491638,,,,,,
1478385123.40,2.960040,0.117842,-0.399701,-4.204239,1.034149,-0.430076,0.179304,-0.117570,0.976743,-0.542296,-0.218292,1.018633,12.069061,-9.520233,33.894470,,,,,,
1478385123.42,2.998889,0.214725,-0.381114,-5.373123,2.619199,-0.032433,0.138953,-0.213078,0.967104,-0.021491,0.201131,0.798064,11.914520,-10.796066,33.071777,,,,,,
1478385123.44,3.055239,0.332657,-0.370755,-6.183398,2.991767,0.321898,0.081519,-0.326555,0.941656,0.464029,0.150347,0.436930,11.914520,-10.796066,33.071777,,,,,,
1478385123.46,3.105348,0.464083,-0.372759,-6.783015,2.067968,0.535203,0.032404,-0.447603,0.893645,0.662618,0.298220,0.130769,8.741150,-16.422363,31.781921,,,,,,
1478385123.48,-3.139789,0.605404,-0.378379,-7.228057,1.806550,0.140531,-0.001483,-0.569095,0.822271,0.825916,0.507083,0.181926,7.829803,-19.574234,29.907227,,,,,,
1478385123.50,-3.103375,0.752403,-0.366652,-7.272539,2.472884,-1.056484,-0.027894,-0.683395,0.729516,0.739457,0.754898,0.518959,6.766632,-23.326706,27.432861,,,,,,
,,,,,,,,,,,,,,,,37.354156,-122.033454,42.316467,0.480000,195.468750,1478385213.00
1478385123.52,-3.070859,0.895258,-0.336729,-7.152333,2.664910,-1.455336,-0.044194,-0.780370,0.623754,0.433385,0.777151,0.370082,6.231781,-26.479630,24.512024,,,,,,
1478385123.54,-3.057705,1.043001,-0.312494,-7.297399,0.893262,-1.163441,-0.042199,-0.863919,0.501859,0.345254,0.691068,0.360110,6.231781,-26.479630,24.512024,,,,,,
1478385123.56,-3.080857,1.176217,-0.289280,-6.116020,-0.343701,-1.012004,-0.023334,-0.923158,0.383711,0.498645,0.809755,0.726152,5.169617,-31.662048,17.091858,,,,,,
1478385123.58,3.133908,1.293836,-0.215266,-5.769004,0.134435,-1.560322,0.002101,-0.961891,0.273425,0.537999,1.079063,0.664120,6.368805,-33.241226,12.908630,,,,,,
1478385123.60,2.986437,1.397669,-0.062910,-4.990788,0.237184,-0.974259,0.026621,-0.985051,0.170195,0.116003,0.748646,1.013613,7.120911,-34.070129,9.018616,,,,,,
1478385123.62,2.749260,1.478381,0.187374,-3.832864,0.544650,-0.342098,0.035284,-0.995733,0.085272,-0.119894,0.804937,0.940683,8.398895,-34.448257,5.882507,,,,,,
1478385123.64,1.923751,1.517902,1.016487,-3.203041,-0.206643,-1.078143,0.049611,-0.998601,0.018276,-0.202290,0.343572,0.365788,8.398895,-34.448257,5.882507,,,,,,
1478385123.66,1.081702,1.490688,1.848167,-2.415711,-0.747506,-0.774830,0.070641,-0.996793,-0.037597,-0.223519,-0.576327,0.080795,7.725891,-34.750519,3.626709,,,,,,
1478385123.68,0.783580,1.471117,2.139010,-1.160511,-0.018519,0.274276,0.070239,-0.995036,-0.070495,-0.476474,0.155345,0.016418,9.381958,-34.679321,-0.181885,,,,,,
1478385123.70,0.694555,1.469874,2.237366,0.106103,0.647008,0.296474,0.064485,-0.994912,-0.077411,-0.470338,1.024025,-0.187314,9.083405,-34.680298,-1.159912,,,,,,
1478385123.72,0.818380,1.481216,2.146422,1.275086,2.391236,0.069321,0.065310,-0.995990,-0.061138,-0.532183,0.752964,-0.195042,8.931610,-34.904785,-0.635742,,,,,,
1478385123.74,1.385344,1.512707,1.638905,2.892600,3.244342,0.765751,0.057061,-0.998313,-0.010705,-0.763604,0.906074,-0.276465,8.931610,-34.904785,-0.635742,,,,,,
1478385123.76,2.925757,1.431055,0.142780,10.736021,2.410192,1.648934,0.029830,-0.990252,0.136055,-0.394286,1.385775,0.705986,7.949860,-35.802979,1.157166,,,,,,
1478385123.78,-3.053729,1.289495,-0.110646,5.383780,-1.469366,1.570188,-0.024360,-0.960695,0.276535,-0.897927,-3.316588,-1.505203,6.441742,-34.217804,11.337341,,,,,,
1478385123.80,-3.053915,1.208779,-0.092432,3.411963,2.072410,0.047588,-0.031012,-0.935184,0.352801,-0.155618,-1.455273,1.206540,5.614532,-33.539291,14.851990,,,,,,
1478385123.82,-2.986969,1.109765,-0.139711,7.330630,-0.378281,2.878983,-0.068514,-0.895594,0.439565,0.333483,0.293421,0.669719,4.715240,-32.486603,17.539856,,,,,,
1478385123.84,-2.947335,0.986940,-0.142777,3.861544,2.528151,-0.353172,-0.106411,-0.834343,0.540877,1.541287,-2.063453,-0.224456,4.715240,-32.486603,17.539856,,,,,,
1478385123.86,-2.982655,0.922441,-0.132442,3.167711,-3.112715,1.368427,-0.095575,-0.797078,0.596265,0.488550,-0.725917,0.442721,3.142212,-30.757721,21.418945,,,,,,
1478385123.88,-2.975573,0.861607,-0.247292,2.156770,-3.487678,5.401093,-0.107619,-0.758890,0.642265,0.330870,0.497766,0.370476,2.548309,-28.505035,24.106262,,,,,,
1478385123.90,-2.929793,0.809750,-0.346137,1.701228,-1.063565,1.765786,-0.144984,-0.724115,0.674268,-0.107168,1.939248,0.739947,2.178497,-26.477417,26.721436,,,,,,
1478385123.92,-2.972973,0.785047,-0.305957,1.879904,0.083246,-2.243743,-0.118710,-0.706858,0.697323,-0.417408,1.205378,1.190571,1.805206,-25.876755,27.390930,,,,,,
1478385123.94,-2.989485,0.727195,-0.236559,3.853548,2.105095,-1.636431,-0.113193,-0.664777,0.738417,-0.698041,-0.114764,1.298784,1.805206,-25.876755,27.390930,,,,,,
1478385123.96,-2.969255,0.646342,-0.203552,4.095730,1.825756,0.092997,-0.136896,-0.602270,0.786467,-0.501425,-0.755060,0.122164,2.859924,-24.450623,28.522217,,,,,,
1478385123.98,-2.934516,0.630879,-0.238007,-1.048796,0.248067,2.101163,-0.166024,-0.589854,0.790258,-0.536048,-1.168553,-0.294927,2.191467,-22.423904,30.234375,,,,,,
1478385124.00,-2.935207,0.637464,-0.297471,-0.501159,-2.952825,2.323021,-0.164678,-0.595159,0.786554,-0.347468,-0.324625,0.320899,0.094879,-21.297806,31.335083,,,,,,
1478385124.02,-2.964511,0.617354,-0.347739,1.417276,-2.438003,1.943143,-0.143642,-0.578880,0.802661,0.046519,-0.208565,0.789288,1.745087,-21.373169,30.976807,,,,,,
1478385124.04,-2.979616,0.566165,-0.359489,3.000365,-0.363116,0.147039,-0.136105,-0.536399,0.832917,0.244061,-0.462304,0.293288,1.745087,-21.373169,30.976807,,,,,,
1478385124.06,-2.970045,0.524489,-0.318895,0.976535,2.071502,-2.209929,-0.147761,-0.500770,0.852875,0.538768,-1.381294,-1.138077,2.197449,-20.622482,31.654053,,,,,,
1478385124.08,-2.980720,0.494192,-0.269761,2.917418,-0.392447,-1.209014,-0.141015,-0.474321,0.868985,0.917107,-1.537047,-1.174313,1.754303,-18.746445,32.694031,,,,,,
1478385124.10,-3.024369,0.436845,-0.277730,3.023436,-3.857420,2.231575,-0.105972,-0.423083,0.899873,1.778793,-1.338956,-2.168229,1.455933,-18.070480,33.664001,,,,,,
1478385124.12,-3.098032,0.367975,-0.341423,3.446600,-5.470114,3.145649,-0.040632,-0.359727,0.932173,0.952314,-0.467071,-1.149198,4.246979,-14.244720,34.430420,,,,,,
1478385124.14,3.093609,0.284965,-0.398793,4.549774,-5.049694,2.353819,0.046031,-0.281124,0.958567,-0.123073,-0.192676,-0.131113,4.246979,-14.244720,34.430420,,,,,,
1478385124.16,3.024905,0.186980,-0.425648,5.134984,-3.111882,-0.242509,0.114393,-0.185892,0.975888,-0.943861,-0.081762,-0.294172,7.555847,-12.144302,34.832214,,,,,,
1478385124.18,2.984765,0.089197,-0.420188,4.643192,-1.510955,-0.780651,0.155564,-0.089079,0.983801,-1.215898,-1.059878,-0.686865,10.043274,-9.294067,35.073547,,,,,,
1478385124.20,2.962044,-0.001072,-0.445217,4.492496,-1.083499,1.191502,0.178585,0.001072,0.983924,-0.927364,-0.780094,-0.866248,11.108704,-5.768768,35.373657,,,,,,
1478385124.22,2.933596,-0.066161,-0.480438,2.813695,-1.664369,0.702988,0.206048,0.066113,0.976306,-0.564523,-0.538144,-0.772433,13.983551,-0.369125,35.011230,,,,,,
1478385124.24,2.895354,-0.103923,-0.480901,1.282733,-1.743298,-0.958084,0.242442,0.103737,0.964604,-0.740657,-0.813896,0.452343,13.983551,-0.369125,35.011230,,,,,,
1478385124.26,2.889693,-0.122493,-0.454243,0.230996,0.587379,-1.780461,0.247377,0.122187,0.961184,-0.726030,-0.536692,0.693708,14.739990,0.905411,34.564941,,,,,,
1478385124.28,2.930790,-0.103525,-0.410434,-2.487072,1.995699,-1.936237,0.208124,0.103340,0.972628,-0.866007,-0.856942,0.420164,15.716766,1.205124,34.273804,,,,,,
1478385124.30,2.976240,-0.033799,-0.367579,-4.578695,2.260536,-1.000004,0.164506,0.033792,0.985797,-1.061417,-0.737314,0.916074,14.062134,0.305496,34.634949,,,,,,
1478385124.32,3.029447,0.081355,-0.342893,-6.578306,2.966232,-0.258988,0.111540,-0.081265,0.990432,-0.608351,-0.066242,0.559694,11.336456,-5.544891,34.250244,,,,,,
1478385124.34,3.096137,0.228429,-0.327481,-7.838504,3.671506,-0.140645,0.044260,-0.226447,0.973017,-0.080286,0.087592,0.366414,11.336456,-5.544891,34.250244,,,,,,
1478385124.36,-3.111059,0.396687,-0.323130,-8.715235,3.986911,-0.173356,-0.028158,-0.386364,0.921916,0.044805,0.388027,0.349400,8.843658,-9.971329,32.813538,,,,,,
1478385124.38,-3.026763,0.580018,-0.331575,-9.473699,3.880094,-0.391859,-0.095838,-0.548039,0.830944,0.147321,0.707005,0.624821,5.900757,-14.472916,31.222717,,,,,,
1478385124.40,-2.943924,0.774558,-0.363188,-10.004696,2.489080,-0.185061,-0.140362,-0.699400,0.700812,0.226849,0.925352,0.528802,3.935364,-18.976151,27.991516,,,,,,
1478385124.42,-2.882851,0.973574,-0.450345,-10.470999,-2.356670,0.851057,-0.143885,-0.826901,0.543629,0.290476,1.013028,0.086422,2.047058,-23.330353,23.785645,,,,,,
1478385124.44,-2.823734,1.147315,-0.613831,-8.373117,-4.582025,1.231080,-0.128432,-0.911664,0.390352,0.594008,1.079373,1.375960,2.047058,-23.330353,23.785645,,,,,,
1478385124.46,-2.751881,1.282050,-0.743424,-7.064216,-0.672911,-1.114966,-0.108183,-0.958602,0.263400,0.611296,1.017958,1.350461,1.956818,-30.165680,13.455261,,,,,,
1478385124.48,-2.634017,1.419350,-0.845572,-6.134404,1.825441,-2.186651,-0.073331,-0.988554,0.131847,-0.571078,0.212278,1.375797,1.657654,-31.445114,9.031128,,,,,,
1478385124.50,-2.126613,1.527880,-1.305219,-4.968540,2.521562,-1.805555,-0.036445,-0.999079,0.022637,-0.980950,0.450037,0.710959,3.162170,-31.824219,4.922363,,,,,,
,,,,,,,,,,,,,,,,37.354155,-122.033452,42.695618,0.530000,350.507812,1478385214.00
1478385124.52,-0.267200,1.511495,-3.105667,-3.101769,3.701737,-0.428275,-0.015648,-0.998242,-0.057163,0.239357,0.671292,0.704899,4.367035,-31.752289,1.859192,,,,,,
1478385124.54,-0.203903,1.477181,-3.090319,-0.897349,3.526503,0.828338,-0.018929,-0.995621,-0.091542,0.956246,1.076279,-0.154490,4.367035,-31.752289,1.859192,,,,,,
1478385124.56,-0.303481,1.476363,-2.949551,0.743639,0.972923,0.584841,-0.028179,-0.995544,-0.089984,0.921383,0.683075,-0.585004,3.544861,-31.904617,-0.473633,,,,,,
1478385124.58,-0.821518,1.499568,-2.441723,2.769345,-1.132352,1.391370,-0.052108,-0.997464,-0.048473,0.010375,1.183713,-0.058445,3.770874,-31.453934,0.202271,,,,,,
1478385124.60,-2.005749,1.493497,-1.280482,6.303051,-1.846711,0.696804,-0.070033,-0.997014,0.032539,-0.363531,1.085393,0.546379,3.170471,-30.851852,2.294495,,,,,,
1478385124.62,-2.708541,1.344986,-0.562926,7.420527,3.561974,1.736107,-0.093956,-0.974613,0.203228,-2.090950,0.463260,5.015934,2.791107,-30.698471,5.665222,,,,,,
1478385124.64,-2.682165,1.219493,-0.533039,3.501122,2.514806,2.127066,-0.152596,-0.938925,0.308439,-0.572563,-1.247095,0.099475,2.791107,-30.698471,5.665222,,,,,,
1478385124.66,-2.787514,1.134127,-0.370479,5.749749,6.218633,-4.025767,-0.146639,-0.906165,0.396688,0.632219,-6.702554,0.772593,-3.597961,-31.290894,13.253113,,,,,,
1478385124.68,-2.896647,1.049196,-0.119611,5.159436,4.702389,-1.779799,-0.120832,-0.867023,0.483395,2.129056,-2.274334,1.281574,-0.733002,-27.013016,16.118958,,,,,,
1478385124.70,-2.788445,0.941618,-0.260877,3.999662,-4.978799,9.167455,-0.203528,-0.808511,0.552165,1.179617,0.978265,-2.063197,-0.651230,-24.685562,18.587769,,,,,,
1478385124.72,-2.656392,0.814929,-0.528994,2.398576,-1.936547,8.679426,-0.319903,-0.727677,0.606752,0.538607,2.977937,1.609663,-3.044098,-22.433548,20.582092,,,,,,
1478385124.74,-2.789409,0.744794,-0.496899,3.405990,-5.884304,-3.368663,-0.253615,-0.677821,0.690100,0.210372,2.024088,1.009866,-3.044098,-22.433548,20.582092,,,,,,
1478385124.76,-2.928893,0.730869,-0.345365,1.390056,1.129212,-5.465148,-0.157184,-0.667517,0.727815,0.285510,0.145941,1.441314,-6.715881,-21.081650,22.491333,,,,,,
1478385124.78,-2.908872,0.699546,-0.228555,4.267524,5.282115,-2.816126,-0.176460,-0.643871,0.744508,-0.289101,-1.389363,1.185301,-0.780243,-18.079727,24.416687,,,,,,
1478385124.80,-2.891704,0.600261,-0.185174,3.836520,-0.863820,1.116175,-0.204066,-0.564858,0.799558,-0.992376,-2.070060,-1.777204,-2.199142,-16.353622,25.522278,,,,,,
1478385124.82,-2.898272,0.558270,-0.239628,2.232528,-2.294608,3.150136,-0.204347,-0.529720,0.823189,-0.386595,-1.371220,0.254311,-2.792374,-14.477509,26.635742,,,,,,
1478385124.84,-2.925290,0.481064,-0.296272,3.494348,-2.437685,3.195742,-0.190261,-0.462723,0.865846,0.375564,-0.722015,-0.242631,-2.792374,-14.477509,26.635742,,,,,,
1478385124.86,-2.950961,0.424857,-0.338939,1.462821,-2.328215,2.007629,-0.172634,-0.412191,0.894593,0.637371,-0.427165,-0.506516,-3.160706,-12.826981,27.152100,,,,,,
1478385124.88,-2.974738,0.384537,-0.373086,2.525734,-1.506008,2.170954,-0.153953,-0.375130,0.914099,1.340080,-0.532921,-0.330313,-2.326813,-10.500931,28.203430,,,,,,
1478385124.90,-2.990553,0.317719,-0.408683,3.258420,-1.630900,1.760542,-0.142935,-0.312401,0.939135,1.001822,-0.024696,-0.749743,-0.741592,-7.950104,29.036621,,,,,,
1478385124.92,-3.041300,0.243930,-0.420786,3.679165,-3.100665,0.706972,-0.097161,-0.241518,0.965520,0.208092,-0.664930,-0.811620,-0.659622,-6.074142,30.006897,,,,,,
1478385124.94,-3.091618,0.180830,-0.425322,2.617497,-2.071346,0.376746,-0.049139,-0.179846,0.982467,-0.251352,-1.302729,-0.950744,-0.659622,-6.074142,30.006897,,,,,,
1478385124.96,-3.127021,0.136492,-0.424427,2.178359,-1.652990,-0.285289,-0.014435,-0.136068,0.990594,-0.692672,-0.780420,-0.597696,1.602203,-3.449127,30.021606,,,,,,
1478385124.98,3.129786,0.086364,-0.408516,2.581321,-0.725243,-0.910268,0.011762,-0.086257,0.996204,-0.629270,-0.080781,-0.482089,2.960266,-1.649109,30.029785,,,,,,
1478385125.00,3.131810,0.039690,-0.400597,2.262257,0.426870,-0.216385,0.009775,-0.039680,0.999165,-0.307306,-0.394112,-0.830418,3.950470,1.801117,30.254333,,,,,,
1478385125.02,-3.140036,0.019919,-0.390938,0.062086,0.266525,-0.802944,-0.001557,-0.019918,0.999800,-0.198974,-0.752558,-0.458342,2.683594,3.525864,30.011475,,,,,,
1478385125.04,3.131550,0.035402,-0.365929,-1.531208,-0.851729,-1.549208,0.010036,-0.035395,0.999323,-0.137585,-1.177053,-0.020167,2.683594,3.525864,30.011475,,,,,,
1478385125.06,3.101382,0.087023,-0.323096,-3.258373,-1.395686,-2.237500,0.040048,-0.086913,0.995411,-0.324411,-0.440248,0.369625,3.210175,3.976181,30.315430,,,,,,
1478385125.08,3.074355,0.169182,-0.269978,-4.701448,-0.642084,-2.482606,0.066228,-0.168376,0.983495,-0.590962,-0.160908,0.828791,3.431793,3.226181,30.319885,,,,,,
1478385125.10,3.071909,0.271406,-0.217063,-5.751145,1.050823,-1.937017,0.067079,-0.268087,0.961057,-0.720582,0.062703,0.613009,4.250366,1.801193,30.332336,,,,,,
1478385125.12,3.088522,0.398834,-0.180636,-6.855860,1.510597,-0.980367,0.048883,-0.388344,0.920217,-0.627496,0.201042,0.422190,3.323792,-4.048660,30.490601,,,,,,
1478385125.14,3.108304,0.545023,-0.160305,-7.563753,1.298276,-0.399893,0.028461,-0.518437,0.854642,-0.235766,0.153920,0.542529,3.323792,-4.048660,30.490601,,,,,,
1478385125.16,3.119129,0.698465,-0.151503,-7.796615,0.342157,-0.058896,0.017202,-0.643043,0.765637,0.070490,0.222312,0.321888,2.857452,-8.024689,29.447815,,,,,,
1478385125.18,3.099237,0.859750,-0.144300,-8.158505,-1.365937,-0.006530,0.027634,-0.757679,0.652042,0.238387,0.120747,0.528805,2.016144,-12.075958,28.176636,,,,,,
1478385125.20,3.055726,1.019338,-0.127866,-7.868073,-1.202611,0.086309,0.044933,-0.851761,0.522000,0.216267,0.170121,1.144077,1.322998,-16.727829,26.308655,,,,,,
1478385125.22,3.036015,1.172893,-0.110497,-7.565061,0.187163,0.560765,0.040834,-0.921875,0.385329,0.043578,0.348237,1.188814,2.125092,-23.783722,20.412781,,,,,,
1478385125.24,3.043068,1.315310,-0.117734,-6.736564,-0.213136,0.915822,0.024858,-0.967541,0.251490,-0.081789,0.471004,0.848150,2.125092,-23.783722,20.412781,,,,,,
1478385125.26,3.042525,1.442493,-0.121154,-6.025917,-0.128293,0.471759,0.012655,-0.991780,0.127324,-0.148657,0.498143,0.979991,1.743530,-26.412247,16.891907,,,,,,
1478385125.28,2.969351,1.542328,-0.050215,-4.331058,-0.164451,0.399819,0.004879,-0.999595,0.028043,-0.262722,0.541358,0.924349,1.063141,-28.815857,13.292297,,,,,,
1478385125.30,-0.012805,1.533173,2.918696,-2.629401,-1.058346,0.165267,-0.000482,-0.999292,-0.037611,-0.141623,0.550165,0.237501,0.160400,-30.318558,10.587830,,,,,,
1478385125.32,-0.085769,1.499009,2.966171,-1.201144,-1.216264,0.345744,-0.006144,-0.997424,-0.071462,-0.146474,0.368533,0.280248,0.534729,-31.521698,7.445129,,,,,,
1478385125.34,-0.230604,1.489355,3.094829,0.011624,-0.576646,0.627403,-0.018594,-0.996686,-0.079198,-0.188819,0.749676,0.145421,0.534729,-31.521698,7.445129,,,,,,
