timestamp(unix),attitude_roll(radians),attitude_pitch(radians),attitude_yaw(radians),rotation_rate_x(radians/s),rotation_rate_y(radians/s),rotation_rate_z(radians/s),gravity_x(G),gravity_y(G),gravity_z(G),user_acc_x(G),user_acc_y(G),user_acc_z(G),magnetic_field_x(microteslas),magnetic_field_y(microteslas),magnetic_field_z(microteslas),latitude(degree),longitude(degree),altitude(meter),speed(m/s),course(degree),timestamp(unix)
1478385621.46,-1.134043,1.501140,2.650779,0.006183,-0.035173,0.000616,-0.063066,-0.997575,-0.029441,0.029863,0.015565,-0.005990,11.322556,-9.698196,9.250977,,,,,,
,,,,,,,,,,,,,,,,37.354267,-122.033429,39.206116,0.000000,117.773438,1478385711.06
,,,,,,,,,,,,,,,,37.354267,-122.033429,39.206116,0.000000,117.773438,1478385710.00
1478385621.48,-1.127160,1.501804,2.642493,0.007419,-0.086315,0.002509,-0.062264,-0.997621,-0.029590,0.013802,0.015855,-0.008984,11.174240,-9.323212,9.248352,,,,,,
1478385621.50,-1.139164,1.500825,2.653109,0.009471,-0.049718,0.028258,-0.063502,-0.997553,-0.029249,-0.027029,0.006113,0.006818,10.199356,-9.248062,9.388367,,,,,,
,,,,,,,,,,,,,,,,37.354267,-122.033429,39.205383,0.000000,117.773438,1478385711.00
1478385621.52,-1.158441,1.500015,2.672111,0.012470,0.003446,0.011319,-0.064794,-0.997496,-0.028343,-0.015254,0.025694,0.019203,11.099319,-9.248062,9.397339,,,,,,
1478385621.54,-1.168099,1.499553,2.681815,0.005041,-0.002934,0.015564,-0.065489,-0.997463,-0.027897,-0.011599,0.001095,0.002887,11.025009,-9.248505,8.946655,,,,,,
1478385621.56,-1.173644,1.498891,2.687119,0.008266,-0.009261,0.020895,-0.066251,-0.997416,-0.027789,-0.006777,0.018061,0.001116,11.025009,-9.248505,8.946655,,,,,,
1478385621.58,-1.181954,1.498172,2.695290,0.014663,-0.005908,0.031601,-0.067144,-0.997364,-0.027509,-0.008265,0.014790,-0.000491,11.174576,-9.323425,9.023315,,,,,,
1478385621.60,-1.186658,1.498372,2.699997,0.015656,-0.002108,-0.007919,-0.067088,-0.997379,-0.027118,0.014307,0.021716,0.004764,10.574265,-9.323212,9.242371,,,,,,
1478385621.62,-1.185660,1.499768,2.698532,0.010440,-0.040660,-0.017654,-0.065770,-0.997479,-0.026662,0.023427,0.000286,0.004842,11.099228,-9.398422,9.022766,,,,,,
1478385621.64,-1.189820,1.500058,2.701650,0.011584,-0.049806,0.015322,-0.065612,-0.997499,-0.026280,0.001708,0.021715,0.001836,11.323563,-9.473206,9.250305,,,,,,
1478385621.66,-1.199232,1.499939,2.709776,0.006330,-0.093048,-0.029678,-0.065966,-0.997491,-0.025705,-0.009046,0.004006,0.005121,11.323563,-9.473206,9.250305,,,,,,
1478385621.68,-1.204880,1.500319,2.714049,0.014828,-0.055992,0.032406,-0.065757,-0.997517,-0.025196,0.012092,0.013448,0.009129,10.497879,-9.547974,9.467224,,,,,,
1478385621.70,-1.213024,1.499574,2.721303,0.024371,-0.038780,0.041017,-0.066656,-0.997465,-0.024920,-0.000300,0.013013,-0.005704,11.099777,-9.248367,9.097351,,,,,,
1478385621.72,-1.225870,1.498505,2.733589,0.013656,-0.018519,0.043193,-0.067974,-0.997388,-0.024423,-0.016742,-0.003451,0.007272,11.323776,-9.473358,9.100281,,,,,,
1478385621.74,-1.240040,1.497883,2.748020,0.024166,0.021970,0.034776,-0.068900,-0.997343,-0.023658,0.003928,0.031950,0.010749,11.248550,-9.473206,9.249573,,,,,,
1478385621.76,-1.247890,1.497656,2.755962,0.020034,-0.013146,0.044286,-0.069299,-0.997326,-0.023189,0.013833,0.001217,0.000346,11.248550,-9.473206,9.249573,,,,,,
1478385621.78,-1.257277,1.497004,2.764748,0.013725,-0.037689,0.046344,-0.070132,-0.997279,-0.022738,-0.002988,0.009272,0.004641,10.574600,-9.248215,9.242126,,,,,,
1478385621.80,-1.272002,1.495835,2.778937,0.010461,-0.015216,0.047402,-0.071573,-0.997192,-0.022046,-0.010611,0.022140,0.013760,11.474442,-9.398575,8.876587,,,,,,
1478385621.82,-1.283558,1.495214,2.790516,0.012530,0.001802,0.042110,-0.072417,-0.997145,-0.021393,0.008818,0.014647,0.010223,11.173904,-9.473434,9.023743,,,,,,
1478385621.84,-1.292494,1.494662,2.799345,0.021095,-0.013156,0.037810,-0.073134,-0.997103,-0.020896,0.000029,0.012515,0.000571,11.098892,-9.398209,9.247803,,,,,,
1478385621.86,-1.295153,1.493693,2.801290,0.021233,-0.050352,0.050529,-0.074119,-0.997029,-0.020964,0.005943,0.018269,-0.016298,11.098892,-9.398209,9.247803,,,,,,
1478385621.88,-1.300284,1.493263,2.804964,0.032041,-0.093937,0.061109,-0.074639,-0.996996,-0.020698,0.019280,0.007509,-0.010277,11.098770,-9.473358,9.098022,,,,,,
1478385621.90,-1.317063,1.492180,2.819683,0.038498,-0.107632,0.073904,-0.076020,-0.996911,-0.019714,-0.000106,0.009591,0.006317,10.648697,-9.473282,9.168518,,,,,,
1478385621.92,-1.333833,1.491266,2.833999,0.036449,-0.127788,0.084527,-0.077226,-0.996839,-0.018650,0.026201,0.013639,0.000019,11.023453,-9.548355,9.097473,,,,,,
1478385621.94,-1.349489,1.490878,2.847154,0.060971,-0.129715,0.094175,-0.077886,-0.996808,-0.017524,0.023626,0.025602,-0.002603,10.271896,-9.848221,9.240906,,,,,,
1478385621.96,-1.370118,1.489417,2.865664,0.073713,-0.106989,0.111201,-0.079658,-0.996691,-0.016204,0.013191,-0.003874,-0.012651,10.271896,-9.848221,9.240906,,,,,,
1478385621.98,-1.391523,1.486918,2.885555,0.074635,-0.055558,0.128440,-0.082438,-0.996484,-0.014939,-0.017004,-0.005683,-0.007125,11.322769,-9.698349,9.100952,,,,,,
1478385622.00,-1.418367,1.484037,2.912364,0.094606,0.026661,0.126567,-0.085646,-0.996239,-0.013157,-0.035082,0.025948,0.006733,11.096939,-9.848282,9.174133,,,,,,
1478385622.02,-1.444302,1.481778,2.938828,0.098968,-0.003164,0.129698,-0.088191,-0.996040,-0.011216,0.024516,0.007958,0.000443,11.098221,-9.548203,9.248291,,,,,,
1478385622.04,-1.467515,1.479647,2.960792,0.096131,-0.105403,0.147573,-0.090538,-0.995849,-0.009384,0.022759,0.006759,-0.009094,10.420639,-9.997833,9.617859,,,,,,
1478385622.06,-1.493208,1.476815,2.983432,0.079333,-0.181233,0.147335,-0.093560,-0.995587,-0.007274,0.015527,0.006970,0.026210,10.420639,-9.997833,9.617859,,,,,,
1478385622.08,-1.521494,1.473973,3.008773,0.077995,-0.102423,0.134729,-0.096555,-0.995316,-0.004764,-0.011843,0.024522,0.039234,10.871750,-9.923355,9.097107,,,,,,
1478385622.10,-1.541283,1.471161,3.027092,0.087609,-0.095601,0.166818,-0.099427,-0.995041,-0.002935,0.020615,0.028106,-0.011973,11.248550,-9.548416,9.024719,,,,,,
1478385622.12,-1.572338,1.466360,3.053847,0.205867,-0.341582,0.345680,-0.104247,-0.994551,0.000161,0.025801,-0.007936,-0.034142,9.971085,-9.922913,9.538086,,,,,,
1478385622.14,-1.635545,1.456672,3.106190,0.365919,-0.662103,0.530982,-0.113638,-0.993495,0.007368,0.075125,-0.084767,-0.061354,9.972641,-9.773514,8.937683,,,,,,
1478385622.16,-1.713468,1.443576,-3.114110,0.483969,-0.859427,0.680224,-0.125588,-0.991918,0.018040,0.068505,-0.215723,0.019313,9.972641,-9.773514,8.937683,,,,,,
1478385622.18,-1.790725,1.424670,-3.056288,0.616038,-1.046577,0.962002,-0.142099,-0.989343,0.031765,0.175333,-0.062736,0.124378,10.495743,-10.148361,9.093994,,,,,,
1478385622.20,-1.874381,1.400054,-2.995054,0.874806,-1.272109,1.117821,-0.162144,-0.985459,0.050795,0.191456,0.036911,0.200350,9.140457,-11.197998,9.458618,,,,,,
1478385622.22,-1.972635,1.370278,-2.932417,1.241828,-2.345294,1.298208,-0.183312,-0.979963,0.077901,0.264000,-0.087740,0.141902,8.237564,-11.722626,9.826172,,,,,,
1478385622.24,-2.088935,1.331986,-2.859026,1.771864,-1.874920,1.292945,-0.205498,-0.971620,0.117153,-0.001930,0.161729,0.763035,9.064102,-11.497986,9.458740,,,,,,
1478385622.26,-2.186007,1.289857,-2.777586,2.129093,-0.394720,1.191864,-0.226423,-0.960796,0.160014,-0.269411,-0.016316,0.549153,9.064102,-11.497986,9.458740,,,,,,
1478385622.28,-2.254470,1.246580,-2.705430,2.143908,0.172220,0.937933,-0.246971,-0.947901,0.201221,0.034721,0.066171,0.210675,8.764938,-11.272858,9.605103,,,,,,
1478385622.30,-2.307536,1.212640,-2.640258,1.781513,0.616391,0.358371,-0.259638,-0.936545,0.235525,0.093134,0.301138,-0.024771,9.290787,-10.897324,10.134216,,,,,,
1478385622.32,-2.339101,1.193251,-2.585113,1.139904,1.131946,-0.143485,-0.265085,-0.929572,0.256174,0.003519,0.426338,-0.336405,8.317520,-10.146210,11.247192,,,,,,
1478385622.34,-2.362210,1.189164,-2.544293,0.400392,0.345240,-0.558278,-0.261763,-0.928058,0.264931,0.308211,0.581287,-0.611703,8.843094,-9.920898,11.551819,,,,,,
1478385622.36,-2.400085,1.199271,-2.508926,-0.122589,-0.191818,-0.955982,-0.245196,-0.931775,0.267722,0.166323,0.690411,-0.231025,8.843094,-9.920898,11.551819,,,,,,
1478385622.38,-2.410749,1.216350,-2.480324,-0.245220,1.245187,-0.771679,-0.231669,-0.937839,0.258433,-1.330159,0.207004,0.037221,8.544144,-9.695908,11.548157,,,,,,
1478385622.40,-2.391081,1.212428,-2.482763,0.297600,0.506584,0.829867,-0.239213,-0.936471,0.256515,-0.443541,-0.833534,0.259843,9.070450,-9.320679,11.777283,,,,,,
1478385622.42,-2.378836,1.209204,-2.509878,-0.147993,-2.084156,0.003554,-0.244422,-0.935335,0.255748,1.621650,-2.421034,-2.065395,8.844009,-9.470154,12.300476,,,,,,
1478385622.44,-2.439712,1.204605,-2.520608,0.240604,-3.713938,0.570284,-0.231184,-0.933698,0.273427,0.164732,1.511762,0.186519,8.992813,-9.920746,11.703308,,,,,,
1478385622.46,-2.456866,1.186727,-2.537375,0.662180,0.052148,0.728820,-0.236981,-0.927148,0.290237,-0.871631,-0.104026,0.574464,8.992813,-9.920746,11.703308,,,,,,
1478385622.48,-2.444551,1.172246,-2.525141,0.681790,1.288580,0.158512,-0.249130,-0.921625,0.297560,0.083053,-0.159933,0.208940,9.819443,-9.620895,11.560669,,,,,,
,,,,,,,,,,,,,,,,37.354267,-122.033429,39.166687,0.000000,117.773438,1478385712.00
1478385622.50,-2.438242,1.155319,-2.522675,0.677004,-0.267344,0.688435,-0.261056,-0.914924,0.307838,0.545999,0.198737,-0.274070,8.618332,-9.695374,12.073853,,,,,,
1478385622.52,-2.447971,1.136157,-2.529991,0.629249,-0.939868,0.771976,-0.269210,-0.907022,0.323786,0.238433,-0.163321,-0.065302,8.617172,-9.920303,12.149536,,,,,,
1478385622.54,-2.444171,1.112961,-2.541813,0.818954,0.146145,1.044536,-0.283877,-0.897011,0.338799,-0.320860,-0.023918,0.116294,8.692764,-9.695007,12.449646,,,,,,
1478385622.56,-2.419286,1.082529,-2.555190,1.038928,0.784494,1.351174,-0.310128,-0.883147,0.351955,0.113274,-0.094255,-0.118984,8.692764,-9.695007,12.449646,,,,,,
1478385622.58,-2.400662,1.045438,-2.573087,1.041869,-0.652955,1.613263,-0.338516,-0.865144,0.370044,0.807876,0.019273,-0.435901,8.389847,-10.144409,13.047974,,,,,,
1478385622.60,-2.413555,1.012514,-2.586303,1.026378,-0.987410,1.223410,-0.352486,-0.848166,0.395434,-0.167259,0.302298,0.161589,6.962692,-10.368668,13.784424,,,,,,
1478385622.62,-2.401824,0.976764,-2.595340,1.241593,0.780806,1.514986,-0.377308,-0.828691,0.413413,-0.604229,-0.305266,0.118295,7.338821,-10.218979,13.487671,,,,,,
1478385622.64,-2.377201,0.935207,-2.604094,1.435737,0.789131,1.704457,-0.410865,-0.804722,0.428500,-0.038353,-0.518292,-0.165576,6.362045,-10.292999,14.453125,,,,,,
1478385622.66,-2.345594,0.881809,-2.618527,1.669560,1.324382,2.487353,-0.454288,-0.771890,0.444757,-0.185971,-1.030875,-0.645196,6.362045,-10.292999,14.453125,,,,,,
1478385622.68,-2.339416,0.831366,-2.637263,1.058246,-1.741972,1.649827,-0.484424,-0.738853,0.468434,0.938235,1.156348,-0.168477,4.786850,-10.067200,15.261719,,,,,,
1478385622.70,-2.352043,0.804430,-2.634926,0.997472,0.824713,0.800976,-0.492425,-0.720436,0.488354,-0.831458,1.587425,1.004932,4.410614,-10.216827,15.633423,,,,,,
1478385622.72,-2.321752,0.777043,-2.634157,0.878869,1.313217,0.907887,-0.521222,-0.701174,0.486500,0.497312,-0.408048,0.560863,4.560959,-10.141815,15.634705,,,,,,
1478385622.74,-2.317596,0.764253,-2.627529,0.453544,0.325713,0.022982,-0.529778,-0.691998,0.490382,0.211189,0.247739,0.212698,4.112106,-9.691223,16.228821,,,,,,
1478385622.76,-2.302117,0.764057,-2.625986,-0.255247,1.068182,-0.043519,-0.537406,-0.691856,0.482213,-1.278222,0.480766,0.268778,4.112106,-9.691223,16.228821,,,,,,
1478385622.78,-2.274715,0.777859,-2.638127,-1.068449,0.695979,-0.396400,-0.543084,-0.701756,0.461084,-0.340491,-0.268230,0.437659,2.611221,-9.615417,17.038635,,,,,,
1478385622.80,-2.252387,0.807367,-2.656048,-1.603731,0.602238,-0.929664,-0.536924,-0.722469,0.435604,-0.294894,-1.113652,0.706257,3.362793,-9.466003,16.445618,,,,,,
1478385622.82,-2.211534,0.844391,-2.679302,-1.816312,1.439096,-0.932005,-0.532449,-0.747567,0.397042,-0.678672,-1.332816,0.451759,3.361771,-9.916687,15.771973,,,,,,
1478385622.84,-2.156258,0.880566,-2.708240,-1.786928,1.879309,-0.983096,-0.530675,-0.771099,0.351839,-0.023998,-1.954166,0.060728,4.188446,-9.842575,14.880066,,,,,,
1478385622.86,-2.095003,0.913250,-2.739370,-1.678244,1.656345,-0.744193,-0.529109,-0.791494,0.305910,0.256236,-1.932825,-0.580477,4.188446,-9.842575,14.880066,,,,,,
1478385622.88,-2.036109,0.940539,-2.778345,-1.590224,1.150499,-0.685600,-0.526693,-0.807876,0.264443,1.524771,-1.104462,-0.704156,4.564453,-9.993698,13.759277,,,,,,
1478385622.90,-2.020479,0.962853,-2.810300,-1.072846,-1.815290,-0.247326,-0.514396,-0.820825,0.248281,2.468894,0.011163,-0.542272,4.037415,-10.669373,13.080994,,,,,,
1478385622.92,-2.047041,0.928516,-2.851095,0.482802,-3.267272,3.847717,-0.532366,-0.800732,0.274619,1.217501,-0.169910,0.878991,4.414429,-10.369827,12.633911,,,,,,
1478385622.94,-2.092258,0.813780,-2.884543,2.523998,-3.701688,5.790328,-0.595481,-0.726888,0.342106,0.599051,-0.555644,0.011532,3.964218,-10.444901,12.554626,,,,,,
1478385622.96,-2.170834,0.683530,-2.882392,4.021972,-3.879407,5.542434,-0.639906,-0.631534,0.437819,0.884153,-1.781170,0.757799,3.964218,-10.444901,12.554626,,,,,,
1478385622.98,-2.252962,0.534380,-2.885528,4.455085,-4.394474,6.239450,-0.667994,-0.509308,0.542577,0.582697,-2.338272,0.444178,3.966019,-10.069977,12.478516,,,,,,
1478385623.00,-2.324568,0.387224,-2.890625,4.900331,-2.911429,5.188703,-0.675130,-0.377619,0.633722,-0.316356,-1.288854,0.962988,4.427048,-6.993103,14.348877,,,,,,
1478385623.02,-2.347815,0.252823,-2.876861,5.080139,0.202701,3.998813,-0.690340,-0.250138,0.678867,-1.036863,-2.094634,1.293270,4.056244,-5.566620,15.840881,,,,,,
1478385623.04,-2.317994,0.130593,-2.867197,4.226070,2.224179,4.296704,-0.727350,-0.130222,0.673799,-0.986777,-2.283642,0.684935,1.430832,-4.964539,17.912781,,,,,,
1478385623.06,-2.270024,0.018644,-2.872187,3.032051,2.136534,4.211049,-0.765207,-0.018643,0.643515,-0.205787,-1.188174,-0.053137,1.430832,-4.964539,17.912781,,,,,,
1478385623.08,-2.255379,-0.060841,-2.884027,1.477269,-0.275077,2.915329,-0.773250,0.060804,0.631180,0.183345,-0.364942,-0.561539,-1.192535,-4.363831,18.634766,,,,,,
1478385623.10,-2.298522,-0.097466,-2.904088,-0.227681,-3.050705,1.565995,-0.743145,0.097312,0.662017,0.595577,0.130120,-0.790846,-6.222977,-5.262894,19.562195,,,,,,
1478385623.12,-2.366361,-0.090469,-2.933011,-1.931029,-3.033542,0.230756,-0.697019,0.090346,0.711338,0.140684,0.566698,-0.645206,-7.127792,-6.087158,20.305664,,,,,,
1478385623.14,-2.405071,-0.038423,-2.965740,-3.670963,-0.911563,-1.052814,-0.671220,0.038414,0.740263,-0.077392,0.969551,-0.625562,-7.135208,-7.812378,20.085693,,,,,,
1478385623.16,-2.401196,0.056465,-2.997956,-5.137757,0.617976,-2.616397,-0.673506,-0.056435,0.737025,0.619077,1.143258,-0.948191,-7.135208,-7.812378,20.085693,,,,,,
1478385623.18,-2.381162,0.193905,-3.023928,-6.310105,0.915305,-4.425389,-0.676317,-0.192692,0.710961,1.131914,0.766209,-1.017510,-6.919464,-9.987732,19.719360,,,,,,
1478385623.20,-2.353164,0.362922,-3.041806,-6.743059,1.436265,-5.700405,-0.663048,-0.355007,0.659042,1.101403,0.633801,-0.790359,-6.853043,-12.464447,18.002441,,,,,,
1478385623.22,-2.304364,0.541273,-3.049123,-6.024602,2.847716,-6.576721,-0.636611,-0.515227,0.573818,1.065994,0.695785,-0.474300,-5.672455,-18.243851,13.606689,,,,,,
1478385623.24,-2.251221,0.712032,-3.034280,-4.561603,2.899360,-6.919372,-0.588448,-0.653373,0.476269,1.004845,1.198051,-0.723522,-3.051559,-20.196960,10.488708,,,,,,
1478385623.26,-2.239169,0.860317,-3.007053,-3.523168,0.470086,-5.949846,-0.511865,-0.758049,0.404173,0.855691,1.453270,-0.905012,-3.051559,-20.196960,10.488708,,,,,,
1478385623.28,-2.287296,0.979005,-2.979210,-2.875388,-1.934187,-4.730922,-0.420679,-0.829943,0.366366,-0.034048,1.788820,-0.376620,-1.104980,-21.473526,8.936951,,,,,,
1478385623.30,-2.356452,1.071607,-2.926157,-1.630421,-0.543169,-4.089218,-0.338415,-0.877971,0.338589,-0.998911,2.243571,0.561130,1.145096,-22.000153,7.311096,,,,,,
1478385623.32,-2.440513,1.133452,-2.829102,-0.386863,0.610555,-3.480222,-0.273198,-0.905880,0.323643,-1.362376,2.332073,0.849788,5.426651,-21.026596,5.851013,,,,,,
1478385623.34,-2.521281,1.168442,-2.695681,0.639174,3.021822,-3.119225,-0.227624,-0.920142,0.318632,-1.670264,1.653204,1.304552,6.853989,-20.576813,5.638855,,,,,,
1478385623.36,-2.583553,1.185155,-2.537722,1.123472,4.604541,-2.807391,-0.199182,-0.926557,0.319089,-2.028570,1.065351,1.061801,6.853989,-20.576813,5.638855,,,,,,
1478385623.38,-2.622108,1.182918,-2.412127,1.418664,2.965920,-1.344442,-0.187764,-0.925713,0.328328,-1.966671,0.516991,0.453364,7.833267,-19.376068,6.395081,,,,,,
1478385623.40,-2.644359,1.162469,-2.371208,1.046591,-0.369230,0.430002,-0.189403,-0.917786,0.348992,-1.440907,0.738984,0.222160,8.509171,-18.699631,7.824829,,,,,,
1478385623.42,-2.666127,1.131801,-2.392946,0.674500,-0.738435,1.528814,-0.194559,-0.905179,0.377886,-1.069205,1.770902,1.647306,9.113327,-17.574020,8.427490,,,,,,
1478385623.44,-2.665464,1.087841,-2.420106,1.920133,-1.251095,0.656670,-0.212854,-0.885626,0.412747,-0.030387,-4.682580,1.067676,9.332657,-18.472977,9.482361,,,,,,
1478385623.46,-2.615488,1.082380,-2.434281,0.163259,-2.023759,1.644052,-0.235631,-0.883077,0.405774,-0.468577,-0.758738,-3.414853,9.332657,-18.472977,9.482361,,,,,,
1478385623.48,-2.600275,1.034157,-2.512561,1.376182,-2.190743,3.096620,-0.263430,-0.859431,0.438158,0.504855,4.016841,-0.044176,5.646713,-20.496735,10.726624,,,,,,
,,,,,,,,,,,,,,,,37.354267,-122.033429,39.180176,0.000000,117.773438,1478385713.00
1478385623.50,-2.604289,0.992966,-2.520590,1.709317,1.434546,0.164737,-0.279561,-0.837650,0.469243,0.763051,-0.839901,1.382091,3.241928,-21.471451,11.005432,,,,,,
1478385623.52,-2.600997,0.967448,-2.495343,1.280278,0.537656,0.522651,-0.292012,-0.823440,0.486492,-1.799434,-0.731598,-0.829235,5.346603,-20.346207,11.248108,,,,,,
1478385623.54,-2.568869,0.929482,-2.509129,1.420062,1.168724,1.316331,-0.324205,-0.801310,0.502786,0.141954,0.353755,0.073173,4.067719,-20.719727,12.736450,,,,,,
1478385623.56,-2.567386,0.906491,-2.495600,1.014031,0.233942,-0.073759,-0.334870,-0.787345,0.517639,0.324189,-0.010384,0.247086,4.067719,-20.719727,12.736450,,,,,,
1478385623.58,-2.562774,0.894210,-2.492687,0.200144,0.497827,0.473651,-0.342518,-0.779715,0.524144,-1.129742,-0.301233,0.514125,2.791275,-20.643524,13.923462,,,,,,
1478385623.60,-2.531580,0.900467,-2.498592,-0.642004,1.849846,-0.513454,-0.355897,-0.783617,0.509197,-0.397430,-0.291929,1.113026,2.792847,-20.268448,13.997375,,,,,,
1478385623.62,-2.494816,0.928976,-2.499447,-1.517295,1.605269,-0.793439,-0.360760,-0.801007,0.477745,-0.877750,-1.065723,0.637566,3.244080,-20.118835,13.626465,,,,,,
1478385623.64,-2.447553,0.966187,-2.517258,-1.883510,1.867684,-0.776259,-0.363602,-0.822724,0.436943,-0.515457,-2.480392,0.243004,2.870987,-19.894424,13.022034,,,,,,
1478385623.66,-2.384416,1.006715,-2.536575,-1.858059,2.385191,-1.144466,-0.367229,-0.845080,0.388564,0.676983,-2.772641,-0.446807,2.870987,-19.894424,13.022034,,,,,,
1478385623.68,-2.342819,1.053628,-2.539331,-1.558975,1.784064,-1.891358,-0.354253,-0.869222,0.344901,2.445653,-2.031885,-0.929984,2.648010,-19.895782,11.669800,,,,,,
1478385623.70,-2.359973,1.084276,-2.528199,0.016468,-1.812749,0.149654,-0.329358,-0.883965,0.331856,2.598416,-0.440955,0.207786,3.402496,-19.447433,10.026062,,,,,,
1478385623.72,-2.342008,0.984586,-2.607806,2.624115,-3.237382,7.452938,-0.396687,-0.833043,0.385588,0.426533,-0.306377,0.250062,4.232788,-18.548248,9.206604,,,,,,
1478385623.74,-2.366049,0.819018,-2.677617,4.962502,-3.320379,6.654393,-0.478129,-0.730475,0.487646,0.683955,-1.719018,0.225077,1.456024,-18.772751,9.704468,,,,,,
1478385623.76,-2.377152,0.648473,-2.692402,6.142833,0.197941,6.470603,-0.551635,-0.603970,0.575255,0.186050,-2.198520,0.601899,1.456024,-18.772751,9.704468,,,,,,
1478385623.78,-2.347232,0.463453,-2.700558,6.434130,1.807995,6.719139,-0.638160,-0.447040,0.626823,-0.441079,-2.769589,0.262703,-1.901657,-13.518524,13.930176,,,,,,
1478385623.80,-2.296476,0.288042,-2.698010,5.885234,2.949812,6.177499,-0.717230,-0.284075,0.636303,-0.135416,-3.352170,0.269672,-5.413788,-10.066772,15.684692,,,,,,
1478385623.82,-2.249223,0.126729,-2.710692,3.765625,1.526090,6.821633,-0.772318,-0.126390,0.622536,0.410196,-2.495742,-0.418892,-9.378113,-7.140091,17.361267,,,,,,
1478385623.84,-2.245191,-0.006363,-2.748876,1.974057,-0.966765,5.855420,-0.781069,0.006363,0.624412,1.028506,-1.809479,-0.834694,-12.516479,-4.214081,18.371094,,,,,,
1478385623.86,-2.290612,-0.086308,-2.792438,0.218391,-2.332050,3.598513,-0.749129,0.086201,0.656792,0.710768,-0.547092,-0.602013,-12.516479,-4.214081,18.371094,,,,,,
1478385623.88,-2.330571,-0.105302,-2.838124,-1.837504,-1.385295,1.492749,-0.720976,0.105107,0.684943,0.710600,0.155086,-0.205725,-14.759903,-2.112167,20.292419,,,,,,
1478385623.90,-2.349109,-0.063933,-2.887782,-4.021893,-0.210027,-0.560258,-0.710644,0.063889,0.700645,0.809445,1.262802,-0.386863,-14.541306,-2.559235,23.220947,,,,,,
1478385623.92,-2.332999,0.037525,-2.937335,-6.108725,1.407870,-2.662093,-0.722808,-0.037516,0.690030,1.260390,2.289790,-0.491986,-14.781174,-5.859238,23.228394,,,,,,
1478385623.94,-2.286400,0.186240,-2.993147,-7.442467,2.298295,-4.260323,-0.741646,-0.185165,0.644728,1.480019,1.430603,-0.653777,-15.926880,-10.584595,22.856140,,,,,,
1478385623.96,-2.231948,0.368100,-3.035224,-7.147868,2.010300,-6.572669,-0.736414,-0.359843,0.572895,1.958200,0.830043,-0.570545,-15.926880,-10.584595,22.856140,,,,,,
1478385623.98,-2.182329,0.564831,-3.057684,-6.253172,2.194868,-7.658258,-0.691597,-0.535273,0.484950,1.813362,0.954936,-0.108744,-14.518570,-15.463089,19.359802,,,,,,
1478385624.00,-2.138848,0.751461,-3.059667,-4.658958,1.761829,-7.513507,-0.615937,-0.682707,0.393106,1.229005,1.773451,-0.474572,-9.599991,-24.920517,11.937378,,,,,,
1478385624.02,-2.140545,0.908149,-3.050638,-3.523277,-0.667906,-6.345088,-0.518026,-0.788366,0.331855,0.843145,1.850988,-0.702354,-5.631607,-27.398544,8.909485,,,,,,
1478385624.04,-2.202208,1.036111,-3.021099,-2.631197,-2.334180,-5.417524,-0.411323,-0.860429,0.300792,-0.163155,1.956376,-0.162608,-2.410172,-28.975906,6.546509,,,,,,
1478385624.06,-2.296891,1.143711,-2.956642,-1.950123,-1.308660,-5.091922,-0.309743,-0.910177,0.275023,-0.724819,2.269659,0.882020,-2.410172,-28.975906,6.546509,,,,,,
1478385624.08,-2.436443,1.234098,-2.810242,-0.978585,0.360453,-5.024741,-0.214130,-0.943851,0.251584,-1.419781,2.028674,1.334522,2.395050,-28.603271,4.193359,,,,,,
1478385624.10,-2.619911,1.289479,-2.600386,-0.077206,1.381396,-3.455126,-0.138349,-0.960691,0.240693,-2.446184,1.105603,1.782211,6.524704,-28.155029,2.433350,,,,,,
1478385624.12,-2.751376,1.300392,-2.413528,1.003923,2.699903,-2.133322,-0.101610,-0.963663,0.247041,-2.595045,0.440042,1.770797,11.785416,-25.905426,2.029175,,,,,,
1478385624.14,-2.817511,1.281285,-2.287070,1.738264,2.600067,-0.716660,-0.090909,-0.958384,0.270623,-2.352267,0.469690,1.348457,14.264450,-24.779724,2.725586,,,,,,
1478385624.16,-2.780516,1.250864,-2.274775,1.564122,2.210133,0.907035,-0.111108,-0.949257,0.294222,-1.915778,0.839256,0.463086,14.264450,-24.779724,2.725586,,,,,,
1478385624.18,-2.709667,1.214530,-2.311579,2.125840,2.091116,0.862811,-0.146005,-0.937206,0.316746,0.907007,-0.306996,-0.165806,14.561844,-24.928452,4.004089,,,,,,
1478385624.20,-2.720112,1.193424,-2.299556,-0.118911,-2.967398,2.508524,-0.150749,-0.929636,0.336231,3.496315,-6.808203,-2.699986,14.555008,-25.826569,5.881653,,,,,,
1478385624.22,-2.732873,1.161679,-2.414779,1.383473,-1.841677,3.729031,-0.158099,-0.917472,0.365033,-2.936185,5.685279,1.465106,8.767380,-28.300583,6.881226,,,,,,
1478385624.24,-2.622526,1.104356,-2.492374,2.111036,4.045457,0.906625,-0.223088,-0.893175,0.390475,1.168232,0.181551,1.181165,10.795517,-27.625626,6.824463,,,,,,
1478385624.26,-2.585486,1.072654,-2.460437,1.218119,0.749077,0.721640,-0.252220,-0.878472,0.405799,-0.418526,-1.613288,-1.094962,10.795517,-27.625626,6.824463,,,,,,
1478385624.28,-2.569485,1.026708,-2.506147,1.554041,-0.541184,2.390756,-0.280252,-0.855599,0.435211,0.310999,0.298120,-0.067398,9.892044,-27.698532,8.915649,,,,,,
1478385624.30,-2.571759,0.991008,-2.501888,1.445092,-0.102844,0.352154,-0.295559,-0.836579,0.461282,0.099835,0.578751,0.389640,9.142044,-27.623322,9.132935,,,,,,
1478385624.32,-2.571038,0.961928,-2.505363,0.963656,-0.108767,1.077828,-0.308904,-0.820296,0.481345,-1.049510,-0.366792,0.111169,8.012344,-28.146759,10.698242,,,,,,
1478385624.34,-2.556285,0.947632,-2.514424,0.105253,0.731403,0.215360,-0.322417,-0.812036,0.486461,-0.384751,-0.205084,0.986424,8.389145,-27.470932,11.524902,,,,,,
1478385624.36,-2.527266,0.958222,-2.519721,-0.903730,1.506443,-0.335569,-0.331421,-0.818171,0.469848,-0.614441,-0.272527,1.006898,8.389145,-27.470932,11.524902,,,,,,
1478385624.38,-2.482963,0.987433,-2.535217,-1.671913,1.417144,-0.603188,-0.337129,-0.834615,0.435617,-0.490371,-1.198588,0.817435,8.089157,-27.470932,11.521912,,,,,,
1478385624.40,-2.434212,1.026265,-2.555963,-1.867197,1.698585,-0.922212,-0.336631,-0.855370,0.393728,0.231895,-2.969611,0.232020,7.566513,-27.171616,10.840820,,,,,,
1478385624.42,-2.395149,1.061033,-2.572056,-1.341701,1.306557,-0.851860,-0.331348,-0.872860,0.358224,0.228580,-2.763355,-0.912743,7.944107,-26.947662,9.793884,,,,,,
1478385624.44,-2.363220,1.093212,-2.556214,-0.753598,2.830432,-1.745188,-0.322720,-0.888108,0.327287,1.904598,-0.582321,-1.162675,7.651840,-25.824463,7.987610,,,,,,
1478385624.46,-2.375402,1.117875,-2.514310,0.401264,-0.320056,-0.710134,-0.303426,-0.899173,0.315312,2.324529,0.550174,-0.256245,7.651840,-25.824463,7.987610,,,,,,
,,,,,,,,,,,,,,,,37.354266,-122.033426,39.613464,0.400000,0.703125,1478385714.00
1478385624.48,-2.367242,1.051630,-2.580416,1.579021,-3.892122,6.022765,-0.346938,-0.868233,0.354690,0.431930,-1.000572,0.079804,7.958420,-24.549988,7.461853,,,,,,
1478385624.50,-2.369011,0.925248,-2.691206,2.997510,-3.905678,5.696121,-0.419934,-0.798770,0.430838,0.808911,-0.535336,-0.339194,6.309647,-24.174713,7.744263,,,,,,
1478385624.52,-2.375311,0.802027,-2.708971,4.699040,0.486031,4.766677,-0.482130,-0.718767,0.500924,0.237226,-0.778181,0.486914,4.438736,-23.349960,7.497986,,,,,,
1478385624.54,-2.327689,0.648414,-2.721779,5.103001,2.428155,6.246076,-0.579428,-0.603923,0.547302,-0.278299,-1.846318,-0.036407,2.118958,-21.623260,9.194702,,,,,,
1478385624.56,-2.272203,0.489426,-2.729526,5.032975,2.531106,5.953490,-0.674252,-0.470119,0.569537,0.440273,-2.248326,0.380734,2.118958,-21.623260,9.194702,,,,,,
1478385624.58,-2.232019,0.345201,-2.733470,3.778378,1.353217,5.736520,-0.742683,-0.338386,0.577856,0.204887,-2.661721,0.014185,-4.761215,-16.145035,12.409424,,,,,,
1478385624.60,-2.217856,0.211515,-2.762807,2.615855,-0.196660,6.419366,-0.780079,-0.209942,0.589408,0.078983,-2.171772,-0.027060,-8.272644,-12.844193,13.264465,,,,,,
1478385624.62,-2.234815,0.092788,-2.806689,1.425153,-1.686507,5.527474,-0.784134,-0.092655,0.613636,0.390198,-1.005154,-0.302051,-10.659103,-9.693771,13.681091,,,,,,
1478385624.64,-2.270359,0.020538,-2.847922,0.177000,-1.895791,3.228688,-0.764962,-0.020536,0.643748,0.593438,-0.279665,-0.106211,-12.372116,-6.843201,14.255432,,,,,,
1478385624.66,-2.298139,0.003687,-2.884798,-1.516919,-0.919824,1.043502,-0.746939,-0.003687,0.664883,0.425894,0.314554,-0.141445,-12.372116,-6.843201,14.255432,,,,,,
1478385624.68,-2.298628,0.041440,-2.920534,-3.216794,0.358722,-0.912219,-0.745977,-0.041428,0.664681,0.325445,1.089692,-0.344171,-15.137619,-4.442337,15.120544,,,,,,
1478385624.70,-2.279017,0.125154,-2.958419,-4.694512,0.965674,-2.523233,-0.753580,-0.124828,0.645395,1.174997,1.430049,-0.589411,-15.588852,-5.118546,13.918091,,,,,,
1478385624.72,-2.261423,0.248936,-2.993348,-5.629519,0.353863,-4.314013,-0.747086,-0.246373,0.617384,1.250854,0.914128,-0.572554,-16.568924,-6.544434,13.012573,,,,,,
1478385624.74,-2.235607,0.404570,-3.019551,-5.881712,1.228892,-5.752278,-0.723498,-0.393623,0.567108,1.124819,0.476006,-0.343109,-16.577484,-8.870712,11.744446,,,,,,
1478385624.76,-2.195401,0.571214,-3.035188,-5.290659,1.900508,-6.527214,-0.682414,-0.540654,0.491940,1.115290,0.772953,-0.197537,-16.577484,-8.870712,11.744446,,,,,,
1478385624.78,-2.154087,0.739694,-3.032255,-4.292665,2.276800,-7.228532,-0.616539,-0.674062,0.406843,1.078117,1.296498,-0.211500,-16.889084,-11.796753,10.700073,,,,,,
1478385624.80,-2.137356,0.896355,-3.011943,-3.306934,0.834831,-6.580115,-0.526891,-0.781056,0.335169,0.715840,1.701069,-0.578119,-13.758179,-17.501129,6.323547,,,,,,
1478385624.82,-2.182299,1.022586,-2.982054,-2.468123,-1.995351,-5.342797,-0.426719,-0.853459,0.299197,0.201728,1.741627,-0.321689,-11.892792,-20.052383,5.074829,,,,,,
1478385624.84,-2.283090,1.126816,-2.915979,-1.628452,-1.898295,-4.984217,-0.325101,-0.903049,0.280733,-0.584307,2.044132,0.569517,-9.648575,-21.327362,5.101074,,,,,,
1478385624.86,-2.424044,1.208286,-2.784827,-0.728253,-0.352039,-4.460212,-0.233178,-0.935009,0.267180,-1.490988,2.263913,1.039598,-9.648575,-21.327362,5.101074,,,,,,
1478385624.88,-2.584459,1.260587,-2.604808,-0.129014,0.872857,-3.588242,-0.161407,-0.952270,0.259095,-1.700761,1.683105,1.272598,-8.227631,-22.227341,5.117981,,,,,,
1478385624.90,-2.727123,1.282224,-2.426279,0.513378,1.768089,-2.366660,-0.114603,-0.958651,0.260489,-2.142675,0.921618,1.400934,-3.205078,-22.752289,5.169800,,,,,,
1478385624.92,-2.809389,1.277157,-2.292573,1.116575,2.528083,-1.287619,-0.094394,-0.957197,0.273613,-2.328443,0.607282,1.013404,-2.454208,-22.527191,5.251648,,,,,,
1478385624.94,-2.810975,1.262075,-2.241638,0.596169,2.010525,0.033827,-0.098635,-0.952723,0.287385,-1.778517,0.725855,0.075423,-2.679764,-22.376389,6.073975,,,,,,
1478385624.96,-2.828941,1.224287,-2.257058,4.311277,-4.502600,1.147423,-0.104460,-0.940564,0.323153,-0.018129,1.642224,3.412534,-2.679764,-22.376389,6.073975,,,,,,
1478385624.98,-2.778742,1.196442,-2.275710,0.793376,-6.177374,2.917756,-0.129792,-0.930744,0.341863,-5.128753,-3.246624,-7.513616,-2.755554,-22.601532,5.923828,,,,,,
1478385625.00,-2.672143,1.140471,-2.430774,2.361270,0.707182,4.178792,-0.188724,-0.908830,0.372036,1.542683,6.432344,2.014957,-2.159027,-22.674423,8.030029,,,,,,
1478385625.02,-2.650288,1.091663,-2.453496,2.071364,2.415437,0.059945,-0.217494,-0.887395,0.406481,1.395899,-0.971934,1.328962,-6.283508,-21.997742,9.711792,,,,,,
1478385625.04,-2.639898,1.060052,-2.433710,0.962271,-1.016352,1.032592,-0.235083,-0.872381,0.428588,-1.756800,-1.193674,-0.946837,-6.281921,-21.396988,10.460022,,,,,,
1478385625.06,-2.603465,1.021601,-2.473457,1.346715,1.915843,1.608659,-0.267541,-0.852945,0.448226,-0.277351,0.414499,0.721421,-6.281921,-21.396988,10.460022,,,,,,
1478385625.08,-2.574187,0.997193,-2.460905,1.081402,1.211472,0.078416,-0.291652,-0.839951,0.457626,0.244899,0.146942,-0.020416,-6.281570,-21.171539,10.909302,,,,,,
1478385625.10,-2.569443,0.981795,-2.463366,0.376373,-0.272270,0.527187,-0.300787,-0.831496,0.467057,-0.670328,-0.224183,0.139892,-7.480881,-20.946335,11.121582,,,,,,
1478385625.12,-2.559051,0.982333,-2.467077,-0.402752,0.830407,-0.181636,-0.305378,-0.831795,0.463531,-0.587139,-0.234703,1.001129,-8.605408,-20.570511,11.934265,,,,,,
1478385625.14,-2.532877,1.003406,-2.475023,-1.341018,0.909999,-0.550587,-0.307312,-0.843306,0.440901,-0.528046,-0.436525,0.795473,-7.854187,-20.571335,11.116760,,,,,,
1478385625.16,-2.501743,1.039940,-2.491127,-1.814530,0.952124,-0.806647,-0.302282,-0.862374,0.406124,-0.384562,-1.514564,0.706440,-7.854187,-20.571335,11.116760,,,,,,
1478385625.18,-2.456670,1.080033,-2.495194,-1.447271,2.717750,-1.403741,-0.298150,-0.881973,0.365006,0.239205,-2.538070,0.006896,-7.553421,-20.722305,10.145264,,,,,,
1478385625.20,-2.417685,1.119888,-2.475624,-1.170836,2.690429,-1.811473,-0.288627,-0.900052,0.326499,0.737861,-1.852664,-0.769950,-7.176270,-20.573288,9.173584,,,,,,
1478385625.22,-2.406651,1.169070,-2.436256,-1.383510,2.245971,-2.504335,-0.262188,-0.920387,0.290077,1.969784,-1.508980,-0.979637,-7.552063,-21.099335,8.121338,,,,,,
1478385625.24,-2.425443,1.210194,-2.401750,-0.397703,-0.571937,-0.554090,-0.231633,-0.935684,0.266159,1.539631,0.454026,0.276916,-6.276535,-21.701492,5.960938,,,,,,
1478385625.26,-2.370871,1.139094,-2.494510,1.881912,-2.073658,5.928744,-0.291492,-0.908255,0.300176,0.572330,0.190222,0.257319,-6.276535,-21.701492,5.960938,,,,,,
1478385625.28,-2.333684,1.004208,-2.601820,3.464694,-2.755410,6.427507,-0.387991,-0.843737,0.370905,0.771689,-0.950529,-0.198527,-7.101639,-21.550980,6.477295,,,,,,
1478385625.30,-2.335258,0.854834,-2.647014,4.690961,-1.451295,6.500538,-0.473720,-0.754462,0.454288,0.402980,-1.202966,0.319913,-9.872208,-20.124664,7.795227,,,,,,
1478385625.32,-2.329753,0.679663,-2.665179,5.935470,0.227518,6.758401,-0.564325,-0.628531,0.535244,0.122766,-1.560114,0.133762,-12.564590,-17.496857,10.610474,,,,,,
1478385625.34,-2.311415,0.503351,-2.664603,6.092841,1.375236,6.222279,-0.646512,-0.482363,0.591057,0.355405,-2.031751,0.407570,-16.508987,-9.468155,14.296936,,,,,,
1478385625.36,-2.279531,0.338344,-2.655364,5.339233,1.641541,5.793263,-0.716145,-0.331926,0.613972,-0.054974,-2.809951,0.137965,-16.508987,-9.468155,14.296936,,,,,,
1478385625.38,-2.257841,0.189002,-2.676312,3.500213,0.588179,6.802167,-0.759356,-0.187879,0.622961,0.014513,-2.671496,-0.129446,-19.493835,-5.717010,15.455811,,,,,,
1478385625.40,-2.261875,0.052238,-2.718816,2.164400,-1.326086,6.247546,-0.769508,-0.052215,0.636499,0.771064,-1.546342,-0.468836,-22.556412,-2.490616,16.840576,,,,,,
1478385625.42,-2.300841,-0.039819,-2.761724,0.875436,-2.076206,3.977116,-0.744554,0.039809,0.666374,0.934785,-0.725341,-0.328041,-23.592087,1.035416,17.869568,,,,,,
1478385625.44,-2.345861,-0.073063,-2.803037,-1.265739,-2.061570,1.942361,-0.712470,0.072998,0.697895,0.779517,-0.244369,-0.339588,-23.511322,2.912216,19.664795,,,,,,
1478385625.46,-2.388358,-0.043026,-2.853895,-3.803241,-1.990777,-0.002114,-0.683369,0.043012,0.728805,0.665409,0.695223,-0.687042,-23.511322,2.912216,19.664795,,,,,,
,,,,,,,,,,,,,,,,37.354261,-122.033434,40.382629,0.910000,223.593750,1478385715.00
1478385625.48,-2.417242,0.054138,-2.902918,-6.079335,-0.906361,-2.306609,-0.661679,-0.054112,0.747832,1.248013,1.592381,-0.625594,-22.474487,1.416489,23.954712,,,,,,
1478385625.50,-2.412553,0.207728,-2.945491,-7.667154,0.677737,-4.177958,-0.651833,-0.206238,0.729781,0.912239,1.022186,-0.516478,-23.395767,-2.706696,25.757812,,,,,,
1478385625.52,-2.366427,0.397181,-2.976735,-8.013263,2.358644,-6.104576,-0.645356,-0.386820,0.658700,0.906342,0.511332,-0.314141,-22.370560,-8.407272,25.185120,,,,,,
1478385625.54,-2.305053,0.601326,-2.993182,-7.242671,2.741023,-7.118252,-0.612114,-0.565737,0.552502,0.967522,0.548738,-0.311947,-21.049637,-15.684708,22.745178,,,,,,
1478385625.56,-2.253397,0.795160,-2.997231,-5.846807,2.219065,-7.297823,-0.543287,-0.713975,0.441677,0.647031,0.839387,-0.344387,-21.049637,-15.684708,22.745178,,,,,,
1478385625.58,-2.243407,0.962518,-2.980115,-4.205424,0.349873,-6.528708,-0.446992,-0.820633,0.356034,0.291199,1.317840,-0.417237,-16.973175,-29.268112,14.351685,,,,,,
1478385625.60,-2.295522,1.097473,-2.935702,-3.067866,-1.104576,-5.543509,-0.341284,-0.890058,0.302194,-0.310633,1.659605,0.071493,-10.982986,-32.721939,10.521973,,,,,,
1478385625.62,-2.391814,1.202617,-2.861103,-2.253197,-1.480928,-4.430899,-0.245275,-0.932984,0.263402,-0.886088,1.977784,0.433131,-5.813385,-34.824646,7.804932,,,,,,
1478385625.64,-2.540222,1.279170,-2.727573,-1.284971,-0.561237,-3.942689,-0.162665,-0.957778,0.237070,-1.438653,2.251555,0.974585,-1.764023,-35.802155,5.298401,,,,,,
1478385625.66,-2.731673,1.324516,-2.517477,-0.293872,1.005693,-3.146022,-0.097163,-0.969826,0.223601,-2.074896,1.639229,1.111635,-1.764023,-35.802155,5.298401,,,,,,
1478385625.68,-2.870075,1.336262,-2.343723,0.391910,1.821927,-1.583756,-0.062326,-0.972623,0.223877,-2.186347,0.984830,1.506241,2.062286,-36.028702,3.762329,,,,,,
1478385625.70,-2.935557,1.329087,-2.239358,0.698201,1.653232,-0.883870,-0.048969,-0.970930,0.234300,-1.890148,1.122526,1.350920,8.519943,-34.679764,2.697876,,,,,,
1478385625.72,-2.938318,1.315515,-2.208770,0.789195,1.060840,0.235433,-0.050978,-0.967592,0.247318,-1.676058,0.840487,0.970761,9.644791,-34.679672,2.784119,,,,,,
1478385625.74,-2.885438,1.302684,-2.261366,0.131762,-0.486996,1.020664,-0.067119,-0.964273,0.256268,-1.114919,0.909127,0.430026,10.766891,-35.129059,3.396729,,,,,,
1478385625.76,-2.916553,1.273501,-2.263805,4.433671,1.525148,-2.140599,-0.065367,-0.956132,0.285549,1.411970,-0.552168,4.466404,10.766891,-35.129059,3.396729,,,,,,
1478385625.78,-2.821506,1.251924,-2.284055,0.454566,-3.646154,3.374817,-0.098641,-0.949589,0.297573,-6.123160,0.247182,-6.254681,9.259201,-36.628464,3.986145,,,,,,
1478385625.80,-2.638798,1.192891,-2.493197,2.119946,-1.174085,3.980694,-0.177800,-0.929440,0.323310,1.726506,5.236568,0.486551,4.743240,-39.325882,6.574036,,,,,,
1478385625.82,-2.693704,1.158048,-2.474154,1.773062,0.612155,-1.005596,-0.173714,-0.916022,0.361562,1.336357,-1.241906,1.193049,5.573715,-37.825043,7.402893,,,,,,
1478385625.84,-2.684362,1.125208,-2.450625,1.570301,1.355798,1.723779,-0.190266,-0.902357,0.386717,-2.722499,-1.124864,-0.224241,6.019028,-38.423706,8.759094,,,,,,
1478385625.86,-2.595032,1.069700,-2.490946,1.994013,2.888148,1.322731,-0.249682,-0.877057,0.410403,1.403735,0.782712,0.412351,6.019028,-38.423706,8.759094,,,,,,
1478385625.88,-2.599093,1.037182,-2.462935,1.640308,0.406392,0.211608,-0.262604,-0.860974,0.435617,0.700562,0.194180,0.215018,4.666550,-38.497284,10.170776,,,,,,
1478385625.90,-2.604289,1.006595,-2.464137,1.145509,-0.578470,1.264708,-0.273692,-0.845016,0.459391,-1.142248,-0.473099,-0.040431,3.088791,-38.194534,12.929077,,,,,,
1478385625.92,-2.578388,0.980674,-2.482832,0.628613,0.842125,0.645895,-0.297095,-0.830873,0.470516,0.065375,0.012666,0.720814,2.863007,-38.118774,13.676636,,,,,,
1478385625.94,-2.558905,0.973151,-2.485046,0.036772,0.849191,0.261321,-0.309636,-0.826663,0.469845,-0.389705,-0.004148,0.364536,1.736679,-38.193115,14.340515,,,,,,
1478385625.96,-2.529388,0.980502,-2.500533,-0.813790,1.140189,-0.125058,-0.319866,-0.830777,0.455517,-0.595844,-0.314349,0.860478,1.736679,-38.193115,14.340515,,,,,,
1478385625.98,-2.489689,1.008918,-2.511170,-1.627941,1.604987,-0.712829,-0.323236,-0.846256,0.423520,-0.642188,-0.589047,0.779238,2.263809,-37.818405,14.044739,,,,,,
1478385626.00,-2.441481,1.048160,-2.531101,-1.886463,1.686878,-1.012211,-0.321615,-0.866506,0.381748,-0.358210,-1.816981,0.341412,1.964813,-37.894318,13.141968,,,,,,
1478385626.02,-2.392489,1.093404,-2.531051,-1.605142,2.670587,-1.649001,-0.312887,-0.888196,0.336466,0.012121,-3.043246,-0.348230,1.522354,-36.996643,10.809814,,,,,,
1478385626.04,-2.341269,1.138536,-2.526676,-1.494287,2.948773,-1.711079,-0.300612,-0.908021,0.291770,1.730056,-2.312255,-0.805046,1.901169,-36.623062,9.387512,,,,,,
1478385626.06,-2.327584,1.178289,-2.507798,-0.552784,-0.087575,-1.326751,-0.278100,-0.923953,0.262625,2.900765,0.677981,-0.698630,1.901169,-36.623062,9.387512,,,,,,
1478385626.08,-2.328312,1.127730,-2.552063,1.895157,-2.922991,5.128320,-0.311479,-0.903441,0.294576,0.810060,-0.180818,0.722819,3.336044,-34.899490,7.971680,,,,,,
1478385626.10,-2.313824,0.985467,-2.659768,3.614266,-3.970847,6.915898,-0.406855,-0.833530,0.373760,0.715830,-0.996655,-0.340740,4.095154,-33.100159,7.298889,,,,,,
1478385626.12,-2.337780,0.837397,-2.693400,4.880730,-1.744945,5.978671,-0.481972,-0.742904,0.464540,0.444267,-1.473130,0.315306,-1.966995,-29.272232,10.226807,,,,,,
1478385626.14,-2.339127,0.669433,-2.707252,5.636383,0.041221,6.531931,-0.563877,-0.620542,0.544951,0.088932,-1.677447,0.031618,-3.829803,-25.820007,12.447815,,,,,,
1478385626.16,-2.322139,0.498397,-2.711574,5.843292,1.081746,6.118469,-0.641874,-0.478018,0.599580,0.220823,-2.073160,0.284270,-3.829803,-25.820007,12.447815,,,,,,
1478385626.18,-2.298336,0.339796,-2.714256,4.485380,0.943293,6.029183,-0.704112,-0.333295,0.627010,-0.063421,-2.827655,0.221745,-6.510742,-20.792648,14.805908,,,,,,
1478385626.20,-2.280644,0.192371,-2.747053,3.318622,0.116680,6.872139,-0.744470,-0.191187,0.639697,0.266946,-2.219351,-0.158434,-9.644455,-16.515671,16.786743,,,,,,
1478385626.22,-2.293608,0.061450,-2.795277,1.974997,-1.488187,6.046975,-0.748533,-0.061411,0.660247,0.644179,-1.127416,-0.120742,-12.700699,-11.939438,18.017456,,,,,,
1478385626.24,-2.324962,-0.023360,-2.841954,0.549492,-1.492070,3.846740,-0.728644,0.023358,0.684494,0.564292,-0.282726,0.037689,-14.990738,-3.763199,19.244995,,,,,,
1478385626.26,-2.337798,-0.052583,-2.883349,-1.164017,-0.015642,1.755850,-0.719000,0.052559,0.693020,0.536123,0.299416,-0.221493,-14.990738,-3.763199,19.244995,,,,,,
1478385626.28,-2.334246,-0.029673,-2.930013,-3.266182,0.384510,0.260543,-0.722137,0.029668,0.691114,0.561691,1.152903,-0.674054,-16.109741,-2.187469,19.979065,,,,,,
1478385626.30,-2.332716,0.040184,-2.985188,-5.051732,-0.256320,-1.193107,-0.722928,-0.040174,0.689755,1.266293,1.675229,-0.941265,-18.585175,-2.036758,20.703857,,,,,,
1478385626.32,-2.336038,0.154435,-3.040473,-6.394182,-0.307505,-2.823858,-0.712632,-0.153822,0.684467,1.200226,0.979811,-0.778492,-20.697067,-4.511230,21.215149,,,,,,
1478385626.34,-2.309628,0.304872,-3.084764,-6.674605,1.802370,-4.771619,-0.705166,-0.300172,0.642370,1.280376,0.790940,-0.371206,-20.656418,-12.612640,19.814941,,,,,,
1478385626.36,-2.239293,0.473846,-3.105309,-5.884478,3.807301,-6.280820,-0.698290,-0.456312,0.551516,1.567278,0.798979,-0.292453,-20.656418,-12.612640,19.814941,,,,,,
1478385626.38,-2.163216,0.646407,-3.111792,-4.933080,3.051757,-7.115681,-0.662225,-0.602322,0.445720,1.484216,1.109463,-0.810787,-20.450592,-17.940842,16.607910,,,,,,
1478385626.40,-2.139208,0.812444,-3.102669,-3.860053,0.410106,-6.961886,-0.579586,-0.725970,0.370199,1.308743,1.180270,-0.824362,-19.795334,-23.569580,12.881348,,,,,,
1478385626.42,-2.187099,0.957349,-3.080831,-3.225244,-2.433889,-6.102115,-0.469775,-0.817668,0.332761,0.372805,1.347637,-0.170103,-15.608597,-27.698120,9.335632,,,,,,
1478385626.44,-2.279846,1.082516,-3.030076,-2.472686,-2.026270,-5.624236,-0.356044,-0.883141,0.305442,-0.572041,1.809822,0.823571,-11.042465,-30.400314,7.139404,,,,,,
1478385626.46,-2.407094,1.182296,-2.910719,-1.256366,-0.387865,-5.078060,-0.253878,-0.925478,0.281133,-1.396497,2.086336,1.145243,-11.042465,-30.400314,7.139404,,,,,,
,,,,,,,,,,,,,,,,37.354253,-122.033439,40.394592,0.720000,219.023438,1478385716.00
1478385626.48,-2.566660,1.248416,-2.731926,-0.461103,0.867446,-4.133012,-0.172283,-0.948484,0.265889,-1.791066,1.595945,1.338527,-2.198013,-32.653366,4.084534,,,,,,
1478385626.50,-2.732853,1.282600,-2.518836,0.314611,2.515170,-3.294828,-0.112966,-0.958758,0.260810,-2.009913,1.107760,1.273995,0.279984,-32.279251,3.208313,,,,,,
1478385626.52,-2.846593,1.285730,-2.330820,0.959529,3.633879,-2.036301,-0.081762,-0.959643,0.269073,-2.194941,0.820529,0.776123,4.031952,-32.130112,2.345337,,,,,,
1478385626.54,-2.881626,1.273354,-2.225087,0.853796,2.921990,-0.943311,-0.075335,-0.956089,0.283228,-1.386839,0.798664,0.140020,5.758041,-31.679489,2.961304,,,,,,
1478385626.56,-2.918002,1.258956,-2.175755,2.372219,-2.740093,-0.168817,-0.068030,-0.951771,0.299174,-0.297418,0.792240,1.780538,5.758041,-31.679489,2.961304,,,,,,
1478385626.58,-2.896575,1.212273,-2.196152,0.554096,-6.175052,3.169143,-0.085117,-0.936416,0.340411,-5.531872,-3.304596,-7.094012,9.586166,-30.402740,4.720703,,,,,,
1478385626.60,-2.769036,1.157903,-2.370511,2.657764,3.014086,4.410740,-0.146058,-0.915964,0.373734,1.946992,6.392129,3.192291,5.596939,-33.026123,6.338684,,,,,,
1478385626.62,-2.716521,1.098768,-2.391880,2.298197,2.611934,-0.283503,-0.187509,-0.890648,0.414230,1.264124,-0.523735,0.910538,3.122314,-32.725464,6.988037,,,,,,
1478385626.64,-2.699353,1.061029,-2.367823,1.455424,-0.060958,1.603060,-0.208836,-0.872858,0.441029,-1.312649,-1.844977,-0.729954,4.700653,-31.448883,8.575012,,,,,,
1478385626.66,-2.657620,1.015220,-2.430906,1.416080,0.450987,2.039247,-0.245414,-0.849597,0.466859,0.272285,0.497775,0.793258,4.700653,-31.448883,8.575012,,,,,,
1478385626.68,-2.626313,0.982058,-2.436256,1.236708,0.895559,0.633046,-0.273646,-0.831642,0.483208,0.161128,0.474144,0.194451,2.896667,-31.822327,10.133057,,,,,,
1478385626.70,-2.610053,0.956408,-2.454227,0.636137,-0.178680,1.294673,-0.292185,-0.817126,0.496924,-0.601217,-0.362699,0.180506,1.319534,-31.820908,11.542297,,,,,,
1478385626.72,-2.580061,0.941968,-2.471467,0.188603,1.415263,0.426447,-0.313205,-0.808717,0.497875,-0.380596,0.027330,0.667317,0.646027,-31.520996,11.459656,,,,,,
1478385626.74,-2.542318,0.943751,-2.484174,-0.614027,1.150843,0.249102,-0.330955,-0.809765,0.484510,-0.367180,-0.141560,0.554812,0.421249,-31.370697,11.756958,,,,,,
1478385626.76,-2.510690,0.963873,-2.507834,-1.567870,0.394479,-0.238633,-0.336430,-0.821407,0.460549,-0.507808,-0.437626,0.668708,0.421249,-31.370697,11.756958,,,,,,
1478385626.78,-2.477400,1.001665,-2.538872,-2.208555,0.405905,-0.511096,-0.332191,-0.842369,0.424338,-0.697167,-1.366752,0.399346,-0.628174,-31.371078,11.371460,,,,,,
1478385626.80,-2.432709,1.043814,-2.570841,-1.991362,1.252772,-0.881268,-0.327399,-0.864329,0.381767,-0.256494,-2.353048,-0.217674,0.202072,-30.998474,8.978638,,,,,,
1478385626.82,-2.391069,1.084474,-2.579474,-1.533799,1.833417,-1.369280,-0.318762,-0.884058,0.341808,0.455527,-2.191550,-0.681972,0.055695,-30.699982,7.476257,,,,,,
1478385626.84,-2.368531,1.130391,-2.567175,-1.363784,1.617146,-2.106791,-0.297702,-0.904579,0.305140,2.040088,-1.510033,-0.877710,0.433594,-30.401031,6.429199,,,,,,
1478385626.86,-2.388287,1.178375,-2.541239,-1.083366,-1.001855,-1.239538,-0.261601,-0.923986,0.278954,2.203877,0.422902,-0.076211,0.433594,-30.401031,6.429199,,,,,,
1478385626.88,-2.371512,1.125420,-2.601025,2.148073,-2.096655,5.074243,-0.299919,-0.902448,0.309250,0.474204,0.375486,0.796753,1.789215,-29.577286,5.165283,,,,,,
1478385626.90,-2.336333,0.987320,-2.694881,3.964934,-2.236728,6.536483,-0.397225,-0.834552,0.381752,0.628945,-0.865414,-0.308143,0.893936,-28.903427,4.029297,,,,,,
1478385626.92,-2.339096,0.837967,-2.721123,5.087420,-0.520099,5.800604,-0.481056,-0.743285,0.464880,0.441657,-1.512224,0.370722,-5.173279,-25.974823,7.634827,,,,,,
1478385626.94,-2.327534,0.670045,-2.722524,6.029069,1.018990,6.247735,-0.569881,-0.621021,0.538116,0.062755,-1.641323,0.073945,-8.988281,-22.746796,10.661987,,,,,,
1478385626.96,-2.303436,0.494499,-2.716575,6.199948,1.541450,6.248401,-0.654356,-0.474591,0.588712,0.175993,-2.018283,0.221224,-8.988281,-22.746796,10.661987,,,,,,
1478385626.98,-2.277829,0.332780,-2.711463,4.752031,1.071988,5.812948,-0.718581,-0.326672,0.613943,-0.261766,-3.035968,0.220071,-11.597382,-18.620041,12.423523,,,,,,
1478385627.00,-2.261120,0.185438,-2.728699,3.758108,0.392880,6.443994,-0.757821,-0.184377,0.625870,-0.120719,-1.939738,-0.282135,-15.180740,-14.192825,14.624390,,,,,,
1478385627.02,-2.261972,0.052063,-2.761407,2.547931,-0.561649,5.795004,-0.769453,-0.052039,0.636580,0.487089,-1.130395,-0.336440,-20.848572,-6.390869,16.569336,,,,,,
1478385627.04,-2.283350,-0.043098,-2.794543,1.321634,-1.335141,4.049214,-0.755992,0.043084,0.653161,0.574031,-0.533547,-0.215112,-21.281326,-2.565903,16.553528,,,,,,
1478385627.06,-2.313889,-0.094483,-2.830222,-0.247480,-1.394027,2.559078,-0.733095,0.094343,0.673551,0.494280,0.008410,-0.439359,-21.281326,-2.565903,16.553528,,,,,,
1478385627.08,-2.345238,-0.097898,-2.870207,-1.996437,-1.294192,0.834014,-0.711389,0.097742,0.695969,0.434915,0.921118,-0.637390,-21.423782,-0.690308,17.146484,,,,,,
1478385627.10,-2.367820,-0.049588,-2.911740,-3.918082,-0.812508,-0.851838,-0.697980,0.049568,0.714400,1.118695,1.681633,-0.783995,-21.796524,-0.014786,17.665649,,,,,,
1478385627.12,-2.374815,0.049020,-2.955897,-5.683714,0.250004,-2.380899,-0.692985,-0.049001,0.719285,1.071662,1.147954,-0.514146,-21.724319,-0.539490,17.968018,,,,,,
1478385627.14,-2.343439,0.190245,-2.993651,-6.525957,2.099032,-4.460701,-0.703149,-0.189099,0.685436,1.009301,1.131314,-0.426540,-21.292465,-5.040894,16.560791,,,,,,
1478385627.16,-2.277850,0.355832,-3.012152,-6.063327,3.249834,-5.994190,-0.712653,-0.348370,0.608904,1.577033,0.699658,-0.515642,-21.292465,-5.040894,16.560791,,,,,,
1478385627.17,-2.211159,0.528129,-3.018245,-5.247390,3.166202,-6.906502,-0.692624,-0.503919,0.516080,1.638883,0.473645,-0.443173,-21.907120,-9.093292,14.166809,,,,,,
1478385627.19,-2.168253,0.700349,-3.009331,-4.291484,1.886649,-7.301538,-0.632162,-0.644485,0.430129,1.017660,0.849151,-0.620192,-21.170868,-13.221497,10.961548,,,,,,
1478385627.21,-2.171637,0.852372,-2.984976,-3.205839,-0.289875,-6.270336,-0.542923,-0.752844,0.372104,0.624405,1.426275,-0.636081,-20.811798,-17.573944,8.503235,,,,,,
1478385627.23,-2.236222,0.971784,-2.959899,-2.770319,-3.176046,-4.859721,-0.443537,-0.825893,0.348103,0.177896,1.632091,-0.087391,-16.182922,-23.201736,5.716431,,,,,,
1478385627.25,-2.337343,1.074309,-2.909906,-2.062433,-2.280360,-4.691488,-0.343112,-0.879261,0.330414,-0.654996,1.826283,0.754318,-16.182922,-23.201736,5.716431,,,,,,
1478385627.27,-2.455595,1.154688,-2.802283,-1.010017,-0.424480,-4.297928,-0.256041,-0.914669,0.312768,-1.318422,2.192348,1.072547,-13.489044,-24.702148,5.297852,,,,,,
1478385627.29,-2.584419,1.210843,-2.648306,-0.330478,1.163545,-3.781672,-0.186256,-0.935913,0.298957,-1.332909,1.757507,1.174844,-11.621292,-26.277054,5.396240,,,,,,
1478385627.31,-2.714403,1.241798,-2.491461,0.011801,0.679544,-2.510985,-0.133863,-0.946366,0.294060,-1.904635,0.976136,0.978050,-10.049118,-27.027420,5.039246,,,,,,
1478385627.33,-2.796291,1.251506,-2.389662,0.189843,0.862850,-1.337043,-0.106247,-0.949459,0.295365,-1.788239,0.862804,1.018204,-7.421478,-26.728302,4.164551,,,,,,
1478385627.35,-2.837261,1.258249,-2.320651,-0.156406,1.353068,-1.015770,-0.092139,-0.951553,0.293354,-1.513070,0.998200,0.496914,-7.421478,-26.728302,4.164551,,,,,,
1478385627.37,-2.900259,1.247387,-2.250900,3.962079,0.028012,-1.651167,-0.075954,-0.948157,0.308591,2.401118,-1.719613,4.184039,-6.298523,-27.253510,3.952393,,,,,,
1478385627.39,-2.849101,1.224831,-2.299330,0.350901,-6.466031,2.718039,-0.097777,-0.940749,0.324702,-7.501466,1.226439,-5.788920,-4.567123,-25.753265,4.190186,,,,,,
1478385627.41,-2.682005,1.164285,-2.468732,2.661003,0.471843,3.209112,-0.175394,-0.918506,0.354378,2.083888,4.787509,0.560844,-9.606003,-28.376877,5.572693,,,,,,
1478385627.43,-2.712893,1.126562,-2.429434,2.046529,2.372321,-0.974945,-0.178649,-0.902940,0.390876,0.612640,-1.424209,0.632531,-9.972198,-26.426895,5.563171,,,,,,
1478385627.45,-2.696275,1.091757,-2.419870,1.637869,0.369162,1.991185,-0.198542,-0.887438,0.415974,-2.264227,-0.934263,0.025844,-9.972198,-26.426895,5.563171,,,,,,
1478385627.47,-2.625279,1.045274,-2.461683,1.755903,2.664600,1.158993,-0.247661,-0.865062,0.436270,1.639369,1.012584,0.706872,-10.121414,-25.599945,7.509216,,,,,,
,,,,,,,,,,,,,,,,37.354251,-122.033442,40.255371,0.720000,230.976562,1478385717.00
1478385627.49,-2.616294,1.014922,-2.444002,1.307307,0.083057,0.478005,-0.264619,-0.849440,0.456540,-0.212355,-0.196749,-0.320493,-11.620148,-25.149429,8.017883,,,,,,
1478385627.51,-2.607621,0.985853,-2.466649,0.756618,-0.198250,1.308574,-0.281021,-0.833744,0.475288,-0.575043,-0.212140,0.683525,-11.169235,-24.924362,8.096680,,,,,,
1478385627.53,-2.581347,0.971769,-2.474682,0.241844,1.353913,0.269168,-0.299621,-0.825884,0.477642,-0.318589,-0.024778,0.699253,-11.769028,-24.623611,8.839783,,,,,,
1478385627.55,-2.546684,0.974570,-2.487413,-0.686264,1.026214,0.104252,-0.314696,-0.827461,0.465054,-0.414262,-0.162835,0.616428,-11.769028,-24.623611,8.839783,,,,,,
1478385627.57,-2.511331,0.997777,-2.502814,-1.454395,1.391071,-0.556365,-0.319532,-0.840268,0.438006,-0.639605,-0.573352,0.927564,-11.918121,-24.473770,8.687866,,,,,,
1478385627.59,-2.464067,1.035629,-2.517495,-1.882335,2.071352,-1.002908,-0.319693,-0.860183,0.397343,-0.402887,-1.898270,0.608196,-11.838409,-24.025574,6.887390,,,,,,
1478385627.61,-2.406021,1.078841,-2.525570,-1.669150,2.543362,-1.307876,-0.316952,-0.881411,0.350223,-0.128299,-2.389982,-0.593417,-11.838974,-24.551758,5.688904,,,,,,
1478385627.63,-2.354825,1.122094,-2.528416,-1.673135,2.306890,-1.627991,-0.307160,-0.901011,0.306320,0.997269,-1.649557,-0.818786,-12.365753,-25.378052,4.411072,,,,,,
1478385627.65,-2.324672,1.170304,-2.524139,-1.410927,0.871719,-1.791746,-0.284233,-0.920869,0.266856,2.226265,-0.720275,-0.907389,-12.365753,-25.378052,4.411072,,,,,,
1478385627.67,-2.354580,1.178233,-2.529917,0.571395,-2.772635,1.500965,-0.270946,-0.923932,0.270072,1.783046,0.257580,1.316110,-12.141220,-25.678650,3.814209,,,,,,
1478385627.69,-2.322955,1.083483,-2.630240,2.396240,-3.413528,6.411778,-0.341926,-0.883594,0.319919,-0.056832,-0.320935,-0.566485,-11.464447,-25.604614,2.845764,,,,,,
1478385627.71,-2.328850,0.941880,-2.697817,4.051984,-2.452366,5.870270,-0.427186,-0.808665,0.404441,0.836274,-0.833699,0.423929,-14.983856,-23.652481,4.979736,,,,,,
1478385627.73,-2.342614,0.793726,-2.710023,5.348464,-0.509984,5.843678,-0.502506,-0.712971,0.489040,0.412968,-1.394955,0.159886,-17.297318,-20.275024,7.421448,,,,,,
1478385627.75,-2.339076,0.620428,-2.715163,6.101391,0.181099,6.467643,-0.585087,-0.581384,0.565391,0.284641,-1.801658,0.101342,-17.297318,-20.275024,7.421448,,,,,,
1478385627.77,-2.326201,0.448956,-2.708877,6.139017,1.323787,5.637483,-0.655850,-0.434025,0.617643,0.147031,-1.914623,0.345874,-21.035538,-16.596863,10.598022,,,,,,
1478385627.79,-2.297075,0.297057,-2.696555,4.858011,1.623510,5.222599,-0.714905,-0.292707,0.635006,-0.440384,-2.661715,0.088199,-22.889984,-11.495239,12.214233,,,,,,
1478385627.81,-2.268869,0.155438,-2.712801,3.540146,0.824989,6.230974,-0.756847,-0.154812,0.634993,0.251109,-2.009449,-0.500548,-28.253967,-2.868378,14.084656,,,,,,
1478385627.83,-2.279701,0.030205,-2.746694,2.384359,-1.554174,5.382638,-0.758729,-0.030201,0.650706,0.785828,-0.779125,-0.545024,-30.488403,0.957733,15.175903,,,,,,
1478385627.85,-2.323979,-0.054902,-2.773039,1.504832,-2.346832,3.264520,-0.728416,0.054875,0.682934,0.687065,-0.195851,-0.212398,-30.488403,0.957733,15.175903,,,,,,
1478385627.87,-2.368365,-0.096028,-2.795589,0.008671,-1.911459,1.767324,-0.695231,0.095881,0.712363,0.034113,-0.114405,-0.376944,-29.951797,4.034210,16.672058,,,,,,
1478385627.89,-2.395378,-0.094055,-2.823968,-1.713248,-0.770755,0.427665,-0.675864,0.093916,0.731019,0.120337,0.717134,-0.593796,-29.196609,5.836182,18.624146,,,,,,
1478385627.91,-2.402999,-0.044120,-2.855684,-3.657489,-0.132210,-1.072957,-0.672594,0.044105,0.738696,0.939287,1.428597,-0.792819,-29.809097,3.888641,21.098877,,,,,,
1478385627.93,-2.403199,0.053549,-2.889964,-5.355787,0.226778,-2.558963,-0.672136,-0.053524,0.738491,0.851960,0.919948,-0.739696,-30.800308,0.514313,21.774048,,,,,,
1478385627.95,-2.381600,0.191139,-2.921550,-6.462141,1.313789,-4.118862,-0.676370,-0.189977,0.711641,0.776727,0.860174,-0.657701,-30.800308,0.514313,21.774048,,,,,,
1478385627.97,-2.346624,0.353870,-2.950139,-6.867976,1.222975,-4.983103,-0.669611,-0.346531,0.656915,1.054102,0.557178,-0.759439,-30.216965,-3.461487,20.966797,,,,,,
1478385627.99,-2.314715,0.521474,-2.975008,-6.311352,1.127928,-5.519813,-0.638019,-0.498159,0.587170,1.016498,0.410314,-0.473111,-30.539398,-9.163651,18.805725,,,,,,
1478385628.01,-2.278137,0.685415,-2.983693,-5.331752,1.977272,-6.099131,-0.588431,-0.632994,0.503058,0.613867,0.891142,-0.145758,-29.210587,-14.716171,16.285706,,,,,,
1478385628.03,-2.235587,0.838730,-2.968247,-3.874573,2.917616,-6.267093,-0.526068,-0.743795,0.412337,0.497579,1.472784,-0.280822,-25.270493,-24.697845,9.605042,,,,,,
1478385628.05,-2.222323,0.967489,-2.932486,-2.633042,1.209226,-5.401005,-0.451149,-0.823464,0.344053,0.448036,1.728905,-0.398145,-25.270493,-24.697845,9.605042,,,,,,
1478385628.07,-2.274100,1.069839,-2.885654,-2.016655,-1.488442,-4.435090,-0.366303,-0.877123,0.310607,-0.142471,1.788836,0.101899,-22.132385,-28.375961,6.497437,,,,,,
1478385628.09,-2.371681,1.151457,-2.812168,-1.314676,-1.257231,-3.969537,-0.283410,-0.913358,0.292327,-1.011954,1.866743,0.741898,-18.991348,-31.002869,4.586731,,,,,,
1478385628.11,-2.494179,1.214385,-2.689730,-0.652488,-0.001509,-3.662568,-0.210438,-0.937155,0.278309,-1.360576,1.817633,0.963405,-16.520432,-32.128510,3.939758,,,,,,
1478385628.13,-2.633812,1.257591,-2.533264,-0.287069,0.570768,-3.126147,-0.149815,-0.951351,0.269234,-1.381282,1.217739,1.016868,-9.548141,-33.255096,2.362915,,,,,,
1478385628.15,-2.777717,1.284155,-2.369441,-0.130897,0.668468,-2.500579,-0.100624,-0.959199,0.264220,-1.584297,0.663423,1.003953,-9.548141,-33.255096,2.362915,,,,,,
1478385628.17,-2.893373,1.297939,-2.231401,-0.057386,1.012578,-1.767635,-0.066206,-0.963005,0.261225,-1.551057,0.483238,0.937627,-7.373291,-33.480667,1.785278,,,,,,
1478385628.19,-2.978269,1.307513,-2.119944,-0.308402,1.055236,-1.423923,-0.042317,-0.965541,0.256788,-1.366421,0.514171,0.645128,-5.497635,-33.481110,1.354126,,,,,,
1478385628.21,-3.039038,1.270279,-1.992526,1.083452,6.256295,-0.431725,-0.030304,-0.955184,0.294459,3.403504,-7.054964,0.131094,-4.824356,-33.780869,1.586731,,,,,,
1478385628.23,-2.894240,1.264703,-2.218560,0.317390,-3.395174,4.043793,-0.073778,-0.953518,0.292164,-1.671934,4.614361,-0.158467,-1.522583,-33.105011,2.442749,,,,,,
1478385628.25,-2.732759,1.209888,-2.368246,2.398574,-0.956950,1.332849,-0.140381,-0.935576,0.324022,1.411286,1.590697,-0.185533,-1.522583,-33.105011,2.442749,,,,,,
1478385628.27,-2.786746,1.181519,-2.334777,1.549251,0.100595,-0.094200,-0.131863,-0.925184,0.355876,-0.270206,-1.151339,0.275411,-7.974838,-33.329178,3.278870,,,,,,
1478385628.29,-2.750167,1.146899,-2.371580,1.548666,0.421318,2.268836,-0.156920,-0.911493,0.380206,-2.450639,-0.628394,0.317029,-7.675964,-33.027527,4.930969,,,,,,
1478385628.31,-2.644041,1.094210,-2.425942,2.002554,3.704258,1.635467,-0.218949,-0.888566,0.403127,1.356218,0.547624,0.077037,-9.028305,-33.251633,5.818115,,,,,,
1478385628.33,-2.611526,1.050932,-2.428262,1.702896,-0.048551,1.121395,-0.251159,-0.867886,0.428594,0.587340,0.201581,-0.480321,-10.001938,-32.725967,6.481812,,,,,,
1478385628.35,-2.607840,1.009648,-2.449088,1.433066,-0.649508,1.726136,-0.270745,-0.846644,0.458138,-0.744636,-0.195806,0.294746,-10.001938,-32.725967,6.481812,,,,,,
1478385628.37,-2.575251,0.968893,-2.473739,1.307387,1.147152,1.379349,-0.303800,-0.824259,0.477810,0.404783,0.274287,0.669789,-12.177460,-32.123825,8.633240,,,,,,
1478385628.39,-2.551048,0.939836,-2.480432,1.042040,0.633872,0.926601,-0.328476,-0.807461,0.490010,-0.346146,0.019375,-0.053685,-14.126511,-31.597870,9.587158,,,,,,
1478385628.41,-2.534092,0.915187,-2.496185,0.559225,0.112817,1.051470,-0.347994,-0.792677,0.500563,-0.333906,-0.117296,0.298082,-14.199814,-31.147644,9.810120,,,,,,
1478385628.43,-2.516357,0.904342,-2.505098,0.106237,0.784251,0.229844,-0.361827,-0.786018,0.501254,-0.640690,0.040062,0.508252,-14.799606,-30.922134,10.328430,,,,,,
1478385628.45,-2.490843,0.909684,-2.510906,-0.616890,1.178753,-0.196629,-0.371948,-0.789310,0.488513,-0.751023,-0.312344,0.683682,-14.799606,-30.922134,10.328430,,,,,,
1478385628.47,-2.459109,0.935277,-2.515138,-1.326634,1.557543,-0.959675,-0.374394,-0.804763,0.460635,-0.670879,-0.590699,0.747189,-15.022797,-30.622421,10.025269,,,,,,
1478385628.49,-2.420239,0.974094,-2.518872,-1.640857,2.048663,-1.286877,-0.371091,-0.827193,0.421951,-0.381106,-2.324983,0.226303,-15.018417,-30.399673,7.774597,,,,,,
1478385628.51,-2.373368,1.017175,-2.521673,-1.623064,2.121737,-1.338997,-0.365337,-0.850626,0.378106,-0.006199,-3.223837,-0.489510,-13.965851,-30.401398,6.060181,,,,,,
,,,,,,,,,,,,,,,,37.354250,-122.033444,40.867249,0.280000,250.312500,1478385718.00
1478385628.53,-2.323378,1.054975,-2.533078,-1.509102,2.198640,-1.190077,-0.360036,-0.869888,0.337148,1.633092,-1.642899,-0.823110,-13.665741,-30.852814,4.639526,,,,,,
1478385628.55,-2.299256,1.094622,-2.524225,-0.763163,0.640184,-1.552056,-0.342046,-0.888755,0.305155,2.683873,0.501212,-0.516611,-13.665741,-30.852814,4.639526,,,,,,
1478385628.57,-2.289946,1.062251,-2.544028,1.740349,-0.777652,3.853547,-0.366332,-0.873454,0.320748,0.844268,-0.433248,0.787361,-14.115738,-31.304169,3.286377,,,,,,
1478385628.59,-2.274181,0.927864,-2.607716,3.903370,-2.453460,6.889156,-0.457247,-0.800341,0.387787,0.419009,-0.840208,-0.156113,-15.532059,-29.429337,3.116638,,,,,,
1478385628.61,-2.305762,0.766084,-2.617241,5.773422,-1.456897,5.850234,-0.534603,-0.693318,0.483228,0.855877,-1.676448,0.595966,-18.819046,-25.601532,5.922241,,,,,,
1478385628.63,-2.338313,0.591571,-2.601110,6.610169,-1.125336,6.188087,-0.597346,-0.557666,0.576356,0.440150,-2.071316,0.358382,-20.977325,-20.873505,8.961487,,,,,,
1478385628.65,-2.364576,0.407435,-2.590353,6.715992,-0.706626,5.921248,-0.643759,-0.396256,0.654642,-0.062754,-2.273117,0.945929,-20.977325,-20.873505,8.961487,,,,,,
1478385628.67,-2.355264,0.250331,-2.578057,5.799170,1.592013,4.787038,-0.685704,-0.247725,0.684429,-0.786449,-3.004457,0.709507,-24.031647,-15.094940,12.513611,,,,,,
1478385628.69,-2.312253,0.106942,-2.579615,4.310379,2.146428,5.568059,-0.733273,-0.106738,0.671504,-0.095295,-1.898511,-0.339122,-27.957703,-3.392471,14.989197,,,,,,
1478385628.71,-2.278898,-0.019728,-2.602674,2.719788,1.054651,5.250309,-0.759450,0.019727,0.650266,0.589284,-0.906537,-0.573881,-29.957886,1.931976,14.428223,,,,,,
1478385628.73,-2.286379,-0.102932,-2.632593,0.858135,-0.953145,3.373945,-0.750717,0.102750,0.652585,0.932342,-0.380704,-0.580929,-30.761047,6.731796,14.255798,,,,,,
1478385628.75,-2.327090,-0.128109,-2.673071,-1.617174,-2.177188,1.730517,-0.721424,0.127759,0.680607,0.391940,0.405688,-0.566425,-30.761047,6.731796,14.255798,,,,,,
1478385628.77,-2.366579,-0.096185,-2.730085,-4.050883,-1.025375,0.292424,-0.696492,0.096037,0.711109,0.600575,1.363024,-0.668797,-30.976791,9.132843,15.296448,,,,,,
1478385628.79,-2.364413,-0.011544,-2.795014,-5.988651,0.917650,-1.170409,-0.701225,0.011544,0.712846,0.981697,1.466133,-0.599565,-30.523636,10.560013,17.471741,,,,,,
1478385628.81,-2.330422,0.116693,-2.863640,-7.436604,1.874812,-2.773997,-0.720162,-0.116428,0.683967,1.322228,0.811863,-0.658317,-32.572784,6.363541,20.988770,,,,,,
1478385628.83,-2.279618,0.277768,-2.922967,-7.522444,1.760535,-4.807669,-0.730032,-0.274210,0.625989,1.701162,0.635874,-0.547056,-34.773087,0.888977,21.433228,,,,,,
1478385628.85,-2.241807,0.455972,-2.968272,-7.038262,0.784462,-5.823444,-0.703177,-0.440335,0.558253,1.855002,0.616971,-0.264170,-34.773087,0.888977,21.433228,,,,,,
1478385628.87,-2.215140,0.633130,-2.994794,-5.842963,0.716413,-6.621800,-0.644536,-0.591671,0.484251,1.330220,0.844082,-0.113997,-35.028732,-6.161758,20.701782,,,,,,
1478385628.89,-2.200718,0.803345,-2.991604,-4.382581,0.889975,-7.019440,-0.561049,-0.719682,0.409001,0.997725,1.359041,-0.265172,-34.612869,-14.338516,18.930542,,,,,,
1478385628.91,-2.223908,0.954487,-2.954864,-3.207119,-0.310370,-6.481144,-0.459068,-0.816017,0.351245,0.447761,1.643425,-0.230456,-32.395447,-22.215424,17.026367,,,,,,
1478385628.93,-2.303523,1.083296,-2.887737,-2.399061,-1.200028,-5.904169,-0.348201,-0.883507,0.313325,-0.439077,1.935615,0.283233,-25.167099,-33.919449,13.008728,,,,,,
1478385628.95,-2.434627,1.185357,-2.754961,-1.348092,-0.125157,-5.314957,-0.244201,-0.926633,0.285860,-1.428391,2.206022,0.785780,-25.167099,-33.919449,13.008728,,,,,,
1478385628.97,-2.603703,1.253748,-2.562516,-0.545520,0.897756,-4.263693,-0.159724,-0.950160,0.267740,-1.842152,1.842204,0.938223,-19.781265,-37.520813,11.648376,,,,,,
1478385628.99,-2.788926,1.286889,-2.351723,0.064142,0.708420,-3.064383,-0.096750,-0.959968,0.262870,-2.020910,1.224342,0.990670,-15.437973,-39.396957,10.497498,,,,,,
1478385629.01,-2.931730,1.293173,-2.187883,0.435461,0.802017,-1.778168,-0.057096,-0.961710,0.268057,-2.348544,0.968622,0.963831,-15.437973,-39.396957,10.497498,,,,,,
1478385629.03,-2.985998,1.290808,-2.111060,0.116732,1.065994,-0.663632,-0.042824,-0.961059,0.273006,-1.955619,0.883330,0.416310,-7.643738,-41.273758,8.705994,,,,,,
1478385629.05,-3.010928,1.302153,-2.088795,-0.484830,-2.386204,-0.128211,-0.034583,-0.964132,0.263161,-0.987496,1.254690,1.946281,-7.643738,-41.273758,8.705994,,,,,,
1478385629.07,-2.951431,1.256137,-2.084195,0.106647,0.865901,2.060277,-0.058500,-0.950902,0.303914,-5.280597,-5.094951,-8.513523,-7.272339,-42.324493,7.962830,,,,,,
1478385629.09,-2.819038,1.230224,-2.308179,1.531214,2.641850,6.012256,-0.105883,-0.942564,0.316801,2.361407,7.973142,3.970095,-7.730118,-43.447693,9.761658,,,,,,
1478385629.11,-2.706208,1.157772,-2.405257,2.033448,-0.328041,0.044232,-0.169286,-0.915911,0.363936,1.872304,-0.625181,0.656862,-13.356125,-43.146103,11.354492,,,,,,
1478385629.13,-2.756796,1.135393,-2.329118,1.178965,-0.406826,-0.209619,-0.158323,-0.906700,0.390934,-2.015933,-1.858635,-0.651371,-13.193176,-39.995285,12.171692,,,,,,
1478385629.15,-2.706248,1.092115,-2.404563,1.431831,0.649197,2.978693,-0.194249,-0.887603,0.417645,-0.992000,0.182266,0.884036,-13.193176,-39.995285,12.171692,,,,,,
1478385629.17,-2.617035,1.045240,-2.436608,1.663315,3.186519,0.921883,-0.251264,-0.865045,0.434240,1.573499,0.666345,0.200740,-13.192703,-39.168121,14.344177,,,,,,
1478385629.19,-2.606427,1.018493,-2.433559,0.943224,-0.781021,0.875527,-0.267563,-0.851318,0.451295,-0.034912,-0.076142,-0.276094,-15.439850,-38.342529,14.919250,,,,,,
1478385629.21,-2.603845,0.991605,-2.463792,0.683669,-0.644373,1.407526,-0.280353,-0.836906,0.470097,-0.861645,-0.127724,0.557109,-16.415176,-38.191879,15.584045,,,,,,
1478385629.23,-2.570898,0.970364,-2.477072,0.627830,1.733932,0.598765,-0.305222,-0.825091,0.475462,-0.081817,-0.023053,0.428545,-16.036819,-37.216202,16.259949,,,,,,
1478385629.25,-2.545171,0.963593,-2.486641,-0.210628,0.311267,0.307055,-0.320482,-0.821247,0.472064,-0.368986,-0.058834,0.418027,-16.036819,-37.216202,16.259949,,,,,,
1478385629.27,-2.525957,0.976496,-2.499552,-1.015213,0.762796,-0.322403,-0.323346,-0.828541,0.457130,-0.874453,-0.328961,0.793252,-17.457184,-36.316589,15.868042,,,,,,
1478385629.29,-2.489038,1.007634,-2.512179,-1.676817,1.549656,-0.802290,-0.324171,-0.845571,0.424173,-0.801348,-0.836833,0.660025,-17.982849,-36.617035,15.413635,,,,,,
1478385629.31,-2.440529,1.050769,-2.521167,-1.847109,2.492730,-1.483782,-0.320518,-0.867805,0.379713,-0.481346,-2.094032,-0.032865,-17.304703,-36.468689,13.770020,,,,,,
1478385629.33,-2.388837,1.101880,-2.515420,-1.789397,2.943805,-1.795489,-0.308956,-0.892059,0.329815,-0.264500,-2.712098,-0.789074,-16.550903,-36.395996,11.452271,,,,,,
1478385629.35,-2.332826,1.153593,-2.513064,-1.933534,2.906721,-2.085384,-0.293140,-0.914226,0.279750,1.617252,-1.674840,-0.926296,-16.550903,-36.395996,11.452271,,,,,,
1478385629.37,-2.328397,1.213483,-2.491233,-1.147242,-1.086130,-2.130258,-0.254095,-0.936840,0.240347,2.879781,0.820782,0.266641,-15.724808,-36.848099,9.361938,,,,,,
1478385629.39,-2.339766,1.179287,-2.550422,1.162197,-3.373460,4.780161,-0.274217,-0.924334,0.265352,0.333131,0.354724,0.006972,-13.922165,-37.451675,5.781799,,,,,,
1478385629.41,-2.291690,1.047761,-2.664648,3.361421,-1.951550,6.726016,-0.375242,-0.866307,0.329706,0.217054,-0.122966,0.616339,-15.794525,-36.249817,7.634460,,,,,,
1478385629.43,-2.264630,0.895321,-2.705124,4.440054,0.072250,6.526186,-0.480706,-0.780410,0.399853,0.658502,-1.622773,-0.038921,-19.531494,-32.346802,10.660278,,,,,,
1478385629.45,-2.260989,0.724880,-2.721616,5.527883,-0.665138,7.167103,-0.577247,-0.663045,0.476610,0.685325,-1.941081,-0.085023,-19.531494,-32.346802,10.660278,,,,,,
1478385629.47,-2.272546,0.541745,-2.715297,6.185113,0.018727,6.503432,-0.654358,-0.515632,0.553118,0.455063,-1.684243,0.576490,-23.414764,-27.694000,13.457581,,,,,,
1478385629.49,-2.261389,0.374803,-2.695508,5.545694,1.265744,5.506775,-0.717355,-0.366089,0.592774,-0.353629,-2.553634,0.467285,-28.462051,-14.113388,19.066345,,,,,,
1478385629.51,-2.243145,0.222569,-2.696159,4.376298,0.606956,6.374762,-0.763063,-0.220736,0.607463,-0.182570,-2.987012,-0.030452,-30.611237,-8.037369,20.076660,,,,,,
,,,,,,,,,,,,,,,,37.354259,-122.033448,40.723450,1.360000,335.742188,1478385719.00
1478385629.53,-2.239967,0.073654,-2.719757,3.386572,-0.331035,6.415333,-0.782210,-0.073587,0.618654,0.707366,-1.112570,-0.195390,-32.006363,-1.287033,20.417480,,,,,,
1478385629.55,-2.257525,-0.043319,-2.742759,2.385775,-1.104179,4.449841,-0.772599,0.043305,0.633416,0.851959,-0.442353,-0.036904,-32.006363,-1.287033,20.417480,,,,,,
1478385629.57,-2.279763,-0.112712,-2.757176,1.142735,-1.103844,2.456141,-0.754219,0.112473,0.646918,0.534676,-0.137330,-0.269599,-32.358047,4.264053,21.522278,,,,,,
1478385629.59,-2.309423,-0.139402,-2.779432,-0.619546,-1.528059,1.351433,-0.732221,0.138951,0.666742,0.337278,0.432079,-0.643884,-31.507248,10.340103,22.562561,,,,,,
1478385629.61,-2.347678,-0.122293,-2.812726,-2.509711,-1.761339,-0.076704,-0.707778,0.121988,0.695823,0.937178,1.230414,-0.814506,-31.356232,11.016464,23.911987,,,,,,
1478385629.63,-2.387355,-0.053494,-2.848594,-4.435153,-1.723978,-1.706089,-0.683754,0.053469,0.727751,1.043022,1.444166,-0.810637,-32.039658,9.893707,26.158508,,,,,,
1478385629.65,-2.402515,0.060038,-2.884338,-5.915879,-0.057207,-3.033198,-0.672393,-0.060002,0.737759,0.788527,0.851597,-0.601559,-32.039658,9.893707,26.158508,,,,,,
1478385629.67,-2.384050,0.210902,-2.914683,-6.906999,0.998873,-4.538492,-0.671913,-0.209342,0.710428,0.782005,0.787513,-0.642176,-32.208099,6.445663,28.117188,,,,,,
1478385629.69,-2.357581,0.384843,-2.945109,-7.352530,0.711639,-5.307185,-0.654478,-0.375414,0.656295,1.013365,0.412340,-0.757415,-32.381866,1.421417,28.880554,,,,,,
1478385629.71,-2.337904,0.566154,-2.971980,-7.100167,0.227593,-5.707667,-0.607592,-0.536390,0.585763,0.856325,-0.075487,-0.544488,-33.571167,-13.580719,26.738647,,,,,,
1478385629.73,-2.314896,0.738984,-2.994920,-6.217419,0.676080,-5.689940,-0.543794,-0.673537,0.500636,0.621018,0.244246,-0.143183,-32.478622,-21.608170,24.298645,,,,,,
1478385629.75,-2.291079,0.898982,-2.997222,-4.961222,1.419241,-6.043631,-0.467813,-0.782694,0.410538,0.456506,0.849390,0.031189,-32.478622,-21.608170,24.298645,,,,,,
1478385629.77,-2.281778,1.044576,-2.964637,-3.551046,1.858632,-5.969453,-0.380580,-0.864712,0.327769,0.237940,1.435772,0.004781,-30.253143,-28.286865,20.590942,,,,,,
1478385629.79,-2.320933,1.162026,-2.903292,-2.555705,-0.068609,-4.945201,-0.290795,-0.917610,0.270978,0.063577,1.779885,-0.167600,-26.373123,-34.065857,16.597107,,,,,,
1478385629.81,-2.438058,1.256786,-2.785887,-1.571332,0.011169,-4.738132,-0.199817,-0.951102,0.235536,-0.590878,1.897498,0.632277,-18.896027,-40.896088,11.367371,,,,,,
1478385629.83,-2.645817,1.321854,-2.549547,-0.408095,1.546808,-4.291694,-0.117206,-0.969174,0.216715,-1.451474,1.854504,0.949331,-15.451935,-42.547104,10.356750,,,,,,
1478385629.85,-2.898840,1.346758,-2.242254,0.429753,2.734200,-3.507022,-0.053404,-0.975008,0.215655,-1.885180,1.362520,1.087049,-15.451935,-42.547104,10.356750,,,,,,
1478385629.87,-3.092283,1.340916,-1.983450,0.764548,2.879957,-2.309406,-0.011231,-0.973694,0.227584,-2.200393,0.894836,1.000962,-11.477020,-42.923187,9.272583,,,,,,
1478385629.89,3.131570,1.327511,-1.872712,0.611994,2.055292,-0.727470,0.002414,-0.970552,0.240880,-2.183231,0.788194,0.620753,-9.077148,-43.073532,8.922058,,,,,,
1478385629.91,-3.139953,1.324648,-1.863064,-0.262906,0.275269,0.162518,-0.000400,-0.969858,0.243670,-1.548688,0.971140,0.212018,-7.651505,-42.998749,8.711121,,,,,,
1478385629.93,3.069283,1.296111,-1.794845,4.985113,4.755523,-3.927316,0.019596,-0.962511,0.270535,-0.439549,0.617570,1.500675,-5.392410,-41.048950,8.502869,,,,,,
1478385629.95,3.038382,1.301764,-1.876143,-0.978551,-12.259764,3.620532,0.027384,-0.964029,0.264384,-5.661784,-4.293693,-6.388392,-5.392410,-41.048950,8.502869,,,,,,
1478385629.97,-2.847643,1.259367,-2.297137,2.683778,3.128933,5.597737,-0.088780,-0.951897,0.293276,0.369801,7.121391,3.016340,-8.555771,-43.372025,10.428162,,,,,,
1478385629.99,-2.812113,1.217547,-2.280520,1.680314,3.114801,-2.052882,-0.111932,-0.938254,0.327340,2.102715,-0.183359,1.054634,-12.224731,-41.721100,11.361511,,,,,,
1478385630.01,-2.849448,1.201945,-2.216404,0.785356,-1.914232,1.101736,-0.103839,-0.932742,0.345268,-1.115170,-1.463102,-1.430732,-11.915283,-39.320190,12.257385,,,,,,
1478385630.03,-2.740841,1.158827,-2.352761,1.394259,1.129694,3.098434,-0.156206,-0.916334,0.368689,-1.507841,-0.603731,0.594247,-14.089325,-38.568573,13.883484,,,,,,
1478385630.05,-2.681076,1.122422,-2.369729,1.461065,1.840579,0.238202,-0.192653,-0.901153,0.388340,1.671718,1.008438,0.366085,-14.089325,-38.568573,13.883484,,,,,,
1478385630.07,-2.684966,1.092819,-2.364023,1.343297,-0.557841,1.025238,-0.202818,-0.887927,0.412856,0.186002,0.127460,-0.488906,-16.189392,-38.342850,14.611755,,,,,,
1478385630.09,-2.667781,1.061869,-2.394317,0.959553,-0.009236,1.332716,-0.222319,-0.873268,0.433564,-0.699419,-0.613915,0.176955,-16.336365,-37.442169,15.282593,,,,,,
1478385630.11,-2.621850,1.039132,-2.412454,0.682276,1.997953,0.523618,-0.251789,-0.861965,0.440022,0.327183,0.361904,0.998211,-17.684189,-36.540909,16.541443,,,,,,
1478385630.13,-2.594200,1.029996,-2.411972,0.177714,1.090953,0.238181,-0.267946,-0.857297,0.439599,-0.258986,0.147885,-0.001672,-18.508057,-36.240768,16.682251,,,,,,
1478385630.15,-2.567021,1.028828,-2.414602,-0.096926,1.506934,-0.138305,-0.280338,-0.856695,0.432995,-0.698895,-0.200327,0.364185,-18.508057,-36.240768,16.682251,,,,,,
1478385630.17,-2.541963,1.043961,-2.406192,-0.798728,1.459119,-0.794601,-0.283749,-0.864403,0.415084,-0.735294,-0.056190,0.402101,-19.328430,-35.642059,15.397278,,,,,,
1478385630.19,-2.519385,1.077291,-2.401779,-1.581055,1.371787,-1.250281,-0.276096,-0.880678,0.384939,-0.635174,-0.384871,0.631251,-19.629547,-36.092667,14.795593,,,,,,
1478385630.21,-2.496660,1.124636,-2.394246,-1.837996,1.585052,-1.629431,-0.259397,-0.902111,0.344833,-0.489001,-1.515828,0.434434,-19.631027,-36.919159,13.298096,,,,,,
1478385630.23,-2.467400,1.171342,-2.377512,-1.485134,2.740071,-1.794451,-0.242787,-0.921273,0.303826,0.144658,-2.656379,0.342018,-18.055954,-37.671463,10.991089,,,,,,
1478385630.25,-2.444212,1.217836,-2.326391,-1.044723,3.926801,-2.458184,-0.221998,-0.938353,0.264971,1.203383,-0.949083,-0.059725,-18.055954,-37.671463,10.991089,,,,,,
1478385630.27,-2.459093,1.266662,-2.227132,-0.696563,3.804038,-2.838275,-0.188885,-0.954106,0.232387,1.547375,0.528798,-0.254344,-17.086075,-40.075272,7.183044,,,,,,
1478385630.29,-2.438142,1.283628,-2.164775,0.393973,4.369972,0.243304,-0.183213,-0.959050,0.216001,0.096863,0.522084,1.095599,-15.962326,-40.901917,5.546692,,,,,,
1478385630.31,-2.279076,1.245031,-2.208692,1.327675,7.028466,2.026795,-0.243060,-0.947406,0.208191,-0.239377,0.170764,0.388153,-15.361328,-41.128250,4.203369,,,,,,
1478385630.33,-2.172735,1.198320,-2.154820,2.397897,7.706851,1.133049,-0.299959,-0.931429,0.206068,0.336748,0.617342,0.347856,-17.683701,-40.904327,3.129517,,,,,,
1478385630.35,-2.115501,1.135832,-2.097543,2.737994,4.072402,2.642939,-0.360396,-0.906885,0.218343,0.929320,0.150477,-0.058660,-17.683701,-40.904327,3.129517,,,,,,
1478385630.37,-2.105382,1.052868,-2.048530,3.382851,2.194344,3.070537,-0.426007,-0.868847,0.252236,0.916135,0.039425,-0.056451,-19.103745,-40.230621,1.838257,,,,,,
1478385630.39,-2.115052,0.960246,-1.977993,4.376165,2.947177,2.893773,-0.490482,-0.819333,0.296854,0.349628,0.318768,0.261984,-24.568634,-37.378799,3.650085,,,,,,
1478385630.41,-2.105874,0.869137,-1.891737,4.579670,4.302662,2.316634,-0.555265,-0.763772,0.329138,-0.058306,-0.130377,0.569787,-26.661819,-35.352264,5.198059,,,,,,
1478385630.43,-2.081969,0.793745,-1.820651,3.577044,3.265156,2.070572,-0.611549,-0.712984,0.343018,0.123528,-1.456709,0.523544,-28.527893,-33.101456,5.997681,,,,,,
1478385630.45,-2.077680,0.722734,-1.766713,3.581867,1.460906,2.088054,-0.655696,-0.661438,0.364091,0.208431,-0.691269,-0.226686,-28.527893,-33.101456,5.997681,,,,,,
,,,,,,,,,,,,,,,,37.354273,-122.033451,41.083252,1.360000,349.101562,1478385720.00
1478385630.47,-2.093102,0.654702,-1.690800,4.575358,2.080733,1.050844,-0.687470,-0.608922,0.395726,0.314316,0.562246,0.194927,-30.471329,-31.450882,6.573303,,,,,,
1478385630.49,-2.088962,0.604288,-1.593621,4.602805,3.545149,-0.178039,-0.714883,-0.568177,0.407575,0.165170,0.305161,0.433566,-33.986359,-28.373306,9.153870,,,,,,
1478385630.51,-2.070891,0.567485,-1.496912,4.308102,3.341224,-0.362881,-0.739988,-0.537513,0.404349,-0.155428,-0.181496,-0.173651,-35.033524,-27.547714,9.740906,,,,,,
1478385630.53,-2.065664,0.534877,-1.408405,4.018937,2.152941,-0.411527,-0.757119,-0.509735,0.408585,0.080086,-0.015763,-0.631363,-35.558731,-27.472351,10.110474,,,,,,
1478385630.55,-2.085711,0.507620,-1.320017,3.995965,0.521031,-0.786798,-0.760589,-0.486099,0.430363,0.238158,0.198333,-0.821873,-35.558731,-27.472351,10.110474,,,,,,
1478385630.57,-2.128010,0.479402,-1.233327,4.060366,-0.212148,-0.634850,-0.753055,-0.461249,0.469210,-0.178448,-0.157785,-0.401201,-36.608368,-27.096466,10.998840,,,,,,
1478385630.59,-2.165422,0.441189,-1.150462,4.231049,0.203404,-0.293652,-0.749038,-0.427015,0.506556,-0.658539,-0.481920,-0.212642,-36.384384,-26.644424,13.024780,,,,,,
1478385630.61,-2.185790,0.393763,-1.071541,4.341713,0.715459,0.015655,-0.754271,-0.383666,0.532800,-0.728212,-0.561540,-0.284067,-35.558563,-24.689102,18.352051,,,,,,
1478385630.63,-2.197290,0.339540,-0.999836,4.286059,0.646140,0.393589,-0.763839,-0.333053,0.552834,-0.425355,-0.537552,-0.250054,-36.001007,-22.512604,19.841125,,,,,,
1478385630.65,-2.204733,0.282485,-0.934355,4.153927,0.693506,0.469347,-0.773769,-0.278743,0.568844,-0.147481,-0.427601,-0.205563,-36.001007,-22.512604,19.841125,,,,,,
1478385630.67,-2.204087,0.227291,-0.872285,3.988299,0.837684,0.441677,-0.785352,-0.225339,0.576580,0.111661,-0.335422,-0.277264,-37.345596,-20.710831,21.622314,,,,,,
1478385630.69,-2.205116,0.174177,-0.814619,3.751784,0.208775,0.483341,-0.793288,-0.173297,0.583663,0.392378,-0.240628,-0.483016,-37.108521,-17.709869,22.590698,,,,,,
1478385630.71,-2.224537,0.126197,-0.762301,3.350770,-1.067483,0.251558,-0.787502,-0.125862,0.603324,0.708843,-0.196572,-0.589728,-38.216705,-13.207565,24.891113,,,,,,
1478385630.73,-2.264107,0.090281,-0.714053,2.766105,-2.042134,-0.311993,-0.766002,-0.090158,0.636484,0.890071,-0.142874,-0.627634,-38.362991,-11.630310,27.134949,,,,,,
1478385630.75,-2.312485,0.069913,-0.669052,2.109637,-2.263492,-0.949455,-0.735528,-0.069856,0.673883,0.761620,-0.079253,-0.762079,-38.362991,-11.630310,27.134949,,,,,,
1478385630.77,-2.353086,0.066152,-0.625165,1.495878,-1.555861,-1.638777,-0.707750,-0.066103,0.703363,0.558489,-0.164243,-0.869501,-36.634064,-10.053207,29.247437,,,,,,
1478385630.79,-2.376456,0.078820,-0.580142,0.870180,-0.754795,-2.274442,-0.690485,-0.078739,0.719049,0.532709,-0.268887,-1.008401,-35.210083,-9.601166,31.285339,,,,,,
1478385630.81,-2.390844,0.108417,-0.536264,0.166166,-0.393564,-2.812089,-0.678181,-0.108205,0.726885,0.483418,-0.312007,-1.226290,-33.865051,-10.274872,32.575806,,,,,,
1478385630.83,-2.400762,0.154304,-0.492109,-0.393776,-0.120570,-3.366824,-0.666882,-0.153693,0.729141,0.473294,-0.330087,-1.298553,-32.307739,-13.949112,33.352417,,,,,,
1478385630.85,-2.409980,0.213178,-0.446053,-0.812464,0.000410,-3.827709,-0.652947,-0.211567,0.727255,0.467233,-0.202190,-1.280920,-32.307739,-13.949112,33.352417,,,,,,
1478385630.87,-2.420323,0.281848,-0.397675,-1.125371,0.096974,-4.132488,-0.634284,-0.278131,0.721337,0.423682,-0.060965,-1.138436,-30.444366,-16.574219,33.228943,,,,,,
1478385630.89,-2.434799,0.357353,-0.348382,-1.420575,0.046689,-4.319046,-0.608374,-0.349795,0.712407,0.299780,-0.000180,-0.927114,-28.732697,-19.724808,32.655457,,,,,,
1478385630.91,-2.449351,0.437770,-0.295678,-1.565179,0.518483,-4.530616,-0.578076,-0.423921,0.697223,0.112789,0.015550,-0.607104,-26.272690,-23.175140,32.315369,,,,,,
1478385630.93,-2.455998,0.521800,-0.238549,-1.669976,1.236851,-4.659169,-0.548878,-0.498442,0.671035,0.047673,-0.136736,-0.486557,-20.973022,-29.552399,30.062622,,,,,,
1478385630.95,-2.459323,0.608456,-0.183724,-1.862708,1.039430,-4.332035,-0.517391,-0.571602,0.636850,0.041439,-0.391533,-0.637445,-20.973022,-29.552399,30.062622,,,,,,
1478385630.97,-2.475678,0.693875,-0.138119,-2.421241,0.322299,-3.982399,-0.474932,-0.639521,0.604527,0.004213,-0.631155,-0.537495,-18.508438,-32.479233,28.221008,,,,,,
1478385630.99,-2.500085,0.786456,-0.101334,-3.128133,-0.083227,-3.853329,-0.422688,-0.707855,0.565930,-0.057766,-0.623292,-0.215695,-15.592163,-35.106293,26.158020,,,,,,
1478385631.01,-2.518409,0.885178,-0.074062,-3.591172,0.306753,-3.489798,-0.369523,-0.774027,0.514135,-0.322784,-0.586355,-0.010931,-11.701462,-37.808197,24.255005,,,,,,
1478385631.03,-2.514260,0.982422,-0.058928,-3.709190,1.085923,-3.080791,-0.325783,-0.831844,0.449333,-0.357826,-0.530766,0.000633,-8.856277,-39.986542,20.914978,,,,,,
1478385631.05,-2.492992,1.077598,-0.051099,-3.710583,1.565263,-2.973701,-0.285995,-0.880823,0.377303,-0.269867,-0.343283,0.040742,-8.856277,-39.986542,20.914978,,,,,,
1478385631.07,-2.461065,1.173038,-0.049769,-3.742699,1.613151,-2.974694,-0.243723,-0.921932,0.301066,-0.180654,-0.319951,0.191717,-2.858658,-42.993973,13.484009,,,,,,
1478385631.09,-2.439244,1.264246,-0.045685,-3.376930,1.178317,-2.953885,-0.194948,-0.953380,0.230350,-0.141066,-0.282322,0.538128,-0.231110,-43.672699,9.762329,,,,,,
1478385631.11,-2.429034,1.348925,-0.034617,-2.927443,0.945039,-2.791344,-0.143866,-0.975487,0.166514,-0.177042,-0.349174,0.408987,2.020294,-44.425903,6.562134,,,,,,
1478385631.13,-2.461661,1.422929,0.015535,-2.317687,0.845622,-2.728589,-0.092632,-0.989088,0.114566,-0.113652,-0.122042,0.382047,5.024857,-44.428940,3.517151,,,,,,
1478385631.15,-2.648449,1.484213,0.230151,-1.552578,1.773044,-2.690517,-0.040937,-0.996254,0.076172,-0.138232,0.020927,0.560059,5.024857,-44.428940,3.517151,,,,,,
1478385631.17,3.029411,1.517302,0.893633,-0.873962,3.518998,-2.442002,0.005986,-0.998570,0.053132,-0.424168,-0.059963,0.605986,9.757675,-43.907562,-0.112061,,,,,,
1478385631.19,2.370799,1.502503,1.640591,-0.120257,4.753509,-2.241776,0.047543,-0.997669,0.048953,-0.393887,0.232608,0.668348,11.709396,-43.532623,-0.168701,,,,,,
1478385631.21,2.217429,1.469986,1.893297,0.368077,4.869485,-1.708536,0.080322,-0.994923,0.060636,-0.094193,0.360005,0.392459,13.662430,-42.556717,0.747925,,,,,,
1478385631.23,2.247775,1.442577,1.952503,0.659815,4.239181,-1.055888,0.099669,-0.991791,0.080102,-0.044875,0.374604,0.191138,15.389328,-41.655273,2.187500,,,,,,
1478385631.25,2.341138,1.420565,1.940516,0.872048,4.046816,-0.610516,0.107412,-0.988737,0.104225,-0.142446,0.505048,0.126061,15.389328,-41.655273,2.187500,,,,,,
1478385631.27,2.466812,1.401969,1.901423,0.864119,4.664021,-0.305400,0.104971,-0.985783,0.131203,-0.201864,0.498890,0.059990,16.063980,-41.128464,3.992676,,,,,,
1478385631.29,2.647193,1.380464,1.827944,1.311392,6.123924,-0.079450,0.089769,-0.981941,0.166531,-0.578783,0.455467,0.477710,14.635788,-40.298828,8.625854,,,,,,
1478385631.31,2.866777,1.347737,1.758380,2.550443,7.864963,0.203066,0.060031,-0.975225,0.212914,-0.965091,0.440130,0.542381,13.809219,-39.771210,11.241028,,,,,,
1478385631.33,-3.059455,1.281846,1.528153,2.640674,5.265521,4.906746,-0.023378,-0.958543,0.283986,-0.856184,-0.506331,2.078380,11.708725,-38.567261,15.191406,,,,,,
1478385631.35,-2.748489,1.229455,1.195760,0.325395,-2.927914,4.631237,-0.128229,-0.942307,0.309218,5.872232,-5.775833,-2.028364,11.708725,-38.567261,15.191406,,,,,,
1478385631.37,-2.774112,1.189492,1.063794,1.275582,-6.877964,2.492658,-0.133694,-0.928180,0.347286,1.024822,1.367969,0.726673,4.576065,-39.088730,18.721680,,,,,,
1478385631.39,-2.728398,1.130571,0.985397,2.160945,0.754089,2.760930,-0.171113,-0.904655,0.390281,-2.940414,-0.724846,0.693490,-0.079254,-39.461304,21.151184,,,,,,
1478385631.41,-2.647956,1.079175,0.915110,1.480081,1.178810,2.171145,-0.223675,-0.881569,0.415699,-1.858951,-0.723473,0.389324,-1.802536,-38.559753,22.706299,,,,,,
1478385631.43,-2.621159,1.042858,0.898016,1.328065,-0.576048,0.746120,-0.250495,-0.863848,0.437058,1.350013,1.186510,-0.250748,-4.278137,-38.333649,23.805908,,,,,,
1478385631.45,-2.639728,1.012599,0.899700,1.335131,-0.436820,0.786047,-0.254798,-0.848211,0.464344,-0.662622,-0.230387,0.007961,-4.278137,-38.333649,23.805908,,,,,,
1478385631.47,-2.633416,0.981216,0.893285,1.225889,0.442101,0.878022,-0.270547,-0.831174,0.485750,-0.651679,-0.345797,0.293959,-5.176559,-37.582458,24.994629,,,,,,
1478385631.49,-2.625187,0.957245,0.899419,1.068769,0.620378,0.219023,-0.284293,-0.817608,0.500693,0.180961,0.269665,0.149011,-6.149612,-36.681046,26.407166,,,,,,
,,,,,,,,,,,,,,,,37.354277,-122.033450,41.182617,1.300000,349.804688,1478385721.00
1478385631.51,-2.622947,0.938049,0.909096,0.909491,0.483736,0.264312,-0.293141,-0.806406,0.513594,0.053608,0.005655,0.101565,-6.896896,-35.629715,27.746521,,,,,,
1478385631.53,-2.614369,0.920980,0.914391,0.781915,0.754874,0.311846,-0.304417,-0.796195,0.522880,-0.147106,-0.127893,0.117195,-7.869415,-34.879120,28.334595,,,,,,
1478385631.55,-2.597933,0.903790,0.917392,0.800626,0.928601,0.377531,-0.320003,-0.785677,0.529442,0.142528,-0.067396,-0.036095,-7.869415,-34.879120,28.334595,,,,,,
1478385631.57,-2.589883,0.887752,0.918905,0.643022,0.250273,0.366843,-0.330818,-0.775655,0.537512,0.247382,0.068196,-0.027487,-9.144257,-34.578308,29.145874,,,,,,
1478385631.59,-2.579054,0.872670,0.916989,0.616090,0.738487,0.510239,-0.342819,-0.766048,0.543733,-0.080200,-0.124913,0.156798,-9.669266,-34.427872,29.590210,,,,,,
1478385631.61,-2.557581,0.857358,0.914785,0.571457,1.009854,0.461761,-0.360841,-0.756116,0.545969,0.126130,0.038220,0.100896,-11.167770,-33.827057,30.398438,,,,,,
1478385631.63,-2.534485,0.842946,0.909132,0.452653,0.933526,0.630155,-0.379531,-0.746606,0.546384,0.035567,-0.168876,-0.007047,-12.216171,-33.301544,30.911438,,,,,,
1478385631.65,-2.510185,0.828391,0.898617,0.335404,0.678288,0.739296,-0.399067,-0.736845,0.545715,0.246281,0.031797,-0.029907,-12.216171,-33.301544,30.911438,,,,,,
1478385631.67,-2.492846,0.815525,0.884764,0.178042,0.291169,0.808474,-0.414162,-0.728086,0.546224,0.144875,0.028486,0.046015,-14.090576,-33.226715,30.742432,,,,,,
1478385631.69,-2.467562,0.801567,0.865269,0.135405,0.741016,1.050032,-0.434140,-0.718447,0.543467,0.013364,-0.164457,0.132162,-14.838104,-32.626572,30.883179,,,,,,
1478385631.71,-2.435976,0.785376,0.842561,0.084428,0.747541,1.165351,-0.458571,-0.707091,0.538270,0.289428,-0.030290,0.076552,-15.511826,-32.326508,30.950439,,,,,,
1478385631.73,-2.407065,0.768633,0.817379,0.014948,0.536031,1.257601,-0.481808,-0.695153,0.533501,0.260937,0.041909,0.044914,-18.885101,-31.951538,30.915588,,,,,,
1478385631.75,-2.377328,0.750174,0.791949,0.068244,0.566053,1.342181,-0.506252,-0.681766,0.528114,0.200786,0.135059,0.026711,-18.885101,-31.951538,30.915588,,,,,,
1478385631.77,-2.347904,0.727756,0.768003,0.254829,0.895656,1.451323,-0.532334,-0.665196,0.523579,0.059159,-0.321026,0.199748,-19.707733,-31.426544,30.905762,,,,,,
1478385631.79,-2.297585,0.698798,0.751095,0.730155,2.524011,1.566677,-0.572154,-0.643298,0.508731,-0.064565,-0.701856,0.379742,-21.207245,-31.276413,31.040344,,,,,,
1478385631.81,-2.243149,0.657943,0.743333,1.268411,2.287308,1.950526,-0.619043,-0.611490,0.492814,0.255655,-1.235906,-0.236756,-23.379272,-30.751816,30.642090,,,,,,
1478385631.83,-2.191102,0.598991,0.737812,1.789071,2.409609,2.734922,-0.672039,-0.563810,0.480085,0.082653,-1.528796,-0.355055,-29.065369,-27.902557,29.901733,,,,,,
1478385631.85,-2.136731,0.521375,0.740716,2.538734,3.158159,3.435965,-0.731939,-0.498073,0.464962,0.275609,-2.059102,-0.018444,-29.065369,-27.902557,29.901733,,,,,,
1478385631.87,-2.069824,0.435160,0.752147,2.618474,3.829926,3.368504,-0.796217,-0.421555,0.433970,1.593855,-2.499343,-0.133067,-30.324905,-24.678177,29.279419,,,,,,
1478385631.89,-2.005767,0.350669,0.761515,2.112570,2.746151,3.917017,-0.851692,-0.343526,0.395740,1.311043,-1.628611,-0.137546,-32.328598,-20.479782,27.671753,,,,,,
1478385631.91,-1.985581,0.245215,0.754890,1.694257,-0.191698,5.555715,-0.887825,-0.242765,0.390938,0.903663,-1.399660,0.208611,-33.277710,-15.306534,25.921753,,,,,,
1478385631.93,-1.989263,0.123612,0.732854,1.249192,0.289229,6.023164,-0.906741,-0.123298,0.403259,0.669772,-0.763680,0.798721,-34.607086,-10.656326,26.119568,,,,,,
1478385631.95,-1.941629,0.008717,0.713217,1.464702,2.967279,5.655890,-0.931990,-0.008717,0.362378,0.052733,-0.707545,0.186328,-34.607086,-10.656326,26.119568,,,,,,
1478385631.97,-1.906715,-0.117164,0.693145,0.892908,0.700038,6.578186,-0.937635,0.116896,0.327377,0.923063,-1.598616,0.071381,-35.463364,-1.207123,25.332642,,,,,,
1478385631.99,-1.943002,-0.228377,0.652929,-0.564928,-2.743205,5.184708,-0.907341,0.226396,0.354228,1.976127,-0.974535,0.398945,-36.111023,4.341278,23.734558,,,,,,
1478385632.01,-2.039420,-0.276035,0.580458,-2.809702,-3.845258,2.694757,-0.858415,0.272543,0.434561,1.610094,0.167261,0.992289,-34.591995,8.842102,24.561157,,,,,,
1478385632.03,-2.129318,-0.269077,0.506768,-3.698796,-3.162095,0.937535,-0.817524,0.265841,0.510864,1.045765,1.243695,0.193268,-32.192688,9.745285,27.732422,,,,,,
1478385632.05,-2.180299,-0.229627,0.429929,-4.509896,-0.858792,-0.018051,-0.798410,0.227615,0.557434,1.087702,0.742936,0.215378,-32.192688,9.745285,27.732422,,,,,,
1478385632.07,-2.206191,-0.144463,0.362962,-5.546271,-0.472890,-2.583006,-0.796454,0.143961,0.587313,0.798468,0.698156,-0.282549,-28.382248,7.272583,30.028015,,,,,,
1478385632.09,-2.206437,-0.013671,0.313982,-5.997798,0.306205,-4.307151,-0.804616,0.013670,0.593637,1.196279,0.826646,-0.446268,-28.702301,2.998108,30.562622,,,,,,
1478385632.11,-2.219560,0.136650,0.269814,-6.442518,-1.472130,-4.927159,-0.789403,-0.136225,0.598570,1.229268,0.336711,-0.967558,-29.854095,-3.077255,30.194336,,,,,,
1478385632.13,-2.252427,0.302937,0.228726,-6.775255,-2.288116,-5.507999,-0.741186,-0.298325,0.601370,0.866522,-0.165283,-0.703909,-28.454788,-9.002899,29.551147,,,,,,
1478385632.15,-2.288489,0.472973,0.193582,-6.704966,-2.543334,-5.366479,-0.670623,-0.455535,0.585450,0.458282,-0.198320,-0.476777,-28.454788,-9.002899,29.551147,,,,,,
1478385632.17,-2.313590,0.640595,0.166759,-6.218230,-1.359952,-5.699998,-0.590547,-0.597672,0.542256,0.021440,0.250260,0.075588,-24.959015,-15.753677,28.781311,,,,,,
1478385632.19,-2.317068,0.806679,0.166210,-5.379104,0.468391,-6.196736,-0.508011,-0.721993,0.469735,-0.161545,0.459542,0.377539,-17.430099,-27.458069,24.391663,,,,,,
1478385632.21,-2.302976,0.963062,0.177122,-4.773362,1.412833,-5.845847,-0.424670,-0.820944,0.381715,-0.455976,0.592611,0.588347,-13.244263,-31.962143,20.322083,,,,,,
1478385632.23,-2.288492,1.103522,0.200260,-3.902178,1.919439,-5.604679,-0.339338,-0.892799,0.296242,-0.688830,0.695244,0.662346,-8.976334,-34.891205,16.248535,,,,,,
1478385632.25,-2.309179,1.235259,0.266687,-3.127275,1.959076,-5.922680,-0.243519,-0.944234,0.221634,-0.756496,0.552281,0.547074,-8.976334,-34.891205,16.248535,,,,,,
1478385632.27,-2.456128,1.357115,0.446025,-2.508676,0.762324,-5.891776,-0.134240,-0.977257,0.164160,-0.729377,0.284493,0.538370,-4.554565,-36.769684,12.773376,,,,,,
1478385632.29,-2.978335,1.448204,0.965767,-2.087799,-1.129712,-5.670811,-0.019875,-0.992495,0.120659,-0.801154,-0.611356,0.513054,3.994492,-38.499237,8.214050,,,,,,
1478385632.31,2.313054,1.453912,1.940042,-2.070600,-0.741932,-4.748734,0.085941,-0.993177,0.078829,-1.187138,-1.032809,0.846693,8.950119,-37.825989,6.461609,,,,,,
1478385632.33,1.875260,1.405540,2.408975,-1.263733,2.868705,-3.079276,0.156939,-0.986376,0.049316,-1.806246,-0.645460,0.800569,12.703354,-37.677689,4.773682,,,,,,
1478385632.35,1.850067,1.362676,2.533871,-0.190542,5.567060,-1.926775,0.198616,-0.978421,0.056956,-1.298043,-0.130817,0.888707,12.703354,-37.677689,4.773682,,,,,,
1478385632.37,1.945779,1.345079,2.524233,0.726506,3.252471,0.015119,0.208254,-0.974634,0.081970,-0.503069,-0.018194,0.217087,14.879898,-37.302597,4.869324,,,,,,
1478385632.39,2.171747,1.357657,2.343276,1.925141,2.316770,2.330970,0.174469,-0.977372,0.119604,-0.904877,0.681199,0.327875,14.577774,-37.225937,6.516052,,,,,,
1478385632.41,2.620924,1.364923,1.942359,3.001712,3.060907,3.631954,0.101692,-0.978883,0.177334,-1.348778,0.490891,0.575794,11.419388,-37.671692,10.760864,,,,,,
1478385632.43,-3.116698,1.320287,1.456012,3.410260,3.113691,4.795254,-0.006171,-0.968786,0.247821,-0.474252,-1.173990,0.200360,7.290543,-37.142532,14.917969,,,,,,
1478385632.45,-2.902390,1.268831,1.201863,1.518935,-5.443995,3.732053,-0.070462,-0.954754,0.288930,5.202038,-4.365559,-0.676121,7.290543,-37.142532,14.917969,,,,,,
1478385632.47,-2.817269,1.209273,1.063056,2.284915,-5.156025,4.373095,-0.112713,-0.935359,0.335260,2.674541,-6.808812,-3.965402,0.906189,-38.189453,18.007202,,,,,,
1478385632.49,-2.788164,1.144868,0.836632,2.087252,-3.918367,5.222346,-0.143004,-0.910655,0.387629,-3.941713,3.357769,2.385976,-1.049744,-38.937744,19.714966,,,,,,
,,,,,,,,,,,,,,,,37.354271,-122.033451,41.416138,0.500000,320.273438,1478385722.00
1478385632.51,-2.666011,1.071926,0.779901,2.917974,5.565215,0.875758,-0.219054,-0.878124,0.425340,1.392104,1.984493,1.796049,-4.352264,-38.183807,23.654663,,,,,,
1478385632.53,-2.605642,1.018085,0.779819,1.947463,0.132797,2.535480,-0.268094,-0.851104,0.451383,-0.884356,-1.446335,-1.173261,-7.047241,-36.607407,25.047913,,,,,,
1478385632.55,-2.589077,0.965565,0.717416,1.352885,-1.429611,1.904052,-0.298603,-0.822370,0.484296,0.878208,-0.352923,0.336245,-7.047241,-36.607407,25.047913,,,,,,
1478385632.57,-2.594579,0.927131,0.715040,1.679928,-0.053118,1.349623,-0.312152,-0.799901,0.512561,-0.131665,0.960515,0.251568,-9.296082,-35.780716,26.748047,,,,,,
1478385632.59,-2.575806,0.880962,0.682525,1.333331,-0.561843,2.106200,-0.341167,-0.771351,0.537236,-0.278325,-0.493129,-0.147755,-9.445953,-35.254211,28.244934,,,,,,
1478385632.61,-2.567189,0.842822,0.658799,1.136689,-0.290419,1.574531,-0.361512,-0.746524,0.558580,0.164171,-0.057538,0.239135,-10.794586,-34.502884,29.579163,,,,,,
1478385632.63,-2.542782,0.803081,0.633772,1.195825,0.679437,1.901034,-0.391459,-0.719499,0.573656,-0.092993,0.030626,0.192518,-14.619507,-33.600220,32.238220,,,,,,
1478385632.65,-2.513143,0.764926,0.613870,1.119695,0.679562,1.578238,-0.424125,-0.692483,0.583597,0.136771,0.132272,0.078345,-14.619507,-33.600220,32.238220,,,,,,
1478385632.67,-2.494185,0.729516,0.594091,0.905582,0.060839,1.661637,-0.449625,-0.666509,0.594646,-0.041632,-0.144328,-0.091243,-16.790421,-32.474564,32.888123,,,,,,
1478385632.69,-2.478925,0.696542,0.573478,0.822013,0.194653,1.634081,-0.471915,-0.641569,0.604719,-0.025262,-0.004946,0.135714,-18.062805,-31.648834,33.622925,,,,,,
1478385632.71,-2.460670,0.663183,0.553711,0.863084,0.330053,1.611019,-0.496077,-0.615628,0.612298,0.047530,-0.148440,0.146247,-19.260406,-30.898178,34.283661,,,,,,
1478385632.73,-2.437838,0.630742,0.540524,0.969259,0.953273,1.312692,-0.522579,-0.589744,0.615721,0.066677,0.045235,0.126009,-22.556854,-29.696930,35.522156,,,,,,
1478385632.75,-2.412869,0.598107,0.533355,1.102782,1.173707,1.322078,-0.550316,-0.563079,0.616517,-0.170265,-0.471711,0.115203,-22.556854,-29.696930,35.522156,,,,,,
1478385632.77,-2.387078,0.560504,0.526488,1.256040,1.010887,1.579386,-0.580132,-0.531613,0.617118,-0.217079,-0.777667,-0.122260,-23.450333,-28.196793,35.658722,,,,,,
1478385632.79,-2.369198,0.515814,0.518922,1.480601,0.579306,1.916211,-0.607056,-0.493243,0.623053,-0.248886,-0.736814,-0.346090,-25.172256,-27.446594,35.864258,,,,,,
1478385632.81,-2.355854,0.461016,0.509981,1.805613,0.471650,2.449624,-0.633501,-0.444859,0.633070,-0.363432,-1.507137,-0.204557,-26.215591,-25.871307,36.149109,,,,,,
1478385632.83,-2.336319,0.392911,0.497452,2.116569,1.086446,2.989272,-0.666077,-0.382880,0.640113,0.079316,-2.343332,-0.292273,-27.632584,-23.996017,36.429291,,,,,,
1478385632.85,-2.296224,0.318991,0.493441,2.582895,2.306718,2.623766,-0.710470,-0.313608,0.629986,1.181921,-2.019613,-0.237377,-27.632584,-23.996017,36.429291,,,,,,
1478385632.87,-2.247483,0.246789,0.508317,3.092093,2.479678,2.293917,-0.756030,-0.244292,0.607240,1.075213,-1.136781,0.052489,-27.603180,-17.696716,35.735657,,,,,,
1478385632.89,-2.235377,0.158591,0.524997,3.515569,-0.095788,3.455354,-0.777297,-0.157927,0.608990,0.385665,-0.585527,0.721088,-27.510056,-14.173218,34.226013,,,,,,
1478385632.91,-2.209484,0.053303,0.540842,3.903694,2.742002,3.453151,-0.801738,-0.053278,0.595296,0.359142,-0.757193,0.593700,-26.968063,-10.348083,34.369965,,,,,,
1478385632.93,-2.132701,-0.040236,0.569382,3.625539,3.684453,3.288586,-0.845557,0.040225,0.532368,-0.071069,-1.390674,-0.150944,-28.225372,-6.598633,33.821167,,,,,,
1478385632.95,-2.108678,-0.144615,0.575560,2.446894,-0.455860,4.642727,-0.849832,0.144111,0.506970,1.007073,-1.607292,-0.539898,-28.225372,-6.598633,33.821167,,,,,,
1478385632.97,-2.158011,-0.218315,0.555519,0.110614,-3.247063,2.812530,-0.812727,0.216585,0.540894,1.897810,-0.568483,0.026993,-29.005676,2.022430,29.887573,,,,,,
1478385632.99,-2.240686,-0.220573,0.511566,-2.288343,-3.324165,0.593305,-0.764898,0.218789,0.605856,0.820578,0.290855,-0.146353,-26.220444,4.573273,30.732666,,,,,,
1478385633.01,-2.294330,-0.180904,0.465538,-3.404106,-1.339718,-0.339115,-0.737241,0.179919,0.651233,0.718503,0.474988,-0.099552,-23.751251,3.824890,32.334656,,,,,,
1478385633.03,-2.315279,-0.105345,0.422832,-4.576366,-0.784160,-2.238213,-0.731361,0.105151,0.673835,0.849693,-0.056490,-0.454765,-21.881683,2.549667,32.132141,,,,,,
1478385633.05,-2.324787,0.016753,0.396739,-5.324605,0.060427,-4.193472,-0.728860,-0.016752,0.684457,0.918085,0.589368,-0.350030,-21.881683,2.549667,32.132141,,,,,,
1478385633.07,-2.311880,0.158948,0.379369,-5.550047,0.641527,-4.787377,-0.728438,-0.158280,0.666578,0.849028,0.728089,-0.661542,-20.469543,-0.375519,31.930054,,,,,,
1478385633.09,-2.308279,0.309305,0.363297,-5.679931,-0.574312,-5.226864,-0.705039,-0.304396,0.640517,0.872245,0.260527,-0.892928,-19.158295,-9.677582,29.871094,,,,,,
1478385633.11,-2.338322,0.467360,0.353788,-5.712295,-2.266005,-5.601248,-0.642458,-0.450531,0.619894,0.860720,0.055511,-0.710913,-18.202362,-14.328827,28.619568,,,,,,
1478385633.13,-2.389340,0.626498,0.358046,-5.419812,-2.225922,-5.820724,-0.553520,-0.586312,0.591485,0.466743,0.149193,-0.273858,-13.870224,-18.905655,26.801636,,,,,,
1478385633.15,-2.428860,0.784117,0.388704,-4.900512,-0.001992,-6.332956,-0.462972,-0.706200,0.535666,-0.153208,0.279412,0.154595,-13.870224,-18.905655,26.801636,,,,,,
1478385633.17,-2.446278,0.938731,0.455987,-4.265288,2.615221,-6.832152,-0.378490,-0.806809,0.453656,-0.611530,0.384843,0.298099,-9.682922,-22.357559,24.903870,,,,,,
1478385633.19,-2.471212,1.085360,0.569308,-3.493238,3.946062,-6.970316,-0.289888,-0.884471,0.365616,-0.654738,0.347042,0.167236,-3.324142,-27.687729,19.733459,,,,,,
1478385633.21,-2.569134,1.214392,0.755395,-2.746683,3.153924,-6.696612,-0.189003,-0.937157,0.293281,-0.766518,0.074792,0.039803,0.199753,-28.815384,17.072083,,,,,,
1478385633.23,-2.821757,1.314249,1.052507,-2.457074,0.337766,-5.810655,-0.079779,-0.967272,0.240874,-0.843713,-0.466749,0.036866,2.899841,-29.342010,15.450623,,,,,,
1478385633.25,2.982666,1.376554,1.499542,-2.688294,-3.456977,-4.855642,0.030548,-0.981194,0.190591,-0.714508,-0.596046,0.074530,2.899841,-29.342010,15.450623,,,,,,
1478385633.27,2.379368,1.392087,2.033940,-2.882017,-3.516062,-3.489629,0.122749,-0.984074,0.128574,-1.182426,-0.603725,0.536084,5.901352,-29.568695,13.756409,,,,,,
1478385633.29,1.971943,1.381627,2.418919,-2.334877,0.036283,-1.790798,0.173115,-0.982161,0.073426,-1.915959,-0.793764,0.831710,10.180344,-29.270462,11.998230,,,,,,
1478385633.31,1.804440,1.366971,2.636951,-1.439171,3.335778,-1.177573,0.196917,-0.979300,0.046864,-1.623995,-0.254831,0.987087,13.260880,-29.274170,8.279053,,,,,,
1478385633.33,1.783283,1.355901,2.728979,-0.461313,3.070065,-0.415945,0.208449,-0.976999,0.044972,-0.506362,0.101327,0.521221,13.337936,-28.824173,8.278503,,,,,,
1478385633.35,1.824569,1.359005,2.718348,0.343750,0.655705,0.535052,0.203479,-0.977656,0.052775,0.229932,0.531932,0.088292,13.337936,-28.824173,8.278503,,,,,,
1478385633.37,1.922936,1.379447,2.617086,0.826634,-0.158723,1.793322,0.178513,-0.981749,0.065596,-0.521058,0.425398,0.254564,12.361740,-28.898590,8.868958,,,,,,
1478385633.39,2.200558,1.416718,2.351038,1.434515,1.580879,3.138966,0.124029,-0.988153,0.090386,-1.318807,0.122385,0.870033,10.784256,-29.197845,9.604065,,,,,,
1478385633.41,2.743329,1.426483,1.850854,2.190108,2.452998,3.106354,0.055773,-0.989605,0.132558,-0.788531,0.568035,0.550090,6.206650,-29.045654,11.807800,,,,,,
1478385633.43,-3.020578,1.371571,1.348456,2.654247,2.151269,5.035902,-0.023892,-0.980220,0.196462,-0.466831,0.918041,3.916148,3.584503,-27.618271,14.177307,,,,,,
1478385633.45,-2.711874,1.296860,1.030074,1.945914,-1.237966,3.463313,-0.112704,-0.962713,0.245928,1.164675,-2.457422,-1.204302,3.584503,-27.618271,14.177307,,,,,,
1478385633.47,-2.647637,1.235820,0.987536,2.053168,4.600577,3.106681,-0.155863,-0.944418,0.289450,7.725412,-6.057276,1.853861,-2.723831,-28.665863,16.592407,,,,,,
1478385633.49,-2.663008,1.154048,0.787151,2.421793,-8.783753,5.344107,-0.186415,-0.914410,0.359311,-6.308321,4.426220,0.957508,-3.469864,-27.164001,18.455383,,,,,,
,,,,,,,,,,,,,,,,37.354260,-122.033458,41.772339,0.500000,240.468750,1478385723.00
1478385633.51,-2.577622,1.058302,0.693359,3.582520,3.355644,2.304600,-0.262116,-0.871524,0.414416,1.154969,2.985370,1.940763,-7.006393,-29.036926,20.525696,,,,,,
1478385633.53,-2.521641,0.997014,0.733579,2.720228,3.855006,0.963604,-0.315372,-0.839854,0.441798,-0.403836,-0.564763,0.295521,-9.390915,-24.684189,23.263794,,,,,,
1478385633.55,-2.501308,0.934929,0.698453,1.613503,-1.467324,2.948192,-0.354795,-0.804557,0.476244,-0.224337,-1.711801,-0.344164,-9.390915,-24.684189,23.263794,,,,,,
1478385633.57,-2.503501,0.892207,0.686530,1.595726,-0.128455,1.139800,-0.373896,-0.778459,0.504187,0.708002,0.903871,0.486139,-11.561829,-23.408096,24.363220,,,,,,
1478385633.59,-2.499194,0.849980,0.672040,1.209570,-0.920095,1.897668,-0.395417,-0.751267,0.528435,-0.406585,0.021149,-0.130913,-12.160233,-22.732132,25.330200,,,,,,
1478385633.61,-2.490135,0.808998,0.647660,1.151304,0.225139,1.756480,-0.418514,-0.723596,0.548866,-0.265369,-0.293677,0.349007,-13.432388,-21.756088,26.364624,,,,,,
1478385633.63,-2.464123,0.772373,0.633400,1.127387,0.887343,1.456964,-0.448967,-0.697837,0.558079,0.163017,0.251517,0.045009,-16.129074,-20.479477,27.983765,,,,,,
1478385633.65,-2.444802,0.740438,0.623167,0.907655,0.516113,1.178840,-0.473730,-0.674611,0.566109,-0.080866,-0.124232,0.057044,-16.129074,-20.479477,27.983765,,,,,,
1478385633.67,-2.424725,0.711920,0.611696,0.766637,0.705049,1.316941,-0.497441,-0.653288,0.570760,-0.224666,-0.031877,0.102198,-17.551025,-19.729263,28.192322,,,,,,
1478385633.69,-2.406159,0.685642,0.599762,0.643972,0.358203,1.173673,-0.519292,-0.633170,0.573962,0.121434,0.019370,0.102049,-18.373169,-18.978897,28.556824,,,,,,
1478385633.71,-2.390685,0.658691,0.589366,0.806002,0.669771,1.210070,-0.539561,-0.612082,0.578126,-0.039861,-0.493310,0.344176,-19.269791,-18.228912,28.545654,,,,,,
1478385633.73,-2.358628,0.632607,0.589365,1.072371,1.991656,0.569911,-0.568884,-0.591249,0.571660,0.501792,0.091508,0.366847,-20.169434,-18.003464,28.985901,,,,,,
1478385633.75,-2.321981,0.607777,0.599712,1.174684,2.388991,0.747472,-0.599995,-0.571044,0.560282,-0.396404,-0.872331,0.135855,-20.169434,-18.003464,28.985901,,,,,,
1478385633.77,-2.277723,0.575539,0.603081,1.185949,2.172536,1.382607,-0.637866,-0.544287,0.544865,-0.342541,-1.098505,-0.345952,-22.634735,-16.054108,28.355408,,,,,,
1478385633.79,-2.245465,0.531257,0.595594,1.194795,1.212944,2.339426,-0.673281,-0.506617,0.538546,-0.257474,-1.500402,-0.529116,-24.429398,-15.079727,27.734558,,,,,,
1478385633.81,-2.210587,0.472313,0.580663,1.421375,1.534197,2.808673,-0.714392,-0.454947,0.531664,0.233344,-1.728357,-0.365221,-25.398880,-13.955032,27.421448,,,,,,
1478385633.83,-2.159205,0.404874,0.577938,2.063924,3.137805,2.854802,-0.764574,-0.393903,0.510164,0.896013,-2.257663,-0.433718,-26.289276,-11.930344,27.106567,,,,,,
1478385633.85,-2.125162,0.326692,0.580324,2.181556,0.057534,3.570923,-0.805265,-0.320912,0.498562,1.568418,-1.124812,-0.248028,-26.289276,-11.930344,27.106567,,,,,,
1478385633.87,-2.153912,0.223102,0.579521,3.078417,-1.266017,4.869113,-0.814062,-0.221256,0.536981,0.578421,-0.531780,1.022956,-25.880875,-5.182388,25.065369,,,,,,
1478385633.89,-2.126499,0.115302,0.588068,3.510139,3.325803,3.668767,-0.843889,-0.115046,0.524037,-0.243132,-1.015721,0.961284,-24.440567,-1.356110,26.343262,,,,,,
1478385633.91,-2.049621,0.004024,0.607917,3.550057,3.265996,5.258485,-0.887530,-0.004024,0.460732,-0.182020,-1.652684,-0.026360,-25.476227,1.793793,26.248474,,,,,,
1478385633.93,-2.027242,-0.130259,0.612844,2.925420,-0.360763,5.659832,-0.890020,0.129891,0.437027,2.328726,-1.345421,-0.177399,-27.477692,6.291595,24.039917,,,,,,
1478385633.95,-2.079213,-0.228474,0.609390,1.592646,-3.510615,3.775905,-0.850816,0.226492,0.474145,1.744905,-0.566458,0.121558,-27.477692,6.291595,24.039917,,,,,,
1478385633.97,-2.152361,-0.282431,0.587019,-0.537465,-2.987693,2.391099,-0.802498,0.278691,0.527568,0.383980,-0.507314,0.683736,-26.406769,10.565460,22.912842,,,,,,
1478385633.99,-2.189576,-0.289943,0.539879,-2.086399,-0.317848,1.084795,-0.780586,0.285897,0.555831,0.643272,0.083594,-0.140044,-22.118866,14.468567,26.019043,,,,,,
1478385634.01,-2.210202,-0.255047,0.486485,-3.672940,-0.355775,-0.610451,-0.776492,0.252291,0.577416,1.213931,0.213850,-0.328011,-22.124603,13.419250,26.697144,,,,,,
1478385634.03,-2.230722,-0.167423,0.437876,-5.036291,-0.473621,-2.811960,-0.778991,0.166642,0.604486,1.061721,0.189955,-0.509317,-21.760544,11.245010,27.457275,,,,,,
1478385634.05,-2.242287,-0.041616,0.392130,-6.025811,-0.350058,-3.860395,-0.782217,0.041604,0.621615,0.800665,0.354774,-0.689914,-21.760544,11.245010,27.457275,,,,,,
1478385634.07,-2.255799,0.104596,0.344966,-6.596092,-1.179996,-4.463055,-0.770185,-0.104405,0.629217,1.215299,0.273961,-0.867239,-21.930466,7.120911,28.367981,,,,,,
1478385634.09,-2.294417,0.266323,0.304645,-6.802515,-2.876808,-5.121956,-0.722993,-0.263186,0.638760,1.186250,-0.055875,-0.705181,-21.460419,-4.803223,29.233459,,,,,,
1478385634.11,-2.345565,0.434447,0.278806,-6.459259,-2.779196,-5.454438,-0.648200,-0.420909,0.634564,0.663520,0.160198,-0.283368,-19.386673,-10.803711,28.747192,,,,,,
1478385634.13,-2.367718,0.601526,0.276947,-5.698678,0.187430,-6.131950,-0.576234,-0.565901,0.589670,0.248017,0.545546,0.271048,-19.386673,-10.803711,28.747192,,,,,,
1478385634.15,-2.344327,0.769669,0.307910,-4.784966,3.091165,-7.119211,-0.513793,-0.695897,0.501741,-0.118531,0.687917,0.140914,-15.060394,-16.580215,27.232788,,,,,,
1478385634.17,-2.318331,0.934341,0.369826,-3.840254,3.656510,-7.432265,-0.435876,-0.804207,0.404058,-0.287650,0.727044,0.041025,-11.852142,-21.233032,24.428772,,,,,,
1478385634.19,-2.344921,1.087007,0.470496,-3.038340,2.449130,-7.365812,-0.332588,-0.885239,0.325173,-0.318108,0.564453,0.175682,-8.786453,-24.536728,20.719421,,,,,,
1478385634.21,-2.485048,1.226950,0.660203,-2.435090,1.291537,-7.535689,-0.205767,-0.941465,0.267028,-0.648939,0.253904,0.432588,-1.141083,-27.617874,14.580017,,,,,,
1478385634.23,-2.835892,1.333481,1.028902,-2.157605,-0.758867,-6.681836,-0.070754,-0.971973,0.224194,-1.087418,-0.662503,0.294101,2.535416,-27.919785,12.667786,,,,,,
1478385634.25,2.882202,1.389197,1.571839,-2.744512,-1.623470,-5.002470,0.046323,-0.983556,0.174561,-1.591611,-0.914485,0.638946,2.535416,-27.919785,12.667786,,,,,,
1478385634.27,2.350243,1.388884,2.121016,-2.174277,2.081941,-3.896152,0.128682,-0.983499,0.127160,-2.201421,-0.587988,1.065574,7.191177,-27.171402,11.062012,,,,,,
1478385634.29,2.100839,1.353859,2.461904,-1.308433,4.860527,-3.019443,0.185706,-0.976561,0.108819,-1.847922,-0.738572,0.577888,9.143600,-27.173035,9.431580,,,,,,
1478385634.31,2.030811,1.328244,2.598398,-0.348903,1.635652,-1.005190,0.215213,-0.970728,0.106631,-0.380389,-0.006139,0.101133,11.701614,-25.673828,8.627686,,,,,,
1478385634.33,2.100101,1.335064,2.517685,1.182670,-1.180934,1.866988,0.201595,-0.972344,0.117930,-1.017543,0.985817,0.458990,11.028488,-25.148529,8.919373,,,,,,
1478385634.35,2.432012,1.367800,2.178304,2.213265,1.193432,4.402082,0.131349,-0.979467,0.152945,-2.115327,0.292516,1.326181,11.028488,-25.148529,8.919373,,,,,,
1478385634.37,2.988037,1.342283,1.649012,4.288987,2.262043,4.951392,0.034648,-0.974004,0.223864,-1.597499,1.140981,4.695020,9.303177,-25.073105,9.351929,,,,,,
1478385634.39,-2.911779,1.287663,1.303405,1.742252,-0.358704,3.787992,-0.063638,-0.960185,0.272021,2.665857,-3.833913,-2.761233,5.401779,-24.696045,11.411743,,,,,,
1478385634.41,-2.825204,1.245924,1.156700,0.691232,1.924545,1.944075,-0.099311,-0.947692,0.303345,7.803031,-4.065217,3.693695,0.535110,-21.767792,14.654236,,,,,,
1478385634.43,-2.777094,1.169602,0.863488,1.583615,-12.821245,6.620012,-0.139212,-0.920595,0.364862,-7.411630,2.956057,-0.180490,-3.379898,-24.691544,15.898926,,,,,,
1478385634.45,-2.647893,1.066277,0.728482,4.209140,5.715051,3.268370,-0.229071,-0.875407,0.425664,0.763968,3.670695,2.703288,-3.379898,-24.691544,15.898926,,,,,,
1478385634.47,-2.569936,0.988391,0.762510,3.242666,4.538825,0.602014,-0.297583,-0.835142,0.462582,0.081717,0.335310,0.381839,-5.782242,-24.539551,17.899353,,,,,,
1478385634.49,-2.551915,0.927175,0.744297,1.552032,-2.176278,3.019808,-0.333710,-0.799928,0.498752,-0.470505,-2.491286,-0.454532,-6.743698,-21.313904,18.555176,,,,,,
,,,,,,,,,,,,,,,,37.354251,-122.033462,42.147400,0.200000,250.312500,1478385724.00
1478385634.51,-2.548177,0.878826,0.720366,1.884083,0.718747,1.307121,-0.356798,-0.769991,0.528971,0.202821,0.942384,0.591513,-7.488159,-19.813080,19.368164,,,,,,
1478385634.53,-2.529563,0.832112,0.704997,1.274318,-0.768657,2.044523,-0.386840,-0.739355,0.551098,0.276931,0.154257,-0.095592,-9.885315,-18.686615,20.840759,,,,,,
1478385634.55,-2.532986,0.794593,0.673719,0.853678,-0.902687,1.854311,-0.400536,-0.713579,0.574784,-0.334571,-0.411513,0.393218,-9.885315,-18.686615,20.840759,,,,,,
1478385634.57,-2.507569,0.757637,0.648287,1.013947,0.901990,1.821091,-0.430350,-0.687207,0.585274,-0.184732,-0.141666,0.179496,-11.086166,-18.535583,21.878357,,,,,,
1478385634.59,-2.476494,0.722361,0.628350,0.956015,0.879901,1.508950,-0.463005,-0.661158,0.590336,-0.038323,0.024683,-0.011418,-11.533020,-17.785431,22.021606,,,,,,
1478385634.61,-2.453006,0.691226,0.618039,0.946601,0.937333,1.049670,-0.489590,-0.637482,0.594910,0.251263,0.539322,0.308715,-12.729843,-16.960068,22.382202,,,,,,
1478385634.63,-2.431311,0.666366,0.620710,1.025020,1.250990,0.751512,-0.512557,-0.618133,0.595983,-0.242280,-0.064438,0.035181,-15.801071,-15.984665,22.798584,,,,,,
1478385634.65,-2.408476,0.638792,0.618625,0.978587,0.942053,1.077518,-0.537236,-0.596226,0.596567,-0.213115,-0.656109,-0.193903,-15.801071,-15.984665,22.798584,,,,,,
1478385634.67,-2.386487,0.605713,0.612389,1.091120,0.921643,1.477248,-0.563437,-0.569348,0.598650,-0.298700,-0.815143,-0.266725,-15.872696,-15.309891,22.570862,,,,,,
1478385634.69,-2.361923,0.565088,0.603414,1.281779,1.053545,1.739706,-0.593750,-0.535490,0.600592,-0.066833,-0.606829,-0.142829,-16.770432,-14.784821,22.635254,,,,,,
1478385634.71,-2.333024,0.519767,0.598549,1.537190,1.486280,1.795830,-0.627777,-0.496678,0.599339,-0.103272,-0.775875,-0.055272,-17.364792,-13.584991,22.475769,,,,,,
1478385634.73,-2.296690,0.465230,0.594236,1.785366,1.790232,2.417851,-0.668417,-0.448629,0.593254,0.008734,-1.529277,-0.163155,-18.110291,-12.685287,22.165588,,,,,,
1478385634.75,-2.247430,0.396887,0.585301,1.980265,2.780809,3.096158,-0.719079,-0.386549,0.577499,0.433083,-2.373186,-0.112732,-18.110291,-12.685287,22.165588,,,,,,
1478385634.77,-2.178323,0.322203,0.578531,2.028829,3.594715,3.145492,-0.778811,-0.316657,0.541463,1.303637,-1.952508,-0.302175,-18.765900,-8.786514,20.947327,,,,,,
1478385634.79,-2.113557,0.249519,0.577525,1.775412,2.300740,3.260086,-0.829768,-0.246938,0.500507,1.378947,-1.082317,-0.342639,-18.672455,-5.338470,18.987915,,,,,,
1478385634.81,-2.128141,0.159675,0.564519,2.129275,-1.945710,4.808917,-0.837867,-0.158997,0.522206,0.852149,-0.181732,0.729869,-19.178650,-1.740204,17.247070,,,,,,
1478385634.83,-2.140766,0.045348,0.551156,2.788959,0.313876,4.914576,-0.841052,-0.045332,0.539052,0.769259,-0.694918,0.574565,-19.467590,0.885300,17.761292,,,,,,
1478385634.85,-2.089554,-0.048658,0.560823,2.777863,3.313855,3.340476,-0.867408,0.048638,0.495215,-0.052621,-1.289880,0.259592,-19.467590,0.885300,17.761292,,,,,,
1478385634.87,-2.053753,-0.141319,0.553692,1.292234,0.656433,4.936420,-0.876797,0.140849,0.459771,0.276074,-1.805156,-0.210350,-20.036514,7.258713,16.161499,,,,,,
1478385634.89,-2.086023,-0.224672,0.507285,-1.158860,-2.357156,4.177038,-0.848311,0.222787,0.480348,1.507796,-1.031045,0.427123,-20.094849,10.407043,14.501465,,,,,,
1478385634.91,-2.162586,-0.245508,0.439027,-2.523185,-3.283829,1.711539,-0.805057,0.243049,0.541120,1.586215,0.103677,-0.065381,-19.637100,12.432938,15.399902,,,,,,
1478385634.93,-2.236311,-0.219249,0.384090,-3.189694,-2.288015,-0.116020,-0.767769,0.217497,0.602683,0.939445,0.722216,0.467874,-19.038879,12.659821,17.280212,,,,,,
1478385634.95,-2.256790,-0.151946,0.341046,-4.120884,0.144597,-1.999919,-0.764875,0.151362,0.626144,0.386792,0.476751,0.136246,-19.038879,12.659821,17.280212,,,,,,
1478385634.97,-2.253116,-0.049952,0.304358,-4.919746,0.224887,-3.157121,-0.775144,0.049931,0.629809,0.802411,0.495098,-0.329989,-18.068405,12.061035,18.491760,,,,,,
1478385634.99,-2.263452,0.074256,0.269327,-5.479276,-1.114657,-4.080622,-0.767432,-0.074188,0.636823,1.293189,0.573013,-0.589018,-19.442932,7.037308,19.768127,,,,,,
1478385635.01,-2.303821,0.217945,0.243067,-5.757513,-2.715625,-4.822721,-0.725573,-0.216224,0.653292,1.009372,0.070869,-0.506014,-20.287170,3.138443,20.896301,,,,,,
1478385635.03,-2.352277,0.370414,0.228332,-5.721016,-2.324127,-5.201939,-0.661726,-0.362002,0.656562,0.350233,-0.013716,-0.099005,-18.580658,-0.760941,21.525085,,,,,,
1478385635.05,-2.377553,0.524477,0.229723,-5.258914,-0.454959,-5.558189,-0.598850,-0.500760,0.624994,-0.021771,0.335019,0.051977,-18.580658,-0.760941,21.525085,,,,,,
1478385635.07,-2.377821,0.675861,0.252400,-4.577207,1.234578,-6.191272,-0.539604,-0.625569,0.563463,-0.055611,0.458226,0.078001,-16.875504,-5.035522,21.929932,,,,,,
1478385635.09,-2.374982,0.827364,0.310036,-3.682747,2.563171,-7.091014,-0.469507,-0.736150,0.487489,-0.058675,0.533208,0.010771,-15.181854,-12.838043,19.420349,,,,,,
1478385635.11,-2.390336,0.975945,0.409558,-3.059717,3.444175,-7.410171,-0.382495,-0.828232,0.409548,-0.275204,0.393448,0.118055,-14.069824,-16.364975,17.492004,,,,,,
1478385635.13,-2.446686,1.114327,0.551718,-2.677653,3.059007,-7.078287,-0.282239,-0.897614,0.338571,-0.678363,0.278580,-0.145379,-11.904449,-19.292328,15.122498,,,,,,
1478385635.15,-2.592696,1.232026,0.752828,-2.373397,1.258587,-6.298487,-0.173391,-0.943164,0.283509,-0.807200,-0.156690,-0.124177,-11.904449,-19.292328,15.122498,,,,,,
1478385635.17,-2.894324,1.324193,1.075254,-2.461474,0.000959,-5.962342,-0.059748,-0.969747,0.236686,-0.945318,-0.468424,0.090920,-10.037018,-21.619263,13.198120,,,,,,
1478385635.19,2.872149,1.376491,1.596305,-2.606755,-0.521394,-5.248189,0.051398,-0.981182,0.186119,-1.230140,-0.574711,0.229714,-7.342499,-23.421021,11.430481,,,,,,
1478385635.21,2.376773,1.376703,2.092145,-2.181990,-0.202795,-3.367219,0.133550,-0.981223,0.139162,-1.400426,-0.545770,0.422071,-2.025345,-26.048660,8.791504,,,,,,
1478385635.23,2.098740,1.358443,2.391748,-1.576349,1.447242,-2.282520,0.182064,-0.977538,0.106172,-1.285946,-0.382493,0.430052,-1.127838,-26.949707,7.753174,,,,,,
1478385635.25,1.999877,1.334706,2.531652,-0.377642,1.843765,-1.265411,0.212700,-0.972260,0.097312,-1.205040,0.160538,0.535440,-1.127838,-26.949707,7.753174,,,,,,
1478385635.27,2.072388,1.335604,2.489421,0.815780,1.637489,1.280012,0.204325,-0.972470,0.112046,-1.514735,0.432049,0.712371,-0.079102,-27.550659,6.790527,,,,,,
1478385635.29,2.343160,1.361912,2.254069,1.580228,2.339705,3.188270,0.148530,-0.978263,0.144708,-1.672304,0.570609,0.536643,-0.981003,-27.925522,6.932617,,,,,,
1478385635.31,2.775513,1.373244,1.854058,1.684405,1.395833,3.823703,0.070256,-0.980550,0.183265,-0.961019,0.780904,0.045556,-5.179932,-27.324448,8.013794,,,,,,
1478385635.33,-3.069642,1.337447,1.396561,1.822200,0.212220,5.727821,-0.016623,-0.972897,0.230640,-1.219369,0.777997,3.329404,-7.800934,-26.048279,9.183777,,,,,,
1478385635.35,-2.800717,1.283860,1.028950,0.998002,-6.141349,3.570957,-0.094616,-0.959115,0.266731,1.639537,-2.150336,-1.192482,-7.800934,-26.048279,9.183777,,,,,,
1478385635.37,-2.795407,1.233055,1.071243,1.804298,-0.833349,4.318830,-0.112434,-0.943505,0.311699,2.769828,-7.095267,-5.666832,-13.277542,-25.821533,10.928284,,,,,,
1478385635.39,-2.743747,1.158901,0.775576,2.458481,-5.126670,6.405471,-0.155108,-0.916363,0.369079,-3.672712,5.855130,2.625763,-15.386932,-27.018845,13.610840,,,,,,
1478385635.41,-2.625060,1.069205,0.710899,3.475977,4.365295,0.917088,-0.237462,-0.876819,0.418092,0.935002,1.428744,0.345840,-17.642975,-27.240494,16.963989,,,,,,
1478385635.43,-2.587497,1.010870,0.738924,2.417486,1.163751,2.031488,-0.279463,-0.847294,0.451655,-0.818513,-1.658489,-0.379008,-19.719620,-21.689407,18.051514,,,,,,
1478385635.45,-2.559683,0.952945,0.688865,1.562425,-0.601651,1.996297,-0.318387,-0.815125,0.483943,-0.152347,-0.120696,0.324590,-19.719620,-21.689407,18.051514,,,,,,
1478385635.47,-2.544697,0.910920,0.688745,1.763193,0.915391,1.366176,-0.344564,-0.790068,0.507019,0.482031,0.434019,0.129608,-21.742340,-20.788223,19.228577,,,,,,
1478385635.49,-2.542394,0.864782,0.665236,1.370018,-1.457951,1.837617,-0.365914,-0.760954,0.535776,0.232674,-0.158098,-0.196345,-22.713501,-19.812866,19.590942,,,,,,
,,,,,,,,,,,,,,,,37.354245,-122.033462,42.149414,0.430000,287.226562,1478385725.00
1478385635.51,-2.552791,0.827314,0.650880,1.319293,-0.457621,1.444964,-0.375902,-0.736116,0.562877,-0.452086,-0.299772,0.373356,-23.761108,-18.911758,20.702698,,,,,,
1478385635.53,-2.525787,0.785751,0.636316,1.484693,1.441853,1.484666,-0.408292,-0.707356,0.577014,-0.122546,0.073903,0.379041,-24.879898,-17.035263,22.185913,,,,,,
1478385635.55,-2.495624,0.747553,0.635522,1.511773,1.409654,1.014519,-0.441459,-0.679846,0.585596,0.399864,0.102072,0.346792,-24.879898,-17.035263,22.185913,,,,,,
1478385635.57,-2.475298,0.717433,0.652370,1.604108,1.429390,0.137559,-0.465719,-0.657453,0.592336,0.045904,0.829572,0.165553,-26.976135,-16.135071,22.387268,,,,,,
1478385635.59,-2.452543,0.687495,0.668401,1.449041,1.556219,0.708176,-0.491374,-0.634603,0.596516,-0.245931,-0.706492,-0.119435,-27.871841,-15.310455,22.000854,,,,,,
1478385635.61,-2.432395,0.654574,0.669344,1.219043,0.794521,1.244165,-0.516621,-0.608822,0.602029,-0.192027,-0.900212,-0.314767,-29.443436,-14.635696,21.758057,,,,,,
1478385635.63,-2.411757,0.613787,0.659124,1.318970,0.834602,1.887640,-0.545048,-0.575967,0.609249,-0.358623,-0.925559,-0.297772,-30.265503,-13.960632,21.822815,,,,,,
1478385635.65,-2.377506,0.562213,0.645187,1.613420,1.543655,2.283282,-0.585382,-0.533060,0.610881,-0.033407,-1.171545,-0.115122,-30.265503,-13.960632,21.822815,,,,,,
1478385635.67,-2.336920,0.501999,0.636596,2.065803,2.115351,2.565568,-0.631697,-0.481179,0.607804,0.056075,-1.328406,-0.069916,-31.225418,-10.811249,21.203796,,,,,,
