timestamp(unix),attitude_roll(radians),attitude_pitch(radians),attitude_yaw(radians),rotation_rate_x(radians/s),rotation_rate_y(radians/s),rotation_rate_z(radians/s),gravity_x(G),gravity_y(G),gravity_z(G),user_acc_x(G),user_acc_y(G),user_acc_z(G),magnetic_field_x(microteslas),magnetic_field_y(microteslas),magnetic_field_z(microteslas),latitude(degree),longitude(degree),altitude(meter),speed(m/s),course(degree),timestamp(unix)
,,,,,,,,,,,,,,,,37.354383,-122.033353,45.891785,0.360000,31.289062,1478384634.95
,,,,,,,,,,,,,,,,37.354383,-122.033353,45.891785,0.360000,31.289062,1478384634.00
1478384634.98,-2.135232,1.442471,1.410910,-0.031675,-0.178722,0.055972,-0.108124,-0.991778,0.068458,-0.056320,0.024126,0.030449,5.560516,-46.435028,-24.260376,,,,,,
1478384635.00,-2.133016,1.442887,1.406367,-0.034300,-0.067729,-0.031338,-0.107926,-0.991831,0.067998,-0.004180,0.010584,0.009486,5.560516,-46.435028,-24.260376,,,,,,
1478384635.02,-2.132689,1.444238,1.406150,-0.034695,0.038600,-0.063099,-0.106814,-0.992002,0.067249,-0.004011,0.014021,-0.003696,5.485840,-46.360031,-24.261353,,,,,,
1478384635.04,-2.130916,1.445348,1.405284,-0.029355,0.049675,-0.031007,-0.106001,-0.992142,0.066475,-0.010836,0.020386,0.000618,4.810944,-46.209656,-23.893555,,,,,,
1478384635.06,-2.128659,1.445934,1.404528,-0.013499,0.094733,-0.015897,-0.105657,-0.992215,0.065927,-0.011927,0.007687,-0.002603,5.560272,-46.510101,-24.335205,,,,,,
1478384635.08,-2.123100,1.446213,1.402125,-0.026601,0.199430,-0.001743,-0.105786,-0.992249,0.065194,0.007809,-0.003844,0.001045,5.861511,-46.210022,-24.258057,,,,,,
,,,,,,,,,,,,,,,,37.354388,-122.033347,46.201233,0.360000,32.695312,1478384635.00
1478384635.10,-2.113858,1.446606,1.397367,-0.037298,0.215461,0.003625,-0.106050,-0.992298,0.064012,0.037798,0.011738,0.014663,5.861511,-46.210022,-24.258057,,,,,,
1478384635.12,-2.104777,1.446591,1.390704,-0.032517,0.066360,0.026729,-0.106639,-0.992296,0.063053,0.060543,0.017519,-0.017094,5.710724,-46.284729,-23.959351,,,,,,
1478384635.14,-2.099338,1.446869,1.385560,-0.033415,-0.001282,-0.007649,-0.106743,-0.992331,0.062333,0.042076,0.025046,-0.020082,5.184601,-46.584885,-24.113708,,,,,,
1478384635.16,-2.098981,1.447411,1.384620,-0.008788,-0.043977,-0.016271,-0.106300,-0.992398,0.062024,-0.002434,0.031353,-0.008512,5.935730,-46.284714,-23.957092,,,,,,
1478384635.18,-2.100722,1.447662,1.384666,-0.020317,-0.099435,-0.010033,-0.105977,-0.992429,0.062083,0.022207,0.025143,0.003774,5.710724,-46.435181,-24.408936,,,,,,
1478384635.20,-2.100447,1.448393,1.381965,-0.049058,-0.119083,-0.037916,-0.105368,-0.992518,0.061688,0.074027,0.027049,0.024341,5.710724,-46.435181,-24.408936,,,,,,
1478384635.22,-2.120748,1.452913,1.399577,-0.056575,-0.143698,-0.130960,-0.100269,-0.993060,0.061469,0.026111,0.002764,0.023477,5.860840,-46.435257,-24.482422,,,,,,
1478384635.24,-2.117828,1.453627,1.393566,-0.036979,-0.110698,0.213197,-0.099842,-0.993143,0.060807,-0.163295,-0.042272,0.023635,5.936279,-46.285095,-24.332092,,,,,,
1478384635.26,-2.095495,1.448831,1.370474,-0.010048,0.105535,0.172170,-0.105296,-0.992571,0.060947,-0.129460,0.019702,0.045727,5.636383,-46.209946,-24.185303,,,,,,
1478384635.28,-2.085936,1.451330,1.368050,-0.103438,0.466499,-0.221247,-0.103715,-0.992872,0.058716,0.020082,-0.027193,0.009353,5.410919,-46.360107,-24.337097,,,,,,
1478384635.30,-2.079704,1.456862,1.370110,-0.122141,0.316927,-0.230239,-0.099281,-0.993516,0.055392,0.007988,0.039110,-0.025149,5.410919,-46.360107,-24.337097,,,,,,
1478384635.32,-2.079313,1.460316,1.371240,-0.051520,-0.050595,-0.110395,-0.096304,-0.993903,0.053681,0.052542,0.064780,-0.052644,5.410706,-46.359955,-24.187073,,,,,,
1478384635.34,-2.085494,1.461628,1.374016,-0.003949,-0.234227,-0.043507,-0.094836,-0.994047,0.053634,0.141482,0.003096,-0.048461,6.387756,-45.985168,-24.403503,,,,,,
1478384635.36,-2.096694,1.461874,1.378164,0.014805,-0.417309,-0.010857,-0.094018,-0.994074,0.054570,0.144876,-0.022528,-0.025868,6.386841,-46.210236,-24.477844,,,,,,
1478384635.38,-2.109616,1.461745,1.381905,0.034165,-0.471597,-0.005630,-0.093415,-0.994060,0.055846,0.035630,0.030956,0.007097,5.863556,-45.910477,-24.708923,,,,,,
1478384635.40,-2.131406,1.461044,1.395209,0.112745,-0.394468,-0.005281,-0.092767,-0.993983,0.058239,-0.036323,0.045802,-0.007213,5.863556,-45.910477,-24.708923,,,,,,
1478384635.42,-2.163419,1.459181,1.420317,0.199926,-0.336387,0.005714,-0.092390,-0.993777,0.062212,0.023726,0.031360,-0.064470,5.337189,-46.135254,-24.488586,,,,,,
1478384635.44,-2.207999,1.456502,1.457407,0.271662,-0.464584,-0.028703,-0.091666,-0.993475,0.067851,0.098303,0.047476,-0.087718,6.162292,-46.210541,-24.780090,,,,,,
1478384635.46,-2.262870,1.453393,1.501196,0.300807,-0.582940,-0.030046,-0.090184,-0.993116,0.074747,0.041875,-0.012270,-0.063135,5.560852,-46.435257,-24.485413,,,,,,
1478384635.48,-2.311441,1.450267,1.540750,0.277679,-0.356984,-0.045491,-0.088739,-0.992745,0.081132,-0.162832,-0.042564,-0.056763,4.283264,-46.809662,-23.897034,,,,,,
1478384635.50,-2.355698,1.446865,1.583351,0.330611,0.068889,-0.053844,-0.087452,-0.992330,0.087365,-0.230495,0.019750,-0.052072,4.283264,-46.809662,-23.897034,,,,,,
1478384635.52,-2.396313,1.441776,1.631704,0.428224,0.514151,-0.060996,-0.087256,-0.991688,0.094554,-0.058068,0.052693,-0.057414,4.358521,-46.659363,-23.596741,,,,,,
1478384635.54,-2.447237,1.436746,1.694882,0.479973,0.591767,-0.189972,-0.085521,-0.991029,0.102705,0.051631,0.045533,-0.070325,4.958160,-46.809586,-23.815247,,,,,,
1478384635.56,-2.505615,1.430853,1.763290,0.556296,0.396121,-0.155119,-0.082850,-0.990224,0.112216,0.047740,0.020650,-0.068225,5.554657,-47.183380,-22.608276,,,,,,
1478384635.58,-2.557119,1.422319,1.820082,0.603077,0.143546,-0.055320,-0.081623,-0.988998,0.123376,0.010578,0.022124,-0.056283,5.252075,-47.482544,-21.785339,,,,,,
1478384635.60,-2.597989,1.411432,1.863096,0.635536,0.039285,0.050223,-0.082078,-0.987328,0.135815,0.102876,0.011834,-0.023587,5.252075,-47.482544,-21.785339,,,,,,
1478384635.62,-2.635482,1.400561,1.897766,0.589711,-0.312717,-0.012793,-0.082129,-0.985545,0.148176,0.204596,0.043849,0.054018,6.225281,-47.782242,-21.474731,,,,,,
1478384635.64,-2.678499,1.391319,1.932414,0.536872,-0.457324,-0.042131,-0.079746,-0.983937,0.159713,0.095874,0.042928,0.127702,6.374359,-47.856857,-21.098022,,,,,,
1478384635.66,-2.707067,1.382079,1.952768,0.473043,-0.426214,0.080713,-0.078975,-0.982246,0.170165,-0.021611,-0.021310,-0.004195,6.073029,-48.006424,-20.650574,,,,,,
1478384635.68,-2.722822,1.373013,1.957811,0.405665,-0.625901,0.179409,-0.079903,-0.980504,0.179517,0.054467,-0.036265,0.058138,4.867950,-48.755295,-19.535339,,,,,,
1478384635.70,-2.733843,1.365122,1.954327,0.313400,-0.752131,0.182107,-0.080985,-0.978923,0.187484,0.082740,0.016063,0.119386,4.867950,-48.755295,-19.535339,,,,,,
1478384635.72,-2.743680,1.359359,1.949542,0.208863,-0.725187,0.147810,-0.081322,-0.977730,0.193469,0.021690,0.019494,0.072401,5.018860,-48.530228,-19.459595,,,,,,
1478384635.74,-2.747575,1.354594,1.939725,0.169271,-0.634788,0.223847,-0.082355,-0.976719,0.198084,0.006672,0.000721,0.045065,4.867859,-48.755234,-19.460388,,,,,,
1478384635.76,-2.745142,1.349928,1.924018,0.140684,-0.678380,0.246115,-0.084596,-0.975708,0.202084,0.025544,0.003570,0.009708,4.642944,-48.755310,-19.537598,,,,,,
1478384635.78,-2.746336,1.345910,1.909145,0.107070,-0.833458,0.227466,-0.085864,-0.974819,0.205802,0.029971,0.000668,0.046425,3.515503,-49.280243,-19.472351,,,,,,
1478384635.80,-2.747450,1.342763,1.892185,0.050841,-0.897519,0.242150,-0.086812,-0.974113,0.208729,-0.001064,-0.012780,0.055080,3.515503,-49.280243,-19.472351,,,,,,
1478384635.82,-2.746862,1.340498,1.873982,0.012242,-0.832874,0.216619,-0.087783,-0.973598,0.210715,-0.019059,0.016628,0.026483,2.914948,-49.355087,-19.328125,,,,,,
1478384635.84,-2.748863,1.339221,1.860083,-0.008446,-0.723765,0.155983,-0.087837,-0.973306,0.212038,-0.056176,0.030984,0.041502,2.614380,-49.354721,-18.956116,,,,,,
1478384635.86,-2.749812,1.338189,1.848084,-0.001472,-0.580895,0.143567,-0.088019,-0.973069,0.213050,-0.083719,0.010254,0.020516,1.189423,-49.354736,-18.970337,,,,,,
1478384635.88,-2.748405,1.337173,1.836694,-0.004015,-0.457205,0.136424,-0.088697,-0.972834,0.213839,-0.036425,0.002055,-0.017717,0.888947,-49.504898,-19.122925,,,,,,
1478384635.90,-2.747476,1.336158,1.825823,-0.008024,-0.535122,0.136202,-0.089275,-0.972598,0.214667,0.039501,-0.002011,-0.031501,0.888947,-49.504898,-19.122925,,,,,,
1478384635.92,-2.749552,1.335125,1.814502,0.001042,-0.696060,0.149665,-0.089213,-0.972358,0.215780,0.055949,0.012336,0.014215,1.041595,-48.980042,-19.273010,,,,,,
1478384635.94,-2.751029,1.334102,1.801699,-0.017024,-0.706722,0.156015,-0.089273,-0.972119,0.216832,0.034982,0.020260,0.006526,0.590576,-49.205048,-19.276855,,,,,,
1478384635.96,-2.752435,1.333446,1.788577,-0.038401,-0.681101,0.163527,-0.089210,-0.971964,0.217547,0.002265,-0.000020,0.041196,-0.535095,-49.204605,-18.838074,,,,,,
1478384635.98,-2.744969,1.332900,1.770141,-0.068915,-0.431613,0.244292,-0.091037,-0.971836,0.217365,0.019290,-0.028546,0.037610,0.064667,-49.430130,-19.356384,,,,,,
1478384636.00,-2.730437,1.332316,1.746687,-0.089166,-0.412072,0.278500,-0.094412,-0.971698,0.216539,0.073706,0.000797,0.002333,0.064667,-49.430130,-19.356384,,,,,,
1478384636.02,-2.712280,1.331650,1.719298,-0.101797,-0.434983,0.329699,-0.098597,-0.971541,0.215377,0.098918,0.020888,-0.002624,-0.833862,-49.130203,-19.441284,,,,,,
1478384636.04,-2.692602,1.330297,1.688869,-0.082299,-0.513342,0.374391,-0.103387,-0.971219,0.214580,0.088739,0.025067,-0.015972,-2.259171,-49.205215,-19.455322,,,,,,
1478384636.06,-2.668321,1.327959,1.654284,-0.084566,-0.437807,0.445111,-0.109601,-0.970660,0.214027,0.037656,-0.003645,-0.026421,-2.708496,-48.979996,-19.235474,,,,,,
1478384636.08,-2.638310,1.325201,1.616604,-0.098011,-0.212141,0.491651,-0.117264,-0.969993,0.212986,-0.039382,-0.040246,0.019512,-3.008728,-49.130310,-19.538025,,,,,,
1478384636.10,-2.599366,1.322328,1.575369,-0.144550,0.018315,0.502888,-0.126905,-0.969290,0.210645,-0.040712,-0.001794,-0.007886,-3.008728,-49.130310,-19.538025,,,,,,
,,,,,,,,,,,,,,,,37.354386,-122.033341,46.297485,0.700000,77.695312,1478384636.00
1478384636.12,-2.555328,1.320953,1.534540,-0.252350,0.375589,0.429962,-0.136793,-0.968951,0.205964,-0.021212,0.025210,0.010741,-3.833374,-49.205765,-19.996033,,,,,,
1478384636.14,-2.503576,1.321750,1.493914,-0.356908,0.726676,0.374119,-0.146805,-0.969148,0.197992,-0.113343,-0.047347,0.109503,-4.808365,-49.130554,-19.780945,,,,,,
1478384636.16,-2.438349,1.323736,1.446247,-0.484941,1.136477,0.416692,-0.158152,-0.969636,0.186533,-0.136388,-0.150329,0.117818,-4.056122,-48.831146,-20.374390,,,,,,
1478384636.18,-2.355187,1.324946,1.388847,-0.540195,1.478119,0.537199,-0.172270,-0.969931,0.171923,0.034910,-0.024012,0.062467,-4.054886,-48.681519,-20.749817,,,,,,
1478384636.20,-2.255902,1.321238,1.317806,-0.505714,1.500006,0.839683,-0.191247,-0.969022,0.156275,0.282219,-0.021747,0.009801,-4.054886,-48.681519,-20.749817,,,,,,
1478384636.22,-2.151012,1.310891,1.235187,-0.564420,1.025412,1.148118,-0.214931,-0.966414,0.140882,0.486415,-0.233705,-0.036771,-4.427856,-48.457199,-21.429199,,,,,,
1478384636.24,-2.044703,1.292146,1.139053,-0.681488,0.574305,1.654174,-0.244745,-0.961428,0.125527,0.484903,-0.528608,-0.137093,-5.625031,-48.082962,-22.192322,,,,,,
1478384636.26,-1.948987,1.263826,1.041122,-0.600406,-0.614354,1.994009,-0.280819,-0.953253,0.111574,0.029736,-0.561883,-0.668443,-5.845856,-47.559158,-23.396057,,,,,,
1478384636.28,-1.909844,1.227599,0.970862,-0.377747,-1.242276,2.064253,-0.317343,-0.941684,0.111916,0.343604,-0.514081,0.069938,-7.866898,-46.884796,-24.018311,,,,,,
1478384636.30,-1.856886,1.192117,0.917265,-0.343105,0.838659,1.970675,-0.354667,-0.929154,0.104329,0.638679,-0.488479,0.211925,-7.866898,-46.884796,-24.018311,,,,,,
1478384636.32,-1.804495,1.152053,0.873829,-0.255350,0.237388,2.348463,-0.395559,-0.913601,0.094162,0.832235,-0.444798,-0.033631,-10.039734,-46.359650,-23.891663,,,,,,
1478384636.34,-1.785498,1.097701,0.838416,-0.097950,-1.301577,3.085988,-0.445182,-0.890162,0.097078,1.417427,-0.421758,0.203185,-13.255325,-44.560532,-24.754150,,,,,,
1478384636.36,-1.819850,1.028790,0.818240,0.589853,-3.535038,3.674015,-0.499940,-0.856675,0.127152,1.362992,-0.356276,0.327026,-16.476898,-43.735336,-24.563843,,,,,,
1478384636.38,-1.918794,0.948438,0.813971,1.334346,-5.981024,3.962398,-0.548009,-0.812506,0.198796,0.824392,-0.353571,0.438319,-20.750809,-42.758133,-22.359558,,,,,,
1478384636.40,-2.044059,0.866554,0.811523,1.637223,-6.266188,3.579645,-0.576292,-0.762103,0.295106,0.710630,-0.254667,0.412719,-20.750809,-42.758133,-22.359558,,,,,,
1478384636.42,-2.149793,0.795818,0.808080,1.663410,-4.830935,2.857112,-0.585658,-0.714436,0.382865,0.594737,-0.193736,0.370583,-27.500229,-41.253998,-18.231567,,,,,,
1478384636.44,-2.223126,0.738339,0.801831,1.340133,-3.325195,2.248486,-0.587729,-0.673060,0.448959,0.474967,-0.159749,0.045380,-32.227158,-39.973877,-13.107666,,,,,,
1478384636.46,-2.263794,0.699293,0.791967,0.640285,-1.752863,1.436387,-0.588770,-0.643677,0.488908,0.539667,-0.028519,-0.089784,-36.198441,-36.666428,-5.657288,,,,,,
1478384636.48,-2.273912,0.687183,0.781066,-0.307638,-0.379668,0.289962,-0.589696,-0.634362,0.499843,0.642873,0.090875,-0.255748,-37.171967,-35.689484,-3.719910,,,,,,
1478384636.50,-2.262728,0.704928,0.769717,-1.248137,0.381898,-0.784412,-0.586488,-0.647979,0.485958,0.795580,0.107222,-0.423015,-37.171967,-35.689484,-3.719910,,,,,,
1478384636.52,-2.250898,0.747126,0.755588,-2.013495,-0.170426,-1.580032,-0.570416,-0.679533,0.461369,0.801586,0.171476,-0.422108,-38.296600,-35.539276,-3.506653,,,,,,
1478384636.54,-2.256073,0.807457,0.737858,-2.596438,-1.344550,-2.137719,-0.535264,-0.722532,0.437539,0.808809,0.192746,-0.268776,-36.795944,-35.765381,-4.615967,,,,,,
1478384636.56,-2.288980,0.880873,0.717443,-3.050284,-3.137841,-2.488542,-0.479270,-0.771295,0.418814,0.808035,0.095651,-0.135626,-33.803329,-37.866776,-6.004761,,,,,,
1478384636.58,-2.359239,0.963234,0.695884,-3.430801,-5.087951,-2.590727,-0.402434,-0.821042,0.404892,0.743926,-0.108249,0.065186,-33.059753,-39.141312,-5.543518,,,,,,
1478384636.60,-2.459576,1.052693,0.675099,-3.862818,-6.211932,-2.574287,-0.312175,-0.868760,0.384451,0.498760,-0.248763,0.376108,-33.059753,-39.141312,-5.543518,,,,,,
1478384636.62,-2.570124,1.150197,0.661841,-4.285810,-5.900814,-2.660710,-0.220841,-0.912844,0.343430,0.109772,-0.344571,0.654678,-31.116302,-40.190094,-4.320862,,,,,,
1478384636.64,-2.682712,1.254255,0.674403,-4.488915,-4.439182,-2.801279,-0.137881,-0.950318,0.279079,-0.223112,-0.460434,0.854679,-28.647079,-41.389832,-4.067627,,,,,,
1478384636.66,-2.825894,1.359574,0.751208,-4.507972,-2.924052,-2.987324,-0.065094,-0.977775,0.199294,-0.233933,-0.467720,0.821748,-26.702744,-42.664886,-4.119324,,,,,,
1478384636.68,3.103680,1.456829,1.062421,-4.320791,-1.976954,-3.265388,0.004310,-0.993513,0.113639,0.026421,-0.191164,0.835778,-22.506348,-44.693588,-7.821289,,,,,,
1478384636.70,1.965719,1.485941,2.172999,-3.792027,-1.378808,-3.829086,0.078229,-0.996402,0.032608,0.083102,-0.067975,0.820404,-22.506348,-44.693588,-7.821289,,,,,,
1478384636.72,1.350950,1.406333,2.769123,-2.992730,-1.010151,-4.214519,0.159782,-0.986506,-0.035705,-0.142128,-0.138173,0.780196,-19.352005,-44.846924,-11.164307,,,,,,
1478384636.74,1.221677,1.313618,2.881150,-2.096609,-0.977556,-3.999186,0.239009,-0.967112,-0.087006,-0.457301,-0.160620,0.898026,-15.599243,-45.149673,-13.900818,,,,,,
1478384636.76,1.190582,1.234596,2.896159,-1.387231,-0.635106,-3.335656,0.306343,-0.944015,-0.122433,-0.785408,-0.201523,0.926770,-12.371964,-45.376892,-16.117920,,,,,,
1478384636.78,1.187843,1.174222,2.900269,-1.065747,0.515434,-2.437663,0.358282,-0.922389,-0.144331,-0.742102,-0.205113,0.721846,-7.418335,-45.379303,-18.543396,,,,,,
1478384636.80,1.214896,1.135397,2.892133,-0.173509,1.101987,-1.496422,0.395342,-0.906702,-0.146960,-0.652056,0.037073,0.615069,-7.418335,-45.379303,-18.543396,,,,,,
1478384636.82,1.260242,1.126976,2.859111,0.945121,0.449138,-0.042149,0.408853,-0.903118,-0.131217,-0.650430,0.144969,0.543876,-4.716553,-45.230026,-19.266846,,,,,,
1478384636.84,1.307553,1.152658,2.797077,1.976015,-1.102298,1.343257,0.392072,-0.913846,-0.105663,-0.605771,0.144468,0.535396,-3.215805,-45.080093,-19.327271,,,,,,
1478384636.86,1.353135,1.199729,2.703019,2.384259,-2.465235,2.088114,0.354055,-0.931941,-0.078305,-0.631734,-0.079869,0.546261,-3.670074,-45.603821,-18.055176,,,,,,
1478384636.88,1.404280,1.249528,2.596330,2.161913,-2.278449,1.982467,0.311402,-0.948836,-0.052338,-0.786424,-0.084016,0.587388,-8.556564,-46.649292,-13.525879,,,,,,
1478384636.90,1.470353,1.287725,2.506130,0.979339,0.191205,1.579066,0.277899,-0.960202,-0.028007,-0.608496,-0.326953,-0.319222,-8.556564,-46.649292,-13.525879,,,,,,
1478384636.92,1.566410,1.305922,2.430605,1.418454,0.494269,0.282530,0.261785,-0.965126,-0.001148,0.455912,-1.417824,-0.654491,-10.284454,-46.797806,-12.042786,,,,,,
1478384636.94,1.665282,1.318743,2.297264,2.043133,-2.455060,1.260589,0.248280,-0.968402,0.023529,-0.188573,-0.497174,0.285812,-11.035446,-46.797150,-11.375305,,,,,,
1478384636.96,1.830006,1.357418,2.074656,2.175377,-2.402381,2.858255,0.204688,-0.977321,0.054278,-0.617957,-0.053670,0.337079,-11.939713,-47.170425,-9.658203,,,,,,
1478384636.98,2.045067,1.394854,1.807338,1.518802,-2.299194,2.143691,0.155716,-0.984562,0.079937,-0.708588,0.285160,0.338322,-14.567139,-46.943130,-7.360168,,,,,,
1478384637.00,2.213382,1.395884,1.614608,1.306208,0.006311,0.382493,0.139313,-0.984742,0.104286,-0.546662,0.218476,0.760613,-14.567139,-46.943130,-7.360168,,,,,,
1478384637.02,2.363073,1.386035,1.503269,0.950188,3.010667,0.352743,0.129007,-0.982980,0.130794,-0.375406,0.070611,0.501164,-17.494431,-46.189331,-3.566650,,,,,,
1478384637.04,2.520791,1.379045,1.413369,0.747732,3.369905,0.384363,0.110857,-0.981672,0.155019,-0.313036,-0.085528,0.129100,-18.245209,-46.264038,-3.273987,,,,,,
1478384637.06,2.635599,1.371357,1.338384,0.697681,1.151142,0.557668,0.096024,-0.980178,0.173294,0.191390,-0.230851,-0.273087,-18.243301,-45.964417,-3.649841,,,,,,
1478384637.08,2.742415,1.366594,1.230322,0.682190,-0.470934,0.913237,0.078815,-0.979223,0.186843,0.620144,0.038000,-0.164825,-18.018311,-46.039642,-3.872375,,,,,,
1478384637.10,2.796134,1.358872,1.154889,0.616606,-1.181549,0.404736,0.071228,-0.977628,0.197914,0.118912,0.133222,0.006248,-18.018311,-46.039642,-3.872375,,,,,,
,,,,,,,,,,,,,,,,37.354381,-122.033334,46.195129,0.700000,120.937500,1478384637.00
1478384637.12,2.830198,1.350226,1.102794,0.565480,-0.502413,0.458868,0.067033,-0.975773,0.208264,-0.167619,0.009785,0.242054,-19.368164,-45.437927,-2.162720,,,,,,
1478384637.14,2.889200,1.343751,1.043150,0.451129,0.303770,0.537813,0.056212,-0.974336,0.217968,-0.245238,0.024140,0.200733,-20.644150,-45.362045,-1.275635,,,,,,
1478384637.16,2.940704,1.337888,1.001249,0.359254,0.611409,0.324815,0.046056,-0.972999,0.226167,-0.084798,0.034370,0.092238,-21.020828,-45.661819,-1.053528,,,,,,
1478384637.18,2.981692,1.332193,0.971132,0.339213,0.535196,0.293586,0.037631,-0.971669,0.233331,0.060544,0.026738,-0.028772,-20.642914,-44.986740,-0.976807,,,,,,
1478384637.20,3.017813,1.326021,0.942841,0.365280,0.380545,0.292138,0.029920,-0.970192,0.240484,0.067538,-0.019676,-0.092825,-20.642914,-44.986740,-0.976807,,,,,,
1478384637.22,3.053604,1.318882,0.912123,0.415881,0.254716,0.373080,0.021903,-0.968437,0.248294,0.074181,-0.029213,-0.064456,-20.717224,-44.836746,-0.977966,,,,,,
1478384637.24,3.091844,1.310765,0.875536,0.456033,0.073549,0.469878,0.012786,-0.966382,0.256793,0.182191,0.050076,0.000058,-22.216644,-44.611465,-0.693665,,,,,,
1478384637.26,3.130890,1.301045,0.835572,0.530853,0.021098,0.522216,0.002852,-0.963837,0.266477,0.267915,0.124756,-0.008084,-21.841644,-44.461014,-0.240356,,,,,,
1478384637.28,-3.113369,1.289401,0.796232,0.595612,0.110438,0.566380,-0.007836,-0.960669,0.277586,0.173608,0.055716,-0.013747,-22.291412,-44.310715,0.054688,,,,,,
1478384637.30,-3.065963,1.276152,0.751751,0.637885,0.291831,0.730421,-0.021942,-0.956906,0.289569,-0.077591,-0.163700,-0.099796,-22.291412,-44.310715,0.054688,,,,,,
1478384637.32,-3.012936,1.262024,0.703484,0.630116,0.423968,0.806629,-0.038990,-0.952707,0.301378,-0.157727,-0.141714,-0.056352,-22.442322,-44.385345,0.428406,,,,,,
1478384637.34,-2.953836,1.246346,0.656043,0.693785,0.866974,0.889159,-0.059504,-0.947826,0.313185,0.019114,-0.034977,-0.015517,-24.615356,-43.709610,1.154602,,,,,,
1478384637.36,-2.886788,1.227143,0.607978,0.812335,1.177752,1.051552,-0.084925,-0.941530,0.326050,0.322474,-0.026854,-0.047791,-24.315384,-43.634384,1.382446,,,,,,
1478384637.38,-2.816050,1.202878,0.556276,0.933720,0.990306,1.311942,-0.115032,-0.933078,0.340782,0.467174,-0.163891,-0.124260,-25.660141,-42.509476,1.290588,,,,,,
1478384637.40,-2.750290,1.173736,0.500035,1.024080,0.532125,1.607860,-0.147488,-0.922202,0.357479,0.378125,-0.311624,-0.118175,-25.660141,-42.509476,1.290588,,,,,,
1478384637.42,-2.685486,1.139892,0.442688,1.101390,0.771838,1.819133,-0.183975,-0.908588,0.374993,0.214218,-0.293972,-0.086373,-26.857086,-41.759262,1.501343,,,,,,
1478384637.44,-2.613821,1.101141,0.388791,1.189285,1.366009,2.042084,-0.227923,-0.891724,0.390997,0.122225,-0.324020,-0.175635,-28.280945,-41.308685,2.085815,,,,,,
1478384637.46,-2.536998,1.057110,0.335104,1.140731,1.400064,2.406425,-0.279321,-0.870939,0.404283,0.325982,-0.600634,-0.065416,-31.044769,-38.833710,2.050781,,,,,,
1478384637.48,-2.461283,1.005173,0.277383,1.165201,1.319748,2.910542,-0.337126,-0.844255,0.416630,0.623243,-1.139800,-0.335010,-32.761734,-37.033661,2.103149,,,,,,
1478384637.50,-2.389448,0.951094,0.224387,1.061236,1.498216,2.875595,-0.396801,-0.814051,0.424110,0.809628,-1.018438,-0.369743,-32.761734,-37.033661,2.103149,,,,,,
1478384637.52,-2.317382,0.891562,0.182844,1.321242,2.202105,3.028631,-0.461104,-0.778054,0.426632,1.134841,-0.885032,-0.513531,-35.380051,-35.533615,2.147461,,,,,,
1478384637.54,-2.251215,0.834175,0.157337,1.172764,2.398894,2.487224,-0.522188,-0.740743,0.422634,1.277193,-0.628169,-0.280941,-37.168320,-33.209457,1.297607,,,,,,
1478384637.56,-2.203035,0.784964,0.142721,1.134176,1.353846,2.202218,-0.570675,-0.706800,0.418048,1.213833,-0.321078,-0.082049,-39.470551,-28.861603,-0.838440,,,,,,
1478384637.58,-2.198234,0.736038,0.134375,1.155387,-0.965158,2.091171,-0.599974,-0.671357,0.435100,0.669218,-0.248993,0.010930,-40.437332,-27.212143,-1.378052,,,,,,
1478384637.60,-2.223706,0.695164,0.122516,0.629801,-1.632176,1.799932,-0.609997,-0.640511,0.466529,0.269314,-0.629432,0.023507,-40.437332,-27.212143,-1.378052,,,,,,
1478384637.62,-2.234483,0.673636,0.105865,-0.078573,-0.803775,0.798798,-0.615655,-0.623832,0.481460,0.281258,-0.394662,-0.262588,-42.232224,-25.560593,0.174072,,,,,,
1478384637.64,-2.239501,0.676524,0.099248,-0.444361,-0.238332,-0.346700,-0.611815,-0.626086,0.483424,0.335814,0.203265,-0.021571,-42.003952,-24.509628,1.148193,,,,,,
1478384637.66,-2.238497,0.698425,0.096738,-0.928734,-0.001701,-1.021066,-0.601387,-0.643012,0.474204,0.378288,0.450828,-0.090263,-42.977692,-23.983871,1.886902,,,,,,
1478384637.68,-2.245468,0.732468,0.094678,-1.225161,-0.768654,-1.439308,-0.580629,-0.668706,0.464437,0.515077,0.503194,-0.259237,-42.534012,-25.559387,1.371033,,,,,,
1478384637.70,-2.272024,0.778152,0.095072,-1.587669,-1.602919,-2.022387,-0.544166,-0.701964,0.459488,0.702232,0.359206,-0.307236,-42.534012,-25.559387,1.371033,,,,,,
1478384637.72,-2.318467,0.841483,0.102281,-2.135147,-2.349145,-2.859829,-0.488623,-0.745632,0.453078,0.711005,0.208935,-0.147536,-41.867676,-27.434235,1.533325,,,,,,
1478384637.74,-2.385763,0.923778,0.117822,-2.787072,-2.965897,-3.456703,-0.413463,-0.797885,0.438667,0.473399,0.104876,0.043313,-39.773819,-28.708984,1.783081,,,,,,
1478384637.76,-2.466449,1.016659,0.140006,-3.278621,-3.178593,-3.510496,-0.328886,-0.850355,0.410768,0.197371,0.002104,0.040755,-38.286774,-31.333206,2.555847,,,,,,
1478384637.78,-2.557101,1.115645,0.171184,-3.717858,-3.107477,-3.583717,-0.242560,-0.898195,0.366621,-0.006067,0.051805,0.197649,-33.889420,-37.257553,3.217529,,,,,,
1478384637.80,-2.674269,1.221960,0.239870,-4.058573,-2.378617,-4.010742,-0.153983,-0.939771,0.305155,-0.083505,0.028684,0.354269,-33.889420,-37.257553,3.217529,,,,,,
1478384637.82,-2.882846,1.331529,0.418269,-4.217438,-1.611048,-4.559144,-0.060639,-0.971512,0.229102,-0.080139,-0.176941,0.412286,-30.374054,-39.733551,2.210144,,,,,,
1478384637.84,2.885197,1.416123,0.912156,-4.006241,-1.513663,-4.869420,0.039068,-0.988062,0.149021,-0.184942,-0.410742,0.483013,-27.381439,-42.135849,-0.077698,,,,,,
1478384637.86,2.062585,1.416764,1.710503,-3.546919,-1.733984,-4.518785,0.135241,-0.988160,0.072447,-0.338168,-0.458312,0.424928,-23.487244,-44.238281,-2.507507,,,,,,
1478384637.88,1.586920,1.348458,2.157260,-2.928315,-1.795732,-4.164230,0.220482,-0.975384,0.003555,-0.402352,-0.371463,0.525986,-16.369019,-47.317993,-7.227051,,,,,,
1478384637.90,1.393882,1.264373,2.324036,-2.273839,-1.452598,-3.872606,0.296942,-0.953419,-0.053088,-0.469900,-0.450909,0.648395,-16.369019,-47.317993,-7.227051,,,,,,
1478384637.92,1.304305,1.189818,2.391814,-1.745020,-1.185372,-3.018350,0.358704,-0.928301,-0.097920,-0.742020,-0.448530,0.820806,-12.543533,-47.920135,-9.362000,,,,,,
1478384637.94,1.263843,1.139963,2.419546,-0.852746,-0.447452,-1.733729,0.398107,-0.908618,-0.126188,-1.036443,-0.146451,1.002959,-9.543121,-48.221298,-10.531067,,,,,,
1478384637.96,1.269244,1.126584,2.410891,0.515294,-0.031177,-0.010044,0.410355,-0.902950,-0.127636,-1.072541,0.079921,0.925381,-7.591248,-48.222549,-11.786560,,,,,,
1478384637.98,1.305532,1.154440,2.365047,1.726165,-0.467102,1.619139,0.390285,-0.914569,-0.106027,-0.895015,0.074527,0.736673,-7.442505,-48.447403,-11.634399,,,,,,
1478384638.00,1.368561,1.205642,2.279731,2.355132,-0.926843,2.330538,0.349816,-0.934069,-0.071726,-0.877679,-0.108076,0.877237,-7.442505,-48.447403,-11.634399,,,,,,
1478384638.02,1.468309,1.263389,2.155270,2.489453,-0.827026,2.604562,0.301001,-0.953121,-0.030957,-0.986715,-0.241520,0.576535,-9.697861,-48.669495,-8.731323,,,,,,
1478384638.04,1.577715,1.313017,2.038802,0.971537,0.898143,2.156861,0.254928,-0.966958,0.001764,-0.369323,-0.477240,-0.597101,-12.401978,-48.666748,-5.983337,,,,,,
1478384638.06,1.715537,1.326650,1.942900,1.551766,1.876721,-0.162188,0.239201,-0.970344,0.034866,0.838665,-0.983040,-0.250045,-15.102142,-48.140060,-4.286926,,,,,,
1478384638.08,1.832381,1.323516,1.810156,1.874586,-1.965480,0.756264,0.236442,-0.969582,0.063300,-0.191962,-0.315071,0.148187,-15.703018,-48.214691,-3.917664,,,,,,
,,,,,,,,,,,,,,,,37.354405,-122.033372,45.877686,0.700000,304.804688,1478384638.00
1478384638.10,1.992791,1.350447,1.592732,1.902506,-2.357598,2.848273,0.199396,-0.975821,0.089523,-0.517283,0.012457,0.434220,-15.703018,-48.214691,-3.917664,,,,,,
1478384638.12,2.228365,1.379968,1.310586,1.583717,-1.932426,2.183261,0.150122,-0.981847,0.115927,-0.713934,0.327062,0.058314,-17.053543,-47.085953,-0.184570,,,,,,
1478384638.14,2.381287,1.372745,1.130661,1.419590,-0.492274,0.323608,0.135595,-0.980452,0.142577,-0.392386,0.113478,0.612016,-19.829056,-46.333359,2.410400,,,,,,
1478384638.16,2.501249,1.359704,1.036992,0.964521,2.595075,0.483025,0.125187,-0.977803,0.168019,-0.175495,0.003239,0.689434,-20.955719,-46.106567,4.198425,,,,,,
1478384638.18,2.656747,1.352417,0.939582,0.829187,2.686175,0.647578,0.100974,-0.976250,0.191679,-0.361655,-0.032371,-0.057478,-20.878342,-45.581573,4.197632,,,,,,
1478384638.20,2.742152,1.342665,0.879121,0.658624,0.619377,0.359532,0.087954,-0.974091,0.208354,0.153212,-0.122314,-0.116802,-20.878342,-45.581573,4.197632,,,,,,
1478384638.22,2.818243,1.335173,0.803220,0.660866,-0.168716,0.846705,0.074177,-0.972369,0.221351,0.422466,-0.032972,-0.108054,-21.551666,-45.357025,3.740234,,,,,,
1478384638.24,2.870033,1.327674,0.734408,0.541593,-1.001417,0.496970,0.064573,-0.970591,0.231913,0.095568,0.023844,0.012548,-23.425720,-44.831070,4.694946,,,,,,
1478384638.26,2.891857,1.320123,0.697419,0.470007,-0.366813,0.313754,0.061307,-0.968746,0.240361,-0.178174,-0.003087,0.198436,-23.802048,-44.905396,5.366394,,,,,,
1478384638.28,2.930540,1.312896,0.659849,0.449884,0.300184,0.413849,0.053431,-0.966928,0.249392,-0.324091,0.001351,0.082029,-23.426041,-44.454727,6.043762,,,,,,
1478384638.30,2.974886,1.306196,0.622978,0.406485,0.526913,0.380207,0.043396,-0.965197,0.257898,-0.167023,0.022906,0.039282,-23.426041,-44.454727,6.043762,,,,,,
1478384638.32,3.015235,1.299197,0.594083,0.393223,0.637994,0.303563,0.033808,-0.963343,0.266134,0.048879,0.005351,-0.014302,-23.500259,-44.154358,6.417175,,,,,,
1478384638.34,3.049479,1.292323,0.569078,0.372585,0.437422,0.313660,0.025285,-0.961476,0.273723,0.141722,-0.044490,-0.002071,-24.998764,-43.779221,6.551086,,,,,,
1478384638.36,3.085652,1.285331,0.542056,0.386077,0.571478,0.365337,0.015745,-0.959531,0.281164,0.127001,-0.041278,-0.020101,-24.546646,-43.329285,6.479248,,,,,,
1478384638.38,3.124209,1.276989,0.513164,0.479110,0.493651,0.431527,0.005034,-0.957148,0.289555,0.184938,0.063593,-0.051442,-25.145508,-43.104370,6.397522,,,,,,
1478384638.40,-3.112818,1.265563,0.474352,0.621327,0.444833,0.677377,-0.008646,-0.953777,0.300392,0.401606,0.152736,-0.046684,-25.145508,-43.104370,6.397522,,,,,,
1478384638.42,-3.060171,1.250450,0.427280,0.778388,0.357188,0.794935,-0.025611,-0.949126,0.313852,0.320655,0.101226,-0.086817,-25.370834,-43.104141,6.620361,,,,,,
1478384638.44,-3.009616,1.231414,0.379622,0.898210,0.266482,0.935926,-0.043808,-0.942961,0.330009,0.043442,-0.189684,-0.137703,-26.721252,-43.028641,7.131592,,,,,,
1478384638.46,-2.950373,1.209159,0.326672,0.978261,0.651464,1.158288,-0.067243,-0.935319,0.347358,-0.036272,-0.262084,-0.155951,-27.915497,-41.527985,7.790039,,,,,,
1478384638.48,-2.882142,1.183662,0.271933,1.056382,0.948269,1.324846,-0.096857,-0.925995,0.364901,0.130731,-0.153382,-0.100634,-29.037537,-40.702469,8.301392,,,,,,
1478384638.50,-2.811947,1.153951,0.215428,1.125312,0.850535,1.607829,-0.131062,-0.914371,0.383078,0.301305,-0.257153,-0.103751,-29.037537,-40.702469,8.301392,,,,,,
1478384638.52,-2.743073,1.119962,0.155527,1.139166,0.645663,1.872258,-0.169081,-0.900084,0.401572,0.299773,-0.359819,-0.159903,-30.158356,-39.727325,8.437317,,,,,,
1478384638.54,-2.678349,1.081960,0.096907,1.194824,0.665501,2.086094,-0.209841,-0.882880,0.420107,0.223818,-0.376031,-0.147432,-31.954849,-38.826981,8.791626,,,,,,
1478384638.56,-2.613350,1.039587,0.040179,1.195889,0.770609,2.308616,-0.255322,-0.862195,0.437527,0.326901,-0.498660,-0.033474,-34.565613,-35.451340,9.430420,,,,,,
1478384638.58,-2.551811,0.991748,-0.015453,1.306036,0.800696,2.648649,-0.304356,-0.836984,0.454780,0.631505,-1.063162,-0.186012,-35.682053,-33.576416,9.338623,,,,,,
1478384638.60,-2.484686,0.940326,-0.065677,1.245646,1.654509,2.588924,-0.360005,-0.807750,0.466836,0.829946,-1.010579,-0.186837,-35.682053,-33.576416,9.338623,,,,,,
1478384638.62,-2.402517,0.886463,-0.100432,1.489013,3.442022,2.519461,-0.425823,-0.774841,0.467221,1.159146,-0.741837,-0.388547,-38.375244,-31.926010,9.756714,,,,,,
1478384638.64,-2.315101,0.834794,-0.115694,1.439029,3.803175,1.949830,-0.493803,-0.741159,0.454800,1.213545,-0.543845,-0.320339,-40.386032,-29.152161,8.603271,,,,,,
1478384638.66,-2.251095,0.788665,-0.118601,1.458218,2.433868,1.837118,-0.547896,-0.709413,0.443332,0.993468,-0.306670,-0.045246,-41.198868,-27.129211,6.564087,,,,,,
1478384638.68,-2.224639,0.738898,-0.120615,1.453051,0.529780,2.075471,-0.586750,-0.673474,0.449618,0.420430,-0.520786,-0.091296,-43.278458,-23.757675,3.083191,,,,,,
1478384638.70,-2.227727,0.693422,-0.125553,1.059890,-0.605087,1.707334,-0.608998,-0.639173,0.469659,0.312505,-0.811923,-0.391625,-43.278458,-23.757675,3.083191,,,,,,
1478384638.72,-2.241028,0.666822,-0.124468,0.746957,-0.555571,0.591493,-0.615807,-0.618492,0.488108,0.441430,-0.278984,-0.235956,-44.995331,-21.732040,3.734924,,,,,,
1478384638.74,-2.253840,0.659968,-0.114271,0.402563,-0.223874,-0.297121,-0.612777,-0.613091,0.498621,0.457366,0.165749,-0.258555,-45.064575,-20.306595,4.179932,,,,,,
1478384638.76,-2.271455,0.670393,-0.097656,0.019861,-0.540605,-1.142712,-0.598981,-0.621294,0.505189,0.528271,0.358568,-0.425584,-45.288681,-19.931061,4.701599,,,,,,
1478384638.78,-2.305487,0.698970,-0.073060,-0.367282,-1.156817,-2.044692,-0.568034,-0.643429,0.513162,0.568965,0.383404,-0.443872,-44.699936,-21.954620,6.138550,,,,,,
1478384638.80,-2.354153,0.746576,-0.039967,-0.995363,-1.356981,-2.881842,-0.520088,-0.679130,0.517969,0.514060,0.191688,-0.331583,-44.699936,-21.954620,6.138550,,,,,,
1478384638.82,-2.407154,0.812694,-0.001330,-1.728310,-1.301828,-3.484487,-0.460772,-0.726142,0.510301,0.335055,0.001655,-0.290666,-43.660309,-23.978790,6.980042,,,,,,
1478384638.84,-2.467719,0.894070,0.042428,-2.410300,-1.410159,-3.853509,-0.390787,-0.779627,0.489354,0.129465,0.051386,-0.238530,-40.972626,-26.528229,7.539551,,,,,,
1478384638.86,-2.539603,0.985243,0.097403,-2.859349,-1.369342,-4.137310,-0.312962,-0.833406,0.455509,0.038136,0.254976,-0.186268,-39.487396,-29.903503,7.264465,,,,,,
1478384638.88,-2.638993,1.084022,0.179966,-3.236780,-1.467527,-4.555989,-0.225331,-0.883846,0.409929,0.024327,0.330486,-0.129976,-34.566315,-36.654480,6.283997,,,,,,
1478384638.90,-2.799649,1.186714,0.321725,-3.582959,-1.684252,-4.992036,-0.125647,-0.927143,0.353015,0.067969,0.147419,-0.077960,-34.566315,-36.654480,6.283997,,,,,,
1478384638.92,-3.087636,1.282255,0.587807,-3.891876,-1.869265,-5.375577,-0.015346,-0.958660,0.284140,0.011730,-0.225636,0.077234,-29.929230,-39.955780,4.990234,,,,,,
1478384638.94,2.679949,1.339669,1.081609,-4.068217,-1.848224,-5.702763,0.102034,-0.973409,0.205095,-0.169616,-0.431804,0.264555,-25.740433,-43.107758,3.016602,,,,,,
1478384638.96,2.089151,1.320013,1.658786,-3.885525,-1.215466,-5.405820,0.215563,-0.968718,0.122952,-0.450838,-0.967622,0.466388,-20.947632,-45.585403,0.371948,,,,,,
1478384638.98,1.728769,1.250233,2.011875,-3.267060,-1.015568,-4.587920,0.311178,-0.949058,0.049571,-0.743887,-1.013390,0.562704,-16.680252,-48.137970,-2.202759,,,,,,
1478384639.00,1.543224,1.171784,2.186591,-2.535747,-1.128073,-3.783504,0.388361,-0.921445,-0.010711,-0.815974,-0.604098,0.661117,-16.680252,-48.137970,-2.202759,,,,,,
1478384639.02,1.448392,1.108808,2.266502,-1.473881,-1.097729,-2.469550,0.442394,-0.895168,-0.054423,-0.812419,-0.215077,0.694392,-7.977493,-49.418655,-7.886841,,,,,,
1478384639.04,1.409508,1.080458,2.287837,-0.202922,-0.918576,-0.645186,0.464813,-0.882173,-0.075626,-1.052673,-0.147993,0.754993,-5.199509,-49.345428,-9.659241,,,,,,
1478384639.06,1.413116,1.090575,2.264101,1.108921,-0.951721,0.992759,0.456244,-0.886893,-0.072543,-1.115851,0.022086,0.721286,-3.849854,-49.420410,-9.645508,,,,,,
1478384639.08,1.441398,1.130369,2.200103,1.964481,-1.748572,2.176936,0.422762,-0.904569,-0.055012,-0.956148,0.032179,0.649418,-5.050735,-49.495056,-9.282349,,,,,,
,,,,,,,,,,,,,,,,37.354413,-122.033395,45.241577,2.000000,317.460938,1478384639.00
1478384639.10,1.493509,1.187044,2.106132,2.256502,-1.494559,2.803170,0.373285,-0.927266,-0.028908,-0.943140,-0.162562,0.831505,-5.050735,-49.495056,-9.282349,,,,,,
1478384639.12,1.593937,1.243111,1.977983,2.232407,-0.744007,2.574413,0.321766,-0.946790,0.007447,-1.023182,-0.189700,0.667297,-9.554810,-49.116196,-5.428528,,,,,,
1478384639.14,1.701109,1.280939,1.874741,0.822814,1.753662,1.461262,0.283392,-0.958285,0.037140,-0.637595,-0.140882,0.106338,-11.659042,-49.263809,-3.049072,,,,,,
1478384639.16,1.832042,1.272816,1.808131,1.322530,2.904355,-0.895916,0.283628,-0.955931,0.075830,1.036883,-0.775056,-0.218835,-14.434692,-48.962494,-1.727783,,,,,,
1478384639.18,1.939208,1.264846,1.694090,1.869025,-1.694739,1.175806,0.280990,-0.953561,0.108472,0.184846,-0.809119,-0.163236,-13.833557,-48.812790,-2.022217,,,,,,
1478384639.20,2.075231,1.298675,1.508830,1.682737,-1.803479,3.116506,0.235298,-0.963203,0.129902,-0.245445,-0.290139,0.252986,-13.833557,-48.812790,-2.022217,,,,,,
1478384639.22,2.249895,1.318364,1.295216,1.663998,-1.664683,1.611449,0.194348,-0.968308,0.156872,-0.591092,0.252823,-0.056789,-13.535355,-48.510681,0.079834,,,,,,
1478384639.24,2.343644,1.308386,1.170074,1.393019,-0.790991,0.424227,0.185718,-0.965768,0.181113,-0.636355,0.215523,0.291238,-17.810822,-47.306763,4.008484,,,,,,
1478384639.26,2.463502,1.301047,1.070440,1.046231,2.250825,0.936286,0.167171,-0.963838,0.207534,-0.203563,0.065355,0.829819,-18.712830,-47.079742,6.023804,,,,,,
1478384639.28,2.590621,1.294635,0.985727,0.830552,1.844011,0.447591,0.142744,-0.962109,0.232314,-0.375975,0.008053,0.211747,-19.235580,-46.479446,6.316833,,,,,,
1478384639.30,2.644473,1.284317,0.951207,0.641023,0.717806,0.204837,0.134760,-0.959245,0.248374,-0.090036,-0.143355,-0.004599,-19.235580,-46.479446,6.316833,,,,,,
1478384639.32,2.705027,1.278275,0.895645,0.620325,0.108996,0.699943,0.121930,-0.957520,0.261321,0.232272,-0.096100,-0.106231,-19.757965,-45.954605,6.159973,,,,,,
1478384639.34,2.745541,1.271562,0.849679,0.544006,-0.196990,0.300447,0.113723,-0.955562,0.271969,0.076218,0.000225,-0.108197,-21.481827,-45.504028,6.741394,,,,,,
1478384639.36,2.773241,1.263428,0.823753,0.515511,0.346366,0.236718,0.108942,-0.953133,0.282257,-0.108744,-0.063041,0.100449,-21.631454,-45.203354,7.414001,,,,,,
1478384639.38,2.815280,1.256826,0.788882,0.480312,0.465210,0.459216,0.098998,-0.951115,0.292540,-0.132904,-0.043041,0.043916,-21.481705,-45.127975,7.790283,,,,,,
1478384639.40,2.858767,1.250398,0.754281,0.468113,0.567514,0.362249,0.087892,-0.949110,0.302432,-0.019929,0.074339,0.049481,-21.481705,-45.127975,7.790283,,,,,,
1478384639.42,2.894016,1.242721,0.728736,0.480934,0.515318,0.276654,0.078962,-0.946664,0.312397,0.100435,0.079599,-0.003742,-22.005676,-44.902985,7.784363,,,,,,
1478384639.44,2.927814,1.234547,0.701964,0.508135,0.387497,0.376782,0.070000,-0.943999,0.322438,0.099632,-0.026231,-0.040913,-22.079666,-44.602768,8.007690,,,,,,
1478384639.46,2.965728,1.225814,0.670398,0.546444,0.439873,0.461398,0.059168,-0.941081,0.332964,0.059164,-0.077275,-0.037645,-22.829651,-44.452316,8.449768,,,,,,
1478384639.48,3.009619,1.215854,0.635179,0.616346,0.614251,0.565636,0.045732,-0.937667,0.344514,0.049574,-0.049150,-0.050172,-23.653046,-44.002029,8.740173,,,,,,
1478384639.50,3.062255,1.203458,0.594731,0.748020,0.801897,0.689250,0.028463,-0.933286,0.358003,0.142649,0.034681,-0.102831,-23.653046,-44.002029,8.740173,,,,,,
1478384639.52,3.117114,1.187193,0.552224,0.913596,0.695618,0.762967,0.009161,-0.927322,0.374152,0.228190,0.074936,-0.155524,-24.252258,-43.776886,8.883545,,,,,,
1478384639.54,-3.113681,1.167039,0.508218,1.071859,0.581708,0.914645,-0.010964,-0.919591,0.392724,0.175012,-0.052439,-0.164422,-25.452347,-43.551147,9.620850,,,,,,
1478384639.56,-3.056108,1.143279,0.461680,1.162722,0.873844,1.043817,-0.035400,-0.909998,0.413099,0.084259,-0.207434,-0.166044,-26.794876,-41.750717,10.052002,,,,,,
1478384639.58,-2.992995,1.116469,0.414981,1.251684,1.127307,1.241259,-0.064974,-0.898557,0.434021,0.075975,-0.170291,-0.170426,-27.917496,-41.075272,10.488770,,,,,,
1478384639.60,-2.921980,1.085267,0.363175,1.360192,1.318118,1.547541,-0.101666,-0.884428,0.455468,0.213696,-0.217684,-0.132500,-27.917496,-41.075272,10.488770,,,,,,
1478384639.62,-2.849201,1.050220,0.311070,1.393350,1.365267,1.729348,-0.143367,-0.867533,0.476270,0.323146,-0.322043,-0.174711,-29.037979,-39.949921,10.849121,,,,,,
1478384639.64,-2.776453,1.010692,0.259512,1.484939,1.501182,2.001260,-0.189708,-0.847200,0.496250,0.370402,-0.378844,-0.210422,-31.134689,-39.124649,11.125671,,,,,,
1478384639.66,-2.703971,0.965357,0.211002,1.584981,1.613581,2.178033,-0.241187,-0.822252,0.515490,0.429663,-0.467497,-0.214343,-33.820221,-35.899597,11.164124,,,,,,
1478384639.68,-2.626932,0.913942,0.164428,1.708576,2.443506,2.561958,-0.300576,-0.791917,0.531528,0.621620,-1.144042,-0.176105,-35.612442,-34.249847,10.916321,,,,,,
1478384639.70,-2.526807,0.856239,0.126167,1.979686,4.220560,2.504281,-0.377957,-0.755383,0.535299,0.910748,-1.412906,-0.511495,-35.612442,-34.249847,10.916321,,,,,,
1478384639.72,-2.430305,0.793672,0.111372,2.206656,3.748751,2.242683,-0.457771,-0.712933,0.531199,1.391975,-0.956668,-0.727137,-38.674896,-31.775787,9.978271,,,,,,
1478384639.74,-2.395156,0.727200,0.105656,2.437424,0.072636,2.533199,-0.507259,-0.664780,0.548411,1.327603,-0.832839,-0.542964,-40.385590,-29.378128,7.628906,,,,,,
1478384639.76,-2.426780,0.652427,0.098204,2.584980,-2.594621,2.797497,-0.520850,-0.607117,0.600104,0.883734,-0.676010,-0.151633,-41.574432,-27.204056,6.710571,,,,,,
1478384639.78,-2.473141,0.581388,0.079986,2.029547,-2.789793,2.801336,-0.517944,-0.549184,0.655843,0.225448,-0.686869,0.107416,-42.830322,-21.273987,11.780212,,,,,,
1478384639.80,-2.504417,0.532666,0.059908,0.978389,-1.468769,1.607577,-0.512504,-0.507832,0.692421,-0.342355,-0.569836,-0.121712,-42.830322,-21.273987,11.780212,,,,,,
1478384639.82,-2.502356,0.521497,0.056366,0.057033,0.917680,-0.213395,-0.517282,-0.498178,0.695872,-0.108649,-0.221136,-0.292567,-43.799911,-19.171310,14.464172,,,,,,
1478384639.84,-2.465865,0.541959,0.067589,-0.885767,2.673794,-1.375853,-0.535836,-0.515815,0.668442,0.268593,0.176750,-0.112427,-43.044952,-17.895767,14.992920,,,,,,
1478384639.86,-2.409337,0.585154,0.076316,-1.670954,3.144693,-1.819319,-0.557321,-0.552328,0.619942,0.483682,0.339986,-0.266335,-43.644958,-18.572800,12.963989,,,,,,
1478384639.88,-2.358405,0.643454,0.079478,-2.215009,2.153708,-2.333697,-0.564454,-0.599962,0.566954,0.595810,0.458163,-0.491667,-44.105804,-22.853409,7.347168,,,,,,
1478384639.90,-2.337051,0.718100,0.087044,-2.478338,0.812457,-3.224635,-0.542587,-0.657955,0.522201,0.763748,0.489986,-0.434494,-44.105804,-22.853409,7.347168,,,,,,
1478384639.92,-2.354791,0.807614,0.107379,-2.702137,-0.825759,-3.975290,-0.489455,-0.722640,0.488084,0.823943,0.402266,-0.371812,-42.688599,-25.330643,5.118774,,,,,,
1478384639.94,-2.414393,0.907433,0.138509,-3.045993,-2.338164,-4.251428,-0.409352,-0.787926,0.460004,0.642476,0.254387,-0.305265,-40.599121,-28.106964,3.798035,,,,,,
1478384639.96,-2.514081,1.013256,0.184202,-3.480212,-3.524038,-4.410367,-0.310652,-0.848559,0.428302,0.316069,0.178927,-0.219379,-38.590820,-31.857086,3.679382,,,,,,
1478384639.98,-2.656416,1.125694,0.260206,-4.013338,-3.785314,-4.587234,-0.200793,-0.902567,0.380861,-0.001920,0.091226,0.019728,-35.606293,-35.307114,3.644531,,,,,,
1478384640.00,-2.856529,1.242135,0.403283,-4.593642,-2.960250,-4.747306,-0.090771,-0.946475,0.309751,-0.248096,-0.157956,0.306369,-35.606293,-35.307114,3.644531,,,,,,
1478384640.02,3.064471,1.348303,0.740225,-4.780224,-1.223303,-5.339032,0.017001,-0.975350,0.220007,-0.441638,-0.328605,0.569971,-28.359314,-41.833008,2.761597,,,,,,
1478384640.04,2.349139,1.386979,1.457034,-4.487473,-0.363615,-5.731474,0.130156,-0.983153,0.128333,-0.634734,-0.484727,0.650613,-24.090164,-44.161102,-0.338745,,,,,,
1478384640.06,1.767201,1.328538,2.042871,-3.821256,-0.482760,-5.015868,0.235284,-0.970799,0.046814,-0.652672,-0.636059,0.621246,-18.694870,-46.414719,-3.953003,,,,,,
1478384640.08,1.520734,1.242258,2.288262,-2.659609,-0.619090,-4.285558,0.322255,-0.946515,-0.016146,-0.572576,-0.571506,0.744128,-14.796753,-47.917984,-7.209534,,,,,,
1478384640.10,1.416421,1.162968,2.375278,-1.564469,-1.527545,-3.406841,0.391900,-0.917984,-0.060985,-0.713861,-0.574600,0.788265,-14.796753,-47.917984,-7.209534,,,,,,
,,,,,,,,,,,,,,,,37.354427,-122.033419,44.556274,2.840000,313.945312,1478384640.00
1478384640.12,1.357395,1.115164,2.401109,-0.591430,-1.685225,-1.369169,0.430048,-0.897983,-0.093192,-1.246531,-0.417935,1.112143,-6.993408,-48.597244,-11.479492,,,,,,
1478384640.14,1.347157,1.123197,2.390400,0.910354,-0.690923,1.265566,0.422025,-0.901489,-0.095987,-1.534253,0.026412,0.991296,-5.340942,-48.373215,-12.438599,,,,,,
1478384640.16,1.387939,1.173238,2.325367,2.308374,-1.182499,2.555164,0.380714,-0.922009,-0.070403,-1.184165,0.325528,0.861296,-6.619293,-48.747086,-11.325256,,,,,,
1478384640.18,1.485666,1.238686,2.196354,2.790513,-0.764782,3.158673,0.324858,-0.945356,-0.027722,-1.007689,-0.010378,0.989484,-8.872650,-48.970535,-9.772095,,,,,,
1478384640.20,1.607881,1.295342,2.106010,0.781450,3.830008,1.807716,0.271798,-0.962302,0.010084,-0.177697,-1.242960,-0.541212,-8.872650,-48.970535,-9.772095,,,,,,
1478384640.22,1.782908,1.279150,2.020190,1.182906,3.754649,-1.228249,0.281085,-0.957772,0.060532,0.584164,-0.942375,-0.277985,-11.425949,-48.817856,-7.098083,,,,,,
1478384640.24,1.892813,1.271661,1.919904,1.701039,-0.863249,1.064536,0.279546,-0.955592,0.093265,-0.117818,-0.074361,0.087674,-11.724823,-48.292053,-6.277710,,,,,,
1478384640.26,2.081295,1.308961,1.698497,2.142647,-1.118417,3.682237,0.225850,-0.965917,0.126479,-0.453847,-0.059230,0.496843,-13.078873,-48.665482,-4.715149,,,,,,
1478384640.28,2.289027,1.337022,1.447568,1.464105,-2.252996,1.999444,0.174426,-0.972799,0.152439,-0.655963,0.019613,-0.117969,-16.004807,-48.138260,-2.495972,,,,,,
1478384640.30,2.369367,1.327374,1.328409,1.277946,-0.919704,0.134117,0.168171,-0.970519,0.172661,-0.331654,0.153075,0.409843,-16.004807,-48.138260,-2.495972,,,,,,
1478384640.32,2.480829,1.317790,1.241667,0.931586,2.402770,0.825376,0.153624,-0.968164,0.197630,-0.153624,0.045694,0.774568,-17.728973,-47.311325,-0.565674,,,,,,
1478384640.34,2.618291,1.313969,1.145972,0.794074,1.724422,0.717497,0.126941,-0.967201,0.220020,-0.387119,0.084861,0.156613,-18.854980,-46.859314,1.446716,,,,,,
1478384640.36,2.683261,1.304923,1.096188,0.636451,0.521285,0.277997,0.116255,-0.964864,0.235633,-0.056807,-0.038173,-0.008278,-20.429382,-46.784485,1.280701,,,,,,
1478384640.38,2.739506,1.298774,1.043320,0.554345,0.056744,0.631293,0.105145,-0.963229,0.247252,0.251697,-0.122342,-0.088026,-20.053040,-46.409256,1.508362,,,,,,
1478384640.40,2.782345,1.292907,0.993395,0.494541,-0.331389,0.406821,0.096445,-0.961637,0.256814,0.048285,-0.043796,-0.094140,-20.053040,-46.409256,1.508362,,,,,,
1478384640.42,2.813051,1.286197,0.962102,0.443311,0.289982,0.270614,0.090595,-0.959774,0.265755,-0.171421,-0.044040,0.095573,-20.427917,-46.258881,1.879150,,,,,,
1478384640.44,2.853736,1.280348,0.930458,0.400939,0.600712,0.389990,0.081303,-0.958116,0.274598,-0.217594,-0.035323,0.080871,-20.727905,-45.957993,2.775269,,,,,,
1478384640.46,2.901515,1.275254,0.896235,0.362832,0.854562,0.391691,0.069255,-0.956644,0.282905,-0.055034,0.006968,0.061944,-21.553009,-45.882706,3.066833,,,,,,
1478384640.48,2.945731,1.269388,0.870025,0.379330,0.967402,0.274503,0.057773,-0.954919,0.291190,0.112652,0.063959,-0.007407,-21.776535,-45.582779,2.988647,,,,,,
1478384640.50,2.985342,1.262326,0.845582,0.436757,0.701650,0.342251,0.047245,-0.952799,0.299903,0.158825,0.042643,-0.072394,-21.776535,-45.582779,2.988647,,,,,,
1478384640.52,3.027163,1.254081,0.812414,0.501897,0.407325,0.516776,0.035561,-0.950264,0.309410,0.156334,-0.022820,-0.087837,-22.300079,-45.358078,2.682739,,,,,,
1478384640.54,3.071541,1.244534,0.772164,0.551481,0.277504,0.621211,0.022433,-0.947247,0.319718,0.168805,-0.035633,-0.048127,-22.601074,-45.357407,3.354736,,,,,,
1478384640.56,3.116621,1.233662,0.730647,0.596168,0.315559,0.666267,0.008259,-0.943707,0.330681,0.170024,0.017712,-0.005684,-23.348373,-44.682190,3.570312,,,,,,
1478384640.58,-3.120293,1.220654,0.690642,0.682907,0.504768,0.666938,-0.007306,-0.939324,0.342954,0.133694,0.071419,-0.040555,-24.097672,-44.381760,4.011841,,,,,,
1478384640.60,-3.073956,1.205505,0.653920,0.759222,0.644307,0.711260,-0.024143,-0.934020,0.356405,0.014606,-0.011842,-0.091528,-24.097672,-44.381760,4.011841,,,,,,
1478384640.62,-3.019511,1.188006,0.611432,0.819675,0.837283,0.945881,-0.045486,-0.927626,0.370730,0.003982,-0.152010,-0.132892,-24.919952,-43.631317,4.451355,,,,,,
1478384640.64,-2.956496,1.167796,0.564800,0.881980,1.071784,1.080176,-0.072177,-0.919889,0.385481,0.117206,-0.250583,-0.167387,-26.717438,-43.031189,4.581604,,,,,,
1478384640.66,-2.890630,1.144937,0.516131,0.909225,0.991396,1.309713,-0.102589,-0.910684,0.400162,0.262531,-0.211066,-0.238510,-27.464951,-42.431046,4.722351,,,,,,
1478384640.68,-2.825421,1.117243,0.459276,1.065873,0.503640,1.699686,-0.136238,-0.898896,0.416444,0.437828,-0.152954,-0.179643,-28.887238,-41.680618,5.155823,,,,,,
1478384640.70,-2.763097,1.082801,0.397945,1.172173,0.381553,1.986941,-0.173253,-0.883275,0.435671,0.463704,-0.282177,-0.199984,-28.887238,-41.680618,5.155823,,,,,,
1478384640.72,-2.700979,1.043191,0.338786,1.302740,0.619229,2.189753,-0.214725,-0.864015,0.455379,0.401066,-0.333403,-0.168545,-30.158493,-40.629959,5.815002,,,,,,
1478384640.74,-2.636766,0.996851,0.284066,1.452920,1.061071,2.415599,-0.262601,-0.839765,0.475221,0.338941,-0.463946,-0.198579,-32.402817,-39.204453,6.313293,,,,,,
1478384640.76,-2.565002,0.945621,0.230898,1.447080,1.706413,2.752848,-0.319054,-0.810861,0.490621,0.516335,-0.966926,-0.144476,-33.445709,-37.479019,6.747681,,,,,,
1478384640.78,-2.476927,0.888023,0.182413,1.619838,3.020009,2.876426,-0.389166,-0.775826,0.496633,0.905248,-1.460594,-0.540533,-37.100723,-33.279739,6.023560,,,,,,
1478384640.80,-2.386930,0.826933,0.157513,1.826317,3.510290,2.405891,-0.463867,-0.735858,0.493295,1.337006,-0.866254,-0.613535,-37.100723,-33.279739,6.023560,,,,,,
1478384640.82,-2.331391,0.767744,0.150081,1.939667,1.672567,2.267480,-0.521210,-0.694514,0.495975,1.184525,-0.630987,-0.521304,-40.013870,-31.106125,4.637817,,,,,,
1478384640.84,-2.329313,0.708388,0.144118,1.826301,-1.096944,2.361165,-0.551224,-0.650611,0.522358,0.908936,-0.634530,-0.238651,-40.451157,-28.782639,3.126526,,,,,,
1478384640.86,-2.363579,0.648244,0.132705,1.743726,-2.486711,2.532419,-0.559489,-0.603788,0.567814,0.450709,-0.544467,0.185451,-41.791779,-26.532135,3.631409,,,,,,
1478384640.88,-2.400040,0.592269,0.114033,1.276502,-2.069625,2.308385,-0.560391,-0.558245,0.611821,-0.028110,-0.486524,0.124797,-43.355133,-22.252060,8.702881,,,,,,
1478384640.90,-2.416500,0.563542,0.097243,0.186825,-0.805943,0.882553,-0.560652,-0.534184,0.632706,0.045241,-0.341457,-0.310654,-43.355133,-22.252060,8.702881,,,,,,
1478384640.92,-2.417197,0.569766,0.094540,-0.580739,0.282620,-0.653247,-0.557997,-0.539435,0.630594,0.257399,0.056098,-0.249155,-44.175491,-20.675430,10.339966,,,,,,
1478384640.94,-2.404242,0.601553,0.100168,-1.284446,1.062824,-1.492105,-0.554307,-0.565924,0.610307,0.367829,0.325598,-0.104035,-43.574020,-20.375488,10.270081,,,,,,
1478384640.96,-2.383277,0.648079,0.102788,-1.826946,1.043218,-1.713198,-0.548265,-0.603656,0.578796,0.271043,0.379031,-0.185974,-43.426743,-21.276398,9.374268,,,,,,
1478384640.98,-2.367783,0.703237,0.099966,-2.187526,0.424126,-1.971950,-0.533061,-0.646690,0.545562,0.250331,0.361152,-0.273452,-43.133163,-23.227951,7.808044,,,,,,
1478384641.00,-2.369295,0.771266,0.102062,-2.504086,-0.226853,-2.769197,-0.500331,-0.697043,0.513615,0.404093,0.368781,-0.234226,-43.133163,-23.227951,7.808044,,,,,,
1478384641.02,-2.390388,0.857171,0.117398,-2.898211,-0.664981,-3.679247,-0.446763,-0.755994,0.478410,0.537538,0.414029,-0.183244,-40.899216,-27.655548,5.218689,,,,,,
1478384641.04,-2.438062,0.956939,0.150189,-3.103453,-1.378082,-4.262788,-0.372638,-0.817432,0.439255,0.406879,0.447529,-0.128906,-39.409607,-30.281494,4.266418,,,,,,
1478384641.06,-2.524118,1.061002,0.207023,-3.246032,-2.168224,-4.437225,-0.282540,-0.872845,0.397886,0.138207,0.353832,-0.088422,-36.872818,-33.582581,3.176697,,,,,,
1478384641.08,-2.651436,1.167301,0.298591,-3.593564,-2.161725,-4.588460,-0.184838,-0.919694,0.346406,-0.105796,0.148942,0.066955,-34.188507,-37.182922,2.839355,,,,,,
1478384641.10,-2.850677,1.273137,0.476603,-3.760472,-1.153625,-5.009072,-0.084122,-0.956026,0.280960,-0.268798,-0.016875,0.314118,-34.188507,-37.182922,2.839355,,,,,,
,,,,,,,,,,,,,,,,37.354435,-122.033427,46.167725,2.840000,282.304688,1478384641.00
1478384641.12,3.033686,1.359082,0.873642,-3.720447,-0.593896,-5.509621,0.022631,-0.977672,0.208914,-0.468157,-0.153950,0.410501,-26.783569,-42.660980,-0.220154,,,,,,
1478384641.14,2.377431,1.378951,1.524579,-3.438158,-1.105743,-5.210311,0.131931,-0.981654,0.137657,-0.613056,-0.485646,0.453881,-22.066116,-45.288864,-3.090088,,,,,,
1478384641.16,1.877947,1.334529,2.009245,-3.038657,-1.263265,-4.140559,0.223120,-0.972219,0.070771,-0.579611,-0.587962,0.583114,-17.346024,-47.241425,-5.662048,,,,,,
1478384641.18,1.614922,1.269421,2.258988,-2.426040,-1.034709,-3.601448,0.296545,-0.954929,0.013094,-0.544942,-0.367947,0.678496,-14.195877,-47.993790,-8.028320,,,,,,
1478384641.20,1.488512,1.204210,2.366702,-1.454396,-1.400618,-2.913769,0.357218,-0.933556,-0.029460,-0.739939,-0.413230,0.767085,-14.195877,-47.993790,-8.028320,,,,,,
1478384641.22,1.426105,1.161387,2.400310,-0.504585,-1.576187,-1.472366,0.393908,-0.917356,-0.057396,-1.063082,-0.262697,0.877663,-10.295044,-48.520935,-10.162659,,,,,,
1478384641.23,1.410495,1.155130,2.386537,0.681784,-1.272726,0.332961,0.398623,-0.914847,-0.064453,-1.224016,0.037940,0.887726,-6.317429,-48.447464,-11.698181,,,,,,
1478384641.25,1.443564,1.185686,2.328149,1.717508,-0.958046,1.874157,0.372625,-0.926757,-0.047667,-1.124334,0.104064,0.816771,-6.844086,-48.822464,-11.702271,,,,,,
1478384641.27,1.526253,1.238230,2.217843,2.353006,-1.070437,2.717938,0.326146,-0.945208,-0.014537,-0.968526,-0.070478,0.791683,-8.796738,-48.745468,-9.697021,,,,,,
1478384641.29,1.654417,1.294063,2.074897,1.528678,0.486007,2.668433,0.272260,-0.961953,0.022820,-0.493741,-0.345863,0.227104,-8.796738,-48.745468,-9.697021,,,,,,
1478384641.31,1.774026,1.302758,2.022867,0.881164,4.605785,-0.993528,0.259390,-0.964292,0.053454,1.121393,-1.172198,-0.634203,-10.523743,-48.443237,-7.465210,,,,,,
1478384641.33,1.868087,1.274061,1.972065,1.275947,0.301079,-0.670266,0.279573,-0.956296,0.085653,0.160963,-0.369235,-0.401968,-12.400970,-48.592194,-6.433533,,,,,,
1478384641.35,1.972575,1.289000,1.831018,1.874790,-1.740944,2.747315,0.255937,-0.960557,0.108746,-0.500444,-0.092726,0.410221,-12.103989,-48.966293,-5.529480,,,,,,
1478384641.37,2.180391,1.329432,1.582160,1.653168,-1.943843,2.982492,0.195974,-0.971013,0.136852,-0.627142,-0.111034,-0.052852,-13.905762,-48.664215,-3.448364,,,,,,
1478384641.39,2.304190,1.332037,1.412388,1.407786,-1.700432,0.480490,0.175695,-0.971632,0.158310,-0.538626,0.046843,0.097290,-13.905762,-48.664215,-3.448364,,,,,,
1478384641.41,2.387158,1.319155,1.328160,1.071847,1.359657,0.464818,0.170530,-0.968505,0.181431,-0.158048,0.039886,0.807369,-17.054672,-47.762222,-1.457581,,,,,,
1478384641.43,2.542721,1.314918,1.224032,0.920885,3.131976,0.945947,0.142673,-0.967441,0.209050,-0.287631,0.135227,0.391124,-17.205124,-47.235352,0.414368,,,,,,
1478384641.45,2.665556,1.307647,1.152369,0.758125,2.153917,0.411968,0.119204,-0.965576,0.231202,-0.188463,0.026184,-0.031983,-19.303635,-46.860229,0.542236,,,,,,
1478384641.47,2.741416,1.299472,1.095016,0.633190,0.411029,0.693293,0.104411,-0.963417,0.246833,0.398748,-0.116753,-0.138266,-19.527161,-46.560303,0.464111,,,,,,
1478384641.49,2.803917,1.294207,1.022953,0.570894,-0.716445,0.750983,0.090469,-0.961993,0.257655,0.448594,-0.012769,-0.109904,-19.527161,-46.560303,0.464111,,,,,,
1478384641.51,2.830866,1.287059,0.977112,0.519320,-0.760671,0.370414,0.085593,-0.960016,0.266539,-0.068794,-0.022406,-0.013258,-19.826126,-46.184860,0.909973,,,,,,
1478384641.53,2.861225,1.279570,0.940785,0.505970,0.100136,0.434727,0.079451,-0.957892,0.275916,-0.382994,-0.053903,0.144326,-20.651230,-45.959122,1.651062,,,,,,
1478384641.55,2.912353,1.272886,0.896774,0.464988,0.644716,0.566501,0.066699,-0.955952,0.285844,-0.387119,-0.038677,0.105574,-21.328018,-45.957932,2.844299,,,,,,
1478384641.57,2.968816,1.266805,0.857795,0.396093,1.134915,0.442724,0.051460,-0.954149,0.294874,-0.056084,0.036883,0.110216,-22.001968,-45.732941,2.836914,,,,,,
1478384641.59,3.017660,1.260122,0.832055,0.389298,1.185314,0.286861,0.037789,-0.952128,0.303356,0.156837,0.033167,0.007130,-22.001968,-45.732941,2.836914,,,,,,
1478384641.61,3.054598,1.253289,0.811933,0.364289,0.689102,0.294000,0.027125,-0.950016,0.311019,0.149297,-0.026882,-0.059951,-22.149414,-45.283310,2.459045,,,,,,
1478384641.63,3.088729,1.246510,0.785857,0.375009,0.412417,0.440691,0.016836,-0.947878,0.318187,0.082758,-0.042646,-0.020168,-23.124832,-45.358246,2.524536,,,,,,
1478384641.65,3.126345,1.238722,0.756245,0.424697,0.539849,0.462496,0.004971,-0.945368,0.325967,0.071888,-0.009863,-0.011483,-23.274155,-45.133011,2.747375,,,,,,
1478384641.67,-3.117141,1.229326,0.727988,0.501946,0.710095,0.486604,-0.008187,-0.942263,0.334773,0.143243,0.022326,-0.027339,-23.573380,-44.907867,2.893738,,,,,,
1478384641.69,-3.073392,1.217408,0.696965,0.610746,0.720407,0.601143,-0.023585,-0.938206,0.345274,0.199747,0.054371,-0.106352,-23.573380,-44.907867,2.893738,,,,,,
1478384641.71,-3.025189,1.202525,0.661688,0.742785,0.808063,0.751193,-0.041811,-0.932951,0.357567,0.192934,0.045698,-0.111656,-24.771652,-44.532883,2.880615,,,,,,
1478384641.73,-2.968271,1.183697,0.620266,0.866188,0.965931,0.975142,-0.065103,-0.926008,0.371848,0.136437,-0.164385,-0.177314,-25.446426,-44.307373,3.398132,,,,,,
1478384641.75,-2.904780,1.161377,0.573491,0.926922,1.070285,1.205246,-0.093391,-0.917352,0.386967,0.184089,-0.228583,-0.217319,-25.595184,-44.007294,3.470764,,,,,,
1478384641.77,-2.838298,1.135416,0.523257,1.006602,0.910972,1.421836,-0.125964,-0.906710,0.402506,0.300250,-0.168120,-0.197305,-27.913925,-42.506943,3.818115,,,,,,
1478384641.79,-2.777545,1.104428,0.470020,1.113816,0.518115,1.731853,-0.160100,-0.893207,0.420177,0.332693,-0.272748,-0.208752,-27.913925,-42.506943,3.818115,,,,,,
1478384641.81,-2.717979,1.068804,0.412957,1.143268,0.433966,2.003051,-0.197789,-0.876626,0.438642,0.290609,-0.322807,-0.188871,-29.710754,-41.681595,4.172607,,,,,,
1478384641.83,-2.659319,1.028359,0.357361,1.260065,0.650311,2.211124,-0.239422,-0.856453,0.457346,0.332730,-0.302574,-0.108637,-31.056351,-40.556152,4.605774,,,,,,
1478384641.85,-2.597361,0.982855,0.307277,1.308656,1.157634,2.322651,-0.287176,-0.832084,0.474516,0.380529,-0.489983,-0.073942,-32.100464,-38.980347,5.415649,,,,,,
1478384641.87,-2.526755,0.933619,0.258210,1.306776,1.906785,2.683699,-0.343170,-0.803778,0.485978,0.647903,-1.198114,-0.234299,-35.685455,-35.680481,5.294861,,,,,,
1478384641.89,-2.437211,0.880195,0.215186,1.439122,3.448739,2.641160,-0.412498,-0.770863,0.485402,0.890098,-1.203090,-0.376912,-35.685455,-35.680481,5.294861,,,,,,
1478384641.91,-2.338458,0.821682,0.194150,1.766175,3.990330,2.408166,-0.489997,-0.732292,0.472917,1.437675,-0.835945,-0.615923,-38.149826,-33.656479,4.289124,,,,,,
1478384641.93,-2.289727,0.759529,0.188220,2.011535,0.990965,2.532826,-0.545691,-0.688580,0.477576,1.319250,-0.752033,-0.594123,-39.186981,-31.483521,2.247253,,,,,,
1478384641.95,-2.303357,0.693380,0.180427,1.933888,-1.895421,2.746983,-0.571791,-0.639140,0.514349,0.961836,-0.873983,-0.219259,-40.451614,-29.534592,1.178772,,,,,,
1478384641.97,-2.344056,0.627921,0.166722,1.754017,-2.598185,2.752216,-0.579131,-0.587463,0.565238,0.508757,-0.658157,0.097024,-41.867905,-27.133179,2.582458,,,,,,
1478384641.99,-2.382676,0.570273,0.148003,1.343285,-2.250692,2.402015,-0.579240,-0.539862,0.610761,-0.190718,-0.415460,0.087054,-41.867905,-27.133179,2.582458,,,,,,
1478384642.01,-2.404914,0.534826,0.130713,0.451238,-1.022329,1.262767,-0.578015,-0.509691,0.637270,-0.123248,-0.312849,-0.224642,-44.029312,-22.177368,8.395935,,,,,,
1478384642.03,-2.403133,0.530977,0.123734,-0.326913,0.410733,-0.195178,-0.580465,-0.506376,0.637686,0.316488,-0.039385,-0.299170,-43.947891,-20.301025,9.741150,,,,,,
1478384642.05,-2.387155,0.555343,0.129508,-0.966263,1.190567,-1.442062,-0.581955,-0.527235,0.619154,0.581849,0.313566,-0.145414,-43.571884,-20.000793,9.968994,,,,,,
1478384642.07,-2.366479,0.600725,0.141016,-1.473936,1.373460,-2.141191,-0.577281,-0.565241,0.589279,0.610484,0.420816,-0.160430,-43.797806,-20.601990,8.768494,,,,,,
1478384642.09,-2.352762,0.658796,0.152917,-1.881414,0.693761,-2.545496,-0.561046,-0.612165,0.557208,0.515285,0.383634,-0.299060,-43.797806,-20.601990,8.768494,,,,,,
,,,,,,,,,,,,,,,,37.354439,-122.033420,48.614563,0.860000,303.046875,1478384642.00
1478384642.11,-2.357678,0.729981,0.165720,-2.325258,-0.012433,-3.101653,-0.526144,-0.666856,0.527708,0.485709,0.298402,-0.278913,-42.688599,-25.180206,5.568359,,,,,,
1478384642.13,-2.373100,0.817670,0.185595,-2.842705,-0.145533,-3.897826,-0.475362,-0.729555,0.491713,0.624929,0.197831,-0.328260,-41.274765,-28.031296,4.466003,,,,,,
1478384642.15,-2.410451,0.923365,0.218772,-3.268320,-0.980987,-4.649828,-0.402728,-0.797636,0.448984,0.479877,0.235105,-0.262232,-39.110733,-30.882538,3.221252,,,,,,
1478384642.17,-2.490078,1.036730,0.273803,-3.439708,-2.077315,-4.809132,-0.308676,-0.860744,0.404770,0.156485,0.256862,-0.124832,-36.876312,-34.633408,2.354858,,,,,,
1478384642.19,-2.615012,1.148984,0.357986,-3.710396,-2.663232,-4.731083,-0.205763,-0.912348,0.353951,-0.005067,0.175715,-0.066354,-36.876312,-34.633408,2.354858,,,,,,
1478384642.21,-2.820209,1.261740,0.521088,-4.054537,-2.530106,-5.181121,-0.096078,-0.952621,0.288587,-0.008994,-0.045350,0.167926,-33.665787,-38.234573,1.197754,,,,,,
1478384642.23,3.028291,1.358799,0.924083,-4.262656,-2.085759,-5.883283,0.023789,-0.977612,0.209064,-0.208863,-0.371142,0.484082,-25.959946,-43.487549,-1.784485,,,,,,
1478384642.25,2.265039,1.378578,1.662452,-4.249723,-1.764584,-5.800108,0.146819,-0.981583,0.122226,-0.604446,-0.915130,0.663067,-20.791794,-45.814972,-4.200745,,,,,,
1478384642.27,1.716633,1.316751,2.196925,-4.012718,-1.084907,-4.719788,0.248653,-0.967904,0.036522,-0.784557,-0.901191,0.714210,-16.369476,-47.392914,-7.151794,,,,,,
1478384642.29,1.467562,1.227779,2.443252,-3.155955,-0.383675,-4.439648,0.334539,-0.941744,-0.034659,-0.663488,-0.268217,0.938330,-16.369476,-47.392914,-7.151794,,,,,,
1478384642.31,1.381005,1.139554,2.531836,-1.767198,-0.290625,-3.784170,0.410494,-0.908447,-0.078857,-0.715090,-0.364975,0.944336,-11.341553,-47.921463,-10.699951,,,,,,
1478384642.33,1.346618,1.081898,2.551788,-0.594219,-1.111943,-1.978755,0.457902,-0.882851,-0.104406,-1.135407,-0.363411,0.945486,-3.834122,-47.775970,-15.200378,,,,,,
1478384642.35,1.338867,1.074214,2.537436,0.789284,-0.846916,0.477479,0.463667,-0.879216,-0.109509,-1.349944,0.048085,0.898983,-3.085159,-48.151413,-15.641724,,,,,,
1478384642.37,1.366022,1.115614,2.484813,2.092133,-1.258783,2.394294,0.430441,-0.898181,-0.089396,-1.250937,0.183703,0.792536,-3.311279,-48.225891,-15.118774,,,,,,
1478384642.39,1.423764,1.183981,2.384113,2.828234,-1.829310,3.266906,0.373171,-0.926115,-0.055267,-1.073686,-0.007631,0.781677,-3.311279,-48.225891,-15.118774,,,,,,
1478384642.41,1.487697,1.254272,2.303064,0.383154,1.095433,3.031371,0.310191,-0.950323,-0.025836,-0.192897,-0.783365,-0.637784,-5.340515,-48.599182,-13.412903,,,,,,
1478384642.43,1.639314,1.257644,2.209578,1.775231,2.195858,-1.041348,0.307336,-0.951367,0.021091,1.323920,-1.902530,-0.578113,-10.972275,-48.895554,-9.793335,,,,,,
1478384642.45,1.719907,1.259603,2.093808,2.061403,-3.120853,1.335654,0.302797,-0.951969,0.045488,-0.328340,-0.087124,0.045882,-10.374405,-48.894135,-8.362366,,,,,,
1478384642.47,1.859925,1.313008,1.893384,2.330654,-1.794997,3.971293,0.244361,-0.966956,0.072688,-0.731314,0.461005,0.670903,-11.726974,-48.741974,-6.201355,,,,,,
1478384642.49,2.103438,1.351232,1.604907,2.244814,-2.141617,2.139983,0.187631,-0.975993,0.110603,-0.957758,0.559580,0.441292,-11.726974,-48.741974,-6.201355,,,,,,
1478384642.51,2.238037,1.344811,1.434232,1.477086,-0.824213,0.287490,0.176011,-0.974574,0.138657,-0.447129,-0.210088,0.798630,-15.327377,-47.989456,-3.689636,,,,,,
1478384642.53,2.371030,1.337174,1.322818,1.029059,2.270560,0.887130,0.161251,-0.972834,0.166108,-0.308971,-0.319692,0.625869,-17.128998,-47.461777,-1.009216,,,,,,
1478384642.55,2.533493,1.337247,1.212826,0.701130,2.847070,0.833656,0.132219,-0.972851,0.189944,-0.426698,-0.010486,0.292203,-18.854858,-47.085068,0.697388,,,,,,
1478384642.57,2.637725,1.330510,1.151239,0.692788,1.562431,0.314060,0.114901,-0.971270,0.208405,-0.172259,0.052462,-0.208710,-19.077850,-46.860748,0.019470,,,,,,
1478384642.59,2.705513,1.323037,1.084045,0.708042,-0.626124,0.762145,0.103584,-0.969464,0.222282,0.317589,-0.054492,-0.269752,-19.077850,-46.860748,0.019470,,,,,,
1478384642.61,2.756315,1.317850,1.005312,0.547647,-1.470917,0.663384,0.094051,-0.968179,0.231913,0.257649,-0.067465,-0.001032,-19.753265,-46.785233,0.537537,,,,,,
1478384642.63,2.767130,1.311953,0.970917,0.370830,-0.751424,0.115887,0.093624,-0.966687,0.238225,-0.164272,-0.025409,0.250331,-19.977371,-46.334488,1.283875,,,,,,
1478384642.65,2.779248,1.306711,0.958090,0.291566,0.351253,0.078174,0.092525,-0.965332,0.244078,-0.430416,0.051849,0.227205,-21.029022,-46.182922,2.847961,,,,,,
1478384642.67,2.809538,1.301912,0.939260,0.309756,0.708021,0.191371,0.086600,-0.964068,0.251144,-0.292289,0.070727,0.077088,-20.954254,-46.257996,2.773926,,,,,,
1478384642.69,2.847750,1.297525,0.917839,0.294003,0.964012,0.186706,0.078167,-0.962893,0.258315,0.073948,0.005419,-0.035278,-20.954254,-46.257996,2.773926,,,,,,
1478384642.71,2.879930,1.292230,0.902937,0.331780,0.773219,0.103978,0.071133,-0.961451,0.265617,0.310947,-0.007070,-0.120338,-21.253128,-46.033081,2.695251,,,,,,
1478384642.73,2.908425,1.285842,0.882023,0.413837,0.199608,0.298064,0.064954,-0.959674,0.273507,0.312517,-0.006665,-0.151940,-21.778900,-46.182999,2.765442,,,,,,
1478384642.75,2.944949,1.278495,0.844005,0.519400,-0.054520,0.519781,0.056300,-0.957583,0.282603,0.230779,0.048571,-0.085475,-21.927780,-45.958084,2.688293,,,,,,
1478384642.77,2.986253,1.268490,0.798891,0.665558,-0.090555,0.584041,0.046062,-0.954652,0.294137,0.177113,0.105653,-0.066003,-22.452209,-45.582336,3.431946,,,,,,
1478384642.79,3.032702,1.255104,0.749056,0.820047,-0.030650,0.726575,0.033741,-0.950582,0.308636,0.174862,0.072408,-0.096966,-22.452209,-45.582336,3.431946,,,,,,
1478384642.81,3.084441,1.238722,0.693800,0.908641,-0.027807,0.847469,0.018621,-0.945368,0.325473,0.075892,-0.057150,-0.124194,-23.201508,-45.206665,4.098267,,,,,,
1478384642.83,-3.141036,1.220296,0.636493,0.973764,0.325252,0.992790,-0.000191,-0.939201,0.343368,-0.066932,-0.169411,-0.147201,-24.102280,-45.055695,5.063843,,,,,,
1478384642.85,-3.076314,1.199406,0.578634,1.031459,0.644575,1.085653,-0.023674,-0.931824,0.362138,-0.008522,-0.100998,-0.102861,-24.550476,-44.455109,5.657532,,,,,,
1478384642.87,-3.008642,1.175680,0.522065,1.105698,0.818491,1.239045,-0.051024,-0.922952,0.381519,0.135665,-0.088019,-0.041156,-26.045471,-43.029160,6.613342,,,,,,
1478384642.89,-2.937507,1.148432,0.463926,1.178079,0.933265,1.444624,-0.083079,-0.912122,0.401411,0.250895,-0.188448,-0.067594,-26.045471,-43.029160,6.613342,,,,,,
1478384642.91,-2.867248,1.117899,0.406871,1.199794,0.880788,1.600507,-0.118546,-0.899183,0.421208,0.294830,-0.249666,-0.055089,-28.219208,-42.503433,7.340027,,,,,,
1478384642.93,-2.796239,1.083550,0.348604,1.245453,1.065900,1.895980,-0.158498,-0.883626,0.440550,0.323796,-0.419033,-0.069578,-29.412888,-41.003143,7.623535,,,,,,
1478384642.95,-2.720944,1.044913,0.291493,1.300147,1.361588,2.065699,-0.204984,-0.864881,0.458217,0.377271,-0.477023,-0.141628,-30.156784,-39.577927,7.836792,,,,,,
1478384642.97,-2.645804,1.001319,0.238101,1.361705,1.552689,2.321685,-0.256507,-0.842183,0.474270,0.419990,-0.524074,-0.204388,-32.101807,-38.452881,7.888977,,,,,,
1478384642.99,-2.571667,0.952143,0.183999,1.397803,1.455273,2.730685,-0.312917,-0.814660,0.488274,0.613973,-1.014976,-0.228951,-32.101807,-38.452881,7.888977,,,,,,
1478384643.01,-2.490070,0.895982,0.132431,1.420158,2.503705,2.857545,-0.378849,-0.780823,0.496779,0.762348,-1.364181,-0.321883,-36.437103,-35.152786,7.985779,,,,,,
1478384643.03,-2.388818,0.837476,0.100431,1.633363,4.605087,2.544239,-0.457606,-0.742956,0.488481,1.250346,-1.201899,-0.556337,-37.775040,-32.753616,7.140198,,,,,,
1478384643.05,-2.288064,0.781756,0.089675,1.689175,4.307565,2.186664,-0.534816,-0.704527,0.466491,1.422786,-0.894274,-0.452865,-39.486511,-30.355438,5.315918,,,,,,
1478384643.07,-2.234242,0.723245,0.086978,1.858073,1.302143,2.453275,-0.590640,-0.661820,0.461668,1.169742,-0.728774,-0.346068,-41.197205,-28.258698,2.067505,,,,,,
,,,,,,,,,,,,,,,,37.354447,-122.033424,49.855164,0.860000,331.171875,1478384643.00
1478384643.09,-2.246875,0.655512,0.087659,2.231876,-1.480315,2.740088,-0.618360,-0.609565,0.496046,0.817853,-0.608101,0.002322,-41.197205,-28.258698,2.067505,,,,,,
1478384643.11,-2.288979,0.585698,0.084213,2.019677,-2.402080,2.735046,-0.627497,-0.552781,0.548343,0.159251,-0.509993,0.133999,-44.103241,-23.908295,2.475403,,,,,,
1478384643.13,-2.323586,0.531097,0.077413,1.273003,-1.593134,1.725245,-0.629258,-0.506479,0.589503,0.066483,-0.391714,-0.250483,-44.169449,-21.130829,4.941345,,,,,,
1478384643.15,-2.344049,0.513254,0.080265,0.418811,-0.555798,-0.140990,-0.623433,-0.491015,0.608470,0.234364,-0.107679,-0.305263,-44.687881,-18.953659,7.104675,,,,,,
1478384643.17,-2.350371,0.528020,0.097231,-0.243895,0.484298,-1.479083,-0.614350,-0.503824,0.607235,0.399491,0.167612,-0.222241,-44.537216,-18.502762,8.004822,,,,,,
1478384643.19,-2.342212,0.563823,0.117446,-0.852974,1.116467,-2.055352,-0.605958,-0.534421,0.589245,0.421769,0.279035,-0.256450,-44.537216,-18.502762,8.004822,,,,,,
1478384643.21,-2.332136,0.612405,0.134466,-1.354061,0.768368,-2.363818,-0.592354,-0.574837,0.564517,0.374230,0.350991,-0.369586,-45.142593,-19.702759,8.002319,,,,,,
1478384643.23,-2.336582,0.672712,0.151921,-1.692297,0.028716,-2.895310,-0.563792,-0.623109,0.542101,0.460170,0.382097,-0.380327,-43.281143,-23.454971,5.782227,,,,,,
1478384643.25,-2.362123,0.747646,0.178730,-2.061982,-0.665147,-3.692768,-0.515432,-0.679914,0.521580,0.581320,0.410170,-0.389149,-42.016983,-26.306320,4.453430,,,,,,
1478384643.27,-2.413260,0.838524,0.218422,-2.527062,-1.446407,-4.362422,-0.445012,-0.743657,0.498937,0.551549,0.468038,-0.341070,-40.904953,-29.156219,4.548096,,,,,,
1478384643.29,-2.497640,0.939746,0.276081,-2.901970,-2.301743,-4.740443,-0.354209,-0.807408,0.471835,0.388694,0.405095,-0.327166,-40.904953,-29.156219,4.548096,,,,,,
1478384643.31,-2.624709,1.047014,0.361394,-3.411339,-3.022618,-4.986912,-0.247165,-0.865934,0.434820,0.180072,0.258786,-0.279730,-38.220200,-32.681625,4.135498,,,,,,
1478384643.33,-2.812938,1.158860,0.499772,-4.058554,-3.274225,-5.212031,-0.129232,-0.916347,0.378955,-0.092936,0.049144,0.010159,-30.675293,-39.582291,3.481689,,,,,,
1478384643.35,-3.104993,1.265358,0.751900,-4.601149,-2.260353,-5.389681,-0.011003,-0.953715,0.300510,-0.373686,-0.209203,0.335705,-26.337189,-42.583359,2.409058,,,,,,
1478384643.37,2.662332,1.335530,1.256625,-4.826541,-1.056515,-6.021405,0.107489,-0.972452,0.206839,-0.675588,-0.529958,0.602975,-22.522827,-45.660492,0.281494,,,,,,
1478384643.39,2.027923,1.314686,1.889426,-4.636791,-0.972625,-5.758011,0.227310,-0.967383,0.111808,-0.927459,-0.982340,0.642770,-22.522827,-45.660492,0.281494,,,,,,
1478384643.41,1.649874,1.242332,2.261448,-3.842465,-1.165953,-4.325476,0.321582,-0.946539,0.025483,-0.743655,-0.937769,0.691222,-16.674850,-47.539780,-4.004456,,,,,,
1478384643.43,1.468722,1.166668,2.422279,-2.315316,-1.926704,-3.455216,0.391171,-0.919446,-0.040068,-0.534680,-0.636096,0.846449,-7.742249,-48.372330,-11.562622,,,,,,
1478384643.45,1.366921,1.108053,2.468411,-0.820031,-3.529462,-2.222996,0.437159,-0.894831,-0.090382,-0.856577,-0.232061,1.212589,-5.415390,-48.448807,-13.039062,,,,,,
1478384643.47,1.317123,1.094613,2.448418,0.995040,-2.960419,0.267946,0.443721,-0.888751,-0.115038,-1.436046,0.146258,1.447451,-4.363373,-48.149246,-13.479492,,,,,,
1478384643.49,1.336445,1.140590,2.384016,2.409371,-1.413888,2.617711,0.405658,-0.908880,-0.096846,-1.676304,0.294591,1.178679,-4.363373,-48.149246,-13.479492,,,,,,
1478384643.51,1.428832,1.212321,2.267402,2.983962,-0.234058,3.298267,0.347318,-0.936433,-0.049641,-1.212110,-0.010390,0.900928,-4.890976,-48.448425,-12.658875,,,,,,
1478384643.53,1.560587,1.262312,2.198860,1.677750,5.798344,0.675723,0.303599,-0.952795,-0.003100,1.474142,-2.735178,-1.057722,-7.370743,-48.746124,-10.357788,,,,,,
1478384643.55,1.736850,1.249435,2.086136,1.653539,0.858443,0.125744,0.311513,-0.948806,0.052209,0.341746,-1.018753,-0.854043,-10.751648,-49.043076,-7.315735,,,,,,
1478384643.57,1.840616,1.279231,1.935779,1.916320,-2.541943,3.118045,0.277052,-0.957795,0.076623,-0.492399,0.526917,0.528617,-10.377335,-48.741730,-5.962891,,,,,,
1478384643.59,2.065433,1.331741,1.659875,2.614661,-2.217937,3.491962,0.208404,-0.971562,0.112405,-0.759582,0.951054,0.678428,-10.377335,-48.741730,-5.962891,,,,,,
1478384643.61,2.266973,1.338945,1.398941,1.843024,-2.546404,1.161624,0.176310,-0.973243,0.147355,-0.702539,0.126685,0.408782,-13.979630,-48.439301,-3.524780,,,,,,
1478384643.63,2.358915,1.325020,1.284498,1.375552,0.555368,0.210969,0.171577,-0.969949,0.172513,-0.454597,-0.487296,0.984195,-16.605576,-47.686386,-0.628296,,,,,,
1478384643.65,2.503951,1.318860,1.190914,0.847543,3.414557,0.942298,0.148397,-0.968431,0.200297,-0.507390,-0.339079,0.468023,-18.482117,-47.083572,2.201111,,,,,,
1478384643.67,2.643613,1.314076,1.102838,0.786500,2.054298,0.629676,0.121280,-0.967228,0.223072,-0.355716,0.111210,-0.094639,-18.779404,-46.634018,1.746765,,,,,,
1478384643.69,2.729123,1.304586,1.038190,0.777165,0.646282,0.590529,0.105461,-0.964775,0.241014,0.319939,0.112053,-0.205293,-18.779404,-46.634018,1.746765,,,,,,
1478384643.71,2.794135,1.297174,0.966760,0.660125,-0.629481,0.757763,0.092013,-0.962798,0.254073,0.498075,-0.026231,-0.062483,-19.528839,-46.483948,1.813843,,,,,,
1478384643.73,2.823580,1.289375,0.919622,0.519158,-0.729170,0.318122,0.086838,-0.960662,0.263796,0.078308,-0.155076,0.065229,-19.753586,-46.183197,2.560730,,,,,,
1478384643.75,2.844163,1.282095,0.893339,0.434375,0.086007,0.247564,0.083437,-0.958615,0.272206,-0.330691,-0.127323,0.113124,-21.328583,-45.882324,3.444031,,,,,,
1478384643.77,2.882858,1.275624,0.860648,0.464211,0.507933,0.451777,0.074430,-0.956752,0.281221,-0.350614,0.055782,0.059202,-21.178345,-45.506348,4.419434,,,,,,
1478384643.79,2.938552,1.268192,0.818813,0.516113,0.949407,0.499024,0.060093,-0.954563,0.291886,-0.054294,0.085484,0.044799,-21.178345,-45.506348,4.419434,,,,,,
1478384643.81,2.988651,1.259219,0.788639,0.526045,1.078351,0.302806,0.046703,-0.951851,0.302982,0.172276,0.023751,-0.033176,-21.477112,-45.281494,4.265747,,,,,,
1478384643.83,3.029713,1.249429,0.763729,0.551903,0.694066,0.373378,0.035265,-0.948805,0.313889,0.220274,-0.050112,-0.099198,-22.752747,-45.356293,4.478210,,,,,,
1478384643.85,3.070724,1.238826,0.728850,0.595217,0.248547,0.582707,0.023077,-0.945402,0.325088,0.166101,-0.016161,-0.096908,-23.125381,-44.906525,4.248108,,,,,,
1478384643.87,3.111940,1.226837,0.687477,0.662053,0.056948,0.691276,0.009998,-0.941427,0.337069,0.084011,0.053793,-0.071108,-23.423813,-44.230545,5.218079,,,,,,
1478384643.89,-3.129268,1.212487,0.644117,0.761166,0.078464,0.764160,-0.004322,-0.936491,0.350665,0.064960,0.074675,-0.060656,-23.423813,-44.230545,5.218079,,,,,,
1478384643.91,-3.089225,1.195723,0.602996,0.838945,0.069024,0.753585,-0.019176,-0.930481,0.365838,0.088100,0.025040,-0.029702,-23.947449,-43.855331,5.436768,,,,,,
1478384643.93,-3.054721,1.177573,0.567764,0.868496,0.133707,0.710009,-0.033245,-0.923679,0.381723,0.041622,-0.014645,-0.032281,-25.222305,-43.554520,6.248169,,,,,,
1478384643.95,-3.016405,1.158611,0.534569,0.897961,0.608510,0.785088,-0.050021,-0.916248,0.397477,-0.018979,-0.048093,-0.008195,-25.221298,-43.103851,6.921814,,,,,,
1478384643.97,-2.964898,1.136697,0.499602,1.009324,1.158134,0.934236,-0.073931,-0.907249,0.414045,-0.037031,-0.178139,-0.139463,-26.193787,-42.428482,7.285034,,,,,,
1478384643.99,-2.904809,1.111927,0.462176,1.085555,1.387881,1.115564,-0.103902,-0.896554,0.430576,0.193090,-0.223808,-0.110660,-26.193787,-42.428482,7.285034,,,,,,
1478384644.01,-2.842210,1.083947,0.422251,1.122472,1.277547,1.336488,-0.137981,-0.883811,0.447033,0.347179,-0.319360,-0.172925,-28.590042,-41.453064,7.708130,,,,,,
1478384644.03,-2.781236,1.052114,0.377299,1.175050,0.995890,1.681973,-0.174800,-0.868473,0.463896,0.414073,-0.385601,-0.246168,-29.486526,-40.627914,7.846680,,,,,,
1478384644.05,-2.717554,1.014909,0.326886,1.260573,1.064315,2.023137,-0.217118,-0.849433,0.480962,0.483430,-0.376123,-0.220128,-30.456451,-39.502930,7.833618,,,,,,
1478384644.07,-2.652221,0.971695,0.277344,1.400738,1.309765,2.248425,-0.265074,-0.825842,0.497715,0.488661,-0.454019,-0.227253,-31.951813,-38.302429,8.340088,,,,,,
1478384644.09,-2.581639,0.921882,0.233021,1.585052,2.045755,2.432402,-0.320984,-0.796740,0.512030,0.509857,-0.586042,-0.320547,-31.951813,-38.302429,8.340088,,,,,,
1478384644.11,-2.501778,0.867886,0.194690,1.515777,2.781439,2.580679,-0.385956,-0.762964,0.518579,0.792175,-1.113760,-0.240594,-36.359741,-34.627777,7.984985,,,,,,
,,,,,,,,,,,,,,,,37.354455,-122.033428,50.280945,0.690000,326.250000,1478384644.00
1478384644.13,-2.403688,0.812445,0.161330,1.446826,4.336082,2.591246,-0.462659,-0.725971,0.508834,1.096769,-1.604824,-0.511642,-37.549149,-32.528549,7.216797,,,,,,
1478384644.15,-2.295378,0.758540,0.148154,1.585255,4.748290,2.038110,-0.543493,-0.687863,0.481104,1.160039,-0.685032,-0.265406,-39.410736,-30.280746,5.016418,,,,,,
1478384644.17,-2.230471,0.702965,0.147481,1.826961,1.979541,2.352509,-0.602860,-0.646483,0.467568,1.140717,-0.790941,-0.287896,-41.122101,-28.333984,1.768433,,,,,,
1478384644.19,-2.238125,0.637970,0.143593,1.866417,-1.757320,2.798514,-0.630980,-0.595566,0.497158,1.115675,-1.158600,-0.195873,-41.122101,-28.333984,1.768433,,,,,,
1478384644.21,-2.280609,0.575075,0.132921,1.482849,-2.496639,2.576787,-0.636483,-0.543898,0.546868,0.636926,-0.700029,0.073738,-43.728821,-24.133591,2.179810,,,,,,
1478384644.23,-2.323328,0.527537,0.120181,1.003514,-2.530768,1.835442,-0.630723,-0.503407,0.590568,-0.042877,-0.339397,0.072960,-44.320328,-21.506348,4.416016,,,,,,
1478384644.25,-2.371646,0.501181,0.109517,0.382344,-2.602791,0.914252,-0.610488,-0.480462,0.629652,-0.232759,-0.015830,0.108019,-44.391144,-19.703735,7.034851,,,,,,
1478384644.27,-2.408984,0.494947,0.106652,-0.030947,-1.425952,-0.042673,-0.588550,-0.474985,0.654216,-0.026974,0.146540,0.001119,-44.315689,-18.726105,9.657715,,,,,,
1478384644.29,-2.419046,0.509825,0.108893,-0.821281,0.116972,-0.876378,-0.577200,-0.488024,0.654731,0.109534,0.253359,-0.162955,-44.315689,-18.726105,9.657715,,,,,,
1478384644.31,-2.404275,0.551106,0.110883,-1.849749,1.140405,-1.798469,-0.572767,-0.523630,0.630674,0.207960,0.391550,-0.328077,-44.691681,-18.424545,11.228027,,,,,,
1478384644.33,-2.374661,0.616178,0.117186,-2.360831,1.911070,-2.781255,-0.566311,-0.577920,0.587622,0.387738,0.537881,-0.375159,-43.125046,-20.826157,9.600952,,,,,,
1478384644.35,-2.346590,0.698448,0.131300,-2.599647,1.597677,-3.571028,-0.546707,-0.643030,0.536305,0.450989,0.637644,-0.393788,-42.758636,-23.528549,7.212646,,,,,,
1478384644.37,-2.342751,0.791074,0.152803,-2.687413,0.533517,-4.011093,-0.503793,-0.711109,0.490426,0.515542,0.692554,-0.336846,-42.020142,-26.906021,4.755188,,,,,,
1478384644.39,-2.368979,0.887830,0.184409,-2.669372,-0.566886,-4.302563,-0.440511,-0.775704,0.451921,0.582632,0.563912,-0.417940,-42.020142,-26.906021,4.755188,,,,,,
1478384644.41,-2.437510,0.992917,0.234862,-3.051699,-1.860109,-4.888007,-0.353606,-0.837623,0.416354,0.534850,0.377967,-0.458484,-39.782928,-30.357849,2.912964,,,,,,
1478384644.43,-2.566896,1.110041,0.325405,-3.536137,-2.894962,-5.519929,-0.241689,-0.895717,0.373199,0.350271,0.169628,-0.218276,-33.436188,-37.184494,1.271912,,,,,,
1478384644.45,-2.787778,1.228458,0.492988,-3.949866,-3.434519,-5.536022,-0.116310,-0.941972,0.314898,0.035560,-0.243712,0.020384,-29.475433,-40.635345,0.421875,,,,,,
1478384644.47,3.115757,1.330982,0.824974,-4.350571,-2.735076,-5.548685,0.006136,-0.971382,0.237443,-0.407854,-0.652519,0.433929,-25.737198,-43.636490,-0.731812,,,,,,
1478384644.49,2.441260,1.372870,1.466920,-4.291037,-2.122236,-5.718911,0.126727,-0.980476,0.150354,-0.806567,-1.249779,0.653754,-25.737198,-43.636490,-0.731812,,,,,,
1478384644.51,1.829739,1.327874,2.057405,-4.151988,-1.544368,-4.822810,0.232521,-0.970639,0.061592,-0.847084,-1.147128,0.639381,-20.267944,-45.814209,-3.445496,,,,,,
1478384644.53,1.505118,1.250446,2.365173,-3.650413,-1.412656,-3.959359,0.314220,-0.949125,-0.020667,-0.597469,-0.346224,0.737281,-15.545029,-47.242096,-6.319031,,,,,,
1478384644.55,1.348254,1.168575,2.500850,-2.485088,-1.525174,-3.559119,0.381810,-0.920194,-0.086400,-0.433491,-0.108462,0.888188,-8.563995,-47.998383,-12.622009,,,,,,
1478384644.57,1.283461,1.101655,2.540958,-1.178345,-1.276872,-2.566804,0.433585,-0.891957,-0.128130,-0.811560,-0.380214,0.975542,-4.959106,-47.550308,-14.537231,,,,,,
1478384644.59,1.266867,1.074160,2.540140,0.105328,-0.628303,-0.487911,0.454633,-0.879190,-0.142594,-1.281690,-0.071982,0.894257,-4.959106,-47.550308,-14.537231,,,,,,
1478384644.61,1.283902,1.097566,2.511445,1.494933,-0.392947,1.716104,0.437136,-0.890100,-0.128970,-1.274416,0.268839,0.877383,-3.083801,-47.776184,-15.417847,,,,,,
1478384644.63,1.327967,1.159139,2.447871,2.419909,-0.866021,3.004929,0.388389,-0.916459,-0.096211,-1.076500,0.086595,0.828785,-3.458908,-47.700882,-15.121826,,,,,,
1478384644.65,1.405091,1.232209,2.347449,2.398630,-0.449622,3.209038,0.327605,-0.943225,-0.054788,-0.538024,-0.268277,0.382837,-8.868607,-48.446671,-10.898621,,,,,,
1478384644.67,1.529635,1.264966,2.285822,1.682355,5.586699,-0.254393,0.300830,-0.953597,-0.012390,1.353177,-2.076203,-0.300858,-10.968781,-48.220871,-10.095276,,,,,,
1478384644.69,1.707010,1.248157,2.173287,1.662074,1.419549,-0.077849,0.314134,-0.948402,0.043056,-0.083131,-0.759194,-0.333217,-10.968781,-48.220871,-10.095276,,,,,,
1478384644.71,1.823005,1.275797,2.033073,1.809614,-1.265218,2.916221,0.281541,-0.956802,0.072552,-0.625551,0.126358,0.560093,-9.171188,-48.444946,-9.176758,,,,,,
1478384644.73,2.038934,1.328634,1.790994,2.192432,-1.174188,3.359464,0.214002,-0.970822,0.108205,-0.823285,0.489270,0.292125,-9.399872,-48.743378,-7.603088,,,,,,
1478384644.75,2.219433,1.340260,1.564904,1.643464,-2.152394,1.059778,0.182093,-0.973544,0.138037,-0.523646,0.122180,0.313578,-13.526596,-48.366089,-5.320496,,,,,,
1478384644.77,2.316872,1.330243,1.444251,1.273396,0.021042,0.528765,0.174954,-0.971206,0.161708,-0.152126,-0.198517,0.713673,-16.453796,-47.537140,-1.377258,,,,,,
1478384644.79,2.464188,1.328765,1.322995,0.904582,2.035673,1.173651,0.150222,-0.970853,0.186755,-0.293944,-0.085162,0.370465,-16.453796,-47.537140,-1.377258,,,,,,
1478384644.81,2.592559,1.325919,1.237428,0.671801,2.164188,0.392583,0.126519,-0.970167,0.206806,-0.275185,0.122404,0.082073,-16.829468,-47.386246,-0.481445,,,,,,
1478384644.83,2.654803,1.315909,1.200345,0.645199,0.760887,0.217728,0.117947,-0.967692,0.222848,0.054035,-0.034795,-0.208550,-18.026733,-46.936707,-0.944763,,,,,,
1478384644.85,2.720416,1.309963,1.133930,0.599273,-0.229830,0.819650,0.105433,-0.966175,0.235349,0.289678,-0.085994,-0.101453,-18.703964,-47.311340,-0.575439,,,,,,
1478384644.87,2.772185,1.304649,1.073745,0.519901,-0.259642,0.403814,0.094966,-0.964791,0.245274,0.024846,-0.047233,0.104076,-19.002609,-46.635223,0.544617,,,,,,
1478384644.89,2.797953,1.297618,1.048943,0.404728,0.312010,0.145559,0.090898,-0.962918,0.254020,-0.209153,-0.027453,0.124795,-19.002609,-46.635223,0.544617,,,,,,
1478384644.91,2.833136,1.291860,1.021581,0.391778,0.459521,0.348943,0.083588,-0.961349,0.262339,-0.221970,0.036056,0.072149,-19.454193,-46.859848,0.915710,,,,,,
1478384644.93,2.877138,1.287065,0.985447,0.354420,0.510252,0.408849,0.073172,-0.960018,0.270208,-0.027960,0.027950,0.061121,-20.503937,-46.634338,1.429565,,,,,,
1478384644.95,2.914390,1.282164,0.960980,0.303118,0.782648,0.180867,0.064116,-0.958634,0.277326,0.066651,0.016953,0.018862,-19.978378,-46.634705,1.059814,,,,,,
1478384644.97,2.941405,1.276903,0.949247,0.298830,0.759430,0.114553,0.057604,-0.957123,0.283895,0.045683,-0.017547,-0.037969,-20.501907,-46.184341,1.428223,,,,,,
1478384644.99,2.973103,1.271431,0.929265,0.336045,0.548568,0.317038,0.049455,-0.955524,0.290738,0.052626,-0.050915,-0.063855,-20.501907,-46.184341,1.428223,,,,,,
1478384645.01,3.010297,1.265503,0.899927,0.372824,0.418521,0.406492,0.039351,-0.953759,0.297985,0.089617,-0.006416,-0.045269,-20.800095,-45.959869,0.899536,,,,,,
1478384645.03,3.045060,1.258726,0.870927,0.408250,0.334337,0.405254,0.029592,-0.951700,0.305600,0.141901,0.060602,-0.015103,-21.775879,-45.959351,1.414795,,,,,,
1478384645.05,3.083291,1.249812,0.838020,0.537223,0.369372,0.528443,0.018384,-0.948925,0.314965,0.199054,0.069332,-0.081704,-21.624847,-45.659134,1.640381,,,,,,
1478384645.07,3.126277,1.237658,0.799024,0.683809,0.228368,0.649042,0.005008,-0.945021,0.326973,0.289090,0.066206,-0.138359,-21.849289,-45.433823,1.937500,,,,,,
1478384645.09,-3.113371,1.222375,0.755939,0.804736,0.116094,0.770743,-0.009634,-0.939913,0.341279,0.348333,0.101580,-0.060914,-21.849289,-45.433823,1.937500,,,,,,
1478384645.11,-3.065619,1.203869,0.709482,0.938448,0.348989,0.929743,-0.027229,-0.933434,0.357714,0.114616,-0.102043,-0.040362,-23.649139,-45.133026,2.743591,,,,,,
,,,,,,,,,,,,,,,,37.354461,-122.033430,49.342712,0.710000,310.078125,1478384645.00
1478384645.13,-3.003905,1.181926,0.658059,1.006192,0.904387,1.129047,-0.052039,-0.925338,0.375555,-0.115167,-0.310654,-0.154043,-24.096878,-44.457504,3.262146,,,,,,
1478384645.15,-2.931109,1.157399,0.605783,1.039851,1.433406,1.274798,-0.083933,-0.915761,0.392857,0.016779,-0.257274,-0.127049,-24.995392,-43.931915,3.851562,,,,,,
1478384645.17,-2.851517,1.129954,0.552763,1.071855,1.522571,1.493057,-0.122047,-0.904393,0.408875,0.288688,-0.221721,-0.167679,-26.042908,-43.331772,3.989258,,,,,,
1478384645.19,-2.777833,1.098730,0.496554,1.083935,0.902082,1.804419,-0.161788,-0.890631,0.424973,0.429152,-0.285837,-0.182114,-26.042908,-43.331772,3.989258,,,,,,
1478384645.21,-2.712288,1.062764,0.436249,1.129232,0.545161,2.104811,-0.202483,-0.873704,0.442315,0.346343,-0.291625,-0.108392,-29.260208,-41.531525,4.251648,,,,,,
1478384645.23,-2.649438,1.022414,0.380460,1.223987,0.919757,2.167975,-0.246331,-0.853369,0.459437,0.250665,-0.282175,-0.081675,-30.080002,-40.180923,4.839417,,,,,,
1478384645.25,-2.582994,0.978191,0.332580,1.253276,1.473075,2.294553,-0.296016,-0.829489,0.473627,0.326183,-0.528605,-0.051661,-32.098206,-38.605728,5.039551,,,,,,
1478384645.27,-2.511948,0.929129,0.285153,1.302843,1.793325,2.645963,-0.352450,-0.801099,0.483755,0.619937,-1.099215,-0.314368,-33.515762,-36.880524,5.245178,,,,,,
1478384645.29,-2.434143,0.875672,0.245428,1.462492,2.778864,2.557067,-0.416247,-0.767974,0.486779,0.906588,-0.966797,-0.490182,-33.515762,-36.880524,5.245178,,,,,,
1478384645.31,-2.351429,0.819731,0.226458,1.681175,3.518556,2.236819,-0.484837,-0.730962,0.480237,1.086506,-0.595362,-0.421705,-36.132614,-35.231003,4.764038,,,,,,
1478384645.33,-2.292368,0.763888,0.222057,1.839793,2.204644,2.161896,-0.542169,-0.691734,0.477029,0.978952,-0.595879,-0.330941,-38.811081,-31.333664,2.100586,,,,,,
1478384645.35,-2.270047,0.707641,0.217127,1.536483,0.226041,2.330079,-0.581568,-0.650043,0.489104,0.818431,-0.835858,-0.241255,-40.149597,-29.159805,0.955627,,,,,,
1478384645.37,-2.277663,0.653337,0.205852,1.418740,-1.241707,2.326905,-0.603804,-0.607840,0.515706,0.765348,-0.859263,-0.137959,-41.342804,-27.509384,1.388794,,,,,,
1478384645.39,-2.303525,0.601996,0.194236,1.199770,-1.788572,2.174372,-0.612676,-0.566288,0.551313,0.342687,-0.501125,0.225970,-41.342804,-27.509384,1.388794,,,,,,
1478384645.41,-2.321744,0.566298,0.179642,0.433806,-0.861284,1.340084,-0.616922,-0.536511,0.575815,0.107446,-0.367099,-0.012461,-42.912689,-25.782593,3.167908,,,,,,
1478384645.43,-2.322089,0.561128,0.170844,-0.374492,0.017933,-0.109821,-0.618742,-0.532142,0.577914,0.288068,-0.188760,-0.316485,-43.575867,-22.254913,5.850708,,,,,,
1478384645.45,-2.317021,0.584382,0.172783,-0.928581,0.474097,-1.322189,-0.612410,-0.551684,0.566215,0.427519,0.169543,-0.255378,-43.799850,-22.029922,5.847778,,,,,,
1478384645.47,-2.306997,0.626066,0.180112,-1.325690,0.776042,-1.916093,-0.600481,-0.585961,0.544125,0.464358,0.337213,-0.174831,-43.806152,-23.680664,5.102661,,,,,,
1478384645.49,-2.299885,0.676961,0.184822,-1.704622,0.283027,-2.066619,-0.581322,-0.626427,0.519282,0.369515,0.333306,-0.257106,-43.806152,-23.680664,5.102661,,,,,,
1478384645.51,-2.302757,0.736248,0.187821,-2.011320,-0.281412,-2.501416,-0.551200,-0.671512,0.495228,0.465430,0.230106,-0.334766,-42.386017,-25.257141,3.621643,,,,,,
1478384645.53,-2.326486,0.812487,0.199292,-2.452354,-1.061841,-3.465910,-0.500503,-0.726000,0.471615,0.568023,0.249621,-0.290844,-41.717911,-26.907501,3.258240,,,,,,
1478384645.55,-2.373728,0.906080,0.225041,-2.813847,-1.585327,-4.117580,-0.428455,-0.787092,0.443749,0.513767,0.294980,-0.136544,-38.289703,-32.233963,1.808472,,,,,,
1478384645.57,-2.446553,1.007107,0.264662,-3.114307,-2.300115,-4.277127,-0.342180,-0.845289,0.410364,0.290864,0.269926,-0.136530,-36.203232,-35.384384,1.388794,,,,,,
1478384645.59,-2.552391,1.112873,0.325867,-3.470082,-2.712056,-4.437006,-0.245666,-0.896972,0.367544,0.082230,0.222473,-0.032903,-36.203232,-35.384384,1.388794,,,,,,
1478384645.61,-2.706306,1.221450,0.438844,-3.751014,-2.274507,-4.703396,-0.144331,-0.939597,0.310365,-0.037981,0.027610,0.207015,-32.388443,-37.935226,0.534607,,,,,,
1478384645.63,-2.979653,1.325440,0.684301,-3.929084,-1.760396,-5.113634,-0.039164,-0.970051,0.239724,-0.178198,-0.242107,0.356269,-29.249649,-40.635864,-0.100891,,,,,,
1478384645.65,2.736292,1.391405,1.228069,-3.773748,-1.758068,-5.235158,0.070354,-0.983952,0.163975,-0.364849,-0.495021,0.450862,-21.614639,-45.365051,-4.285339,,,,,,
1478384645.67,2.048819,1.376186,1.891888,-3.511096,-1.694342,-4.720620,0.171707,-0.981123,0.088962,-0.500000,-0.697237,0.509396,-16.442230,-46.792618,-6.854309,,,,,,
1478384645.69,1.637562,1.307368,2.282478,-3.182554,-1.311630,-4.319406,0.259812,-0.965503,0.017372,-0.461823,-0.555569,0.627586,-16.442230,-46.792618,-6.854309,,,,,,
1478384645.71,1.455550,1.222314,2.454952,-2.393845,-0.662222,-4.068373,0.339207,-0.939892,-0.039266,-0.440067,-0.319126,0.791402,-12.917511,-47.770355,-9.591187,,,,,,
1478384645.73,1.380383,1.144495,2.523868,-1.578208,-0.517727,-3.304771,0.406032,-0.910501,-0.078262,-0.730083,-0.401449,0.832321,-9.012527,-47.548019,-12.252869,,,,,,
1478384645.75,1.352845,1.093603,2.547427,-0.650165,-0.164753,-1.740153,0.448422,-0.888288,-0.099312,-1.120007,-0.364627,0.816185,-3.609344,-47.775818,-15.048096,,,,,,
1478384645.77,1.358799,1.084799,2.539514,0.557584,-0.101722,0.298535,0.456634,-0.884210,-0.098282,-1.229171,-0.008597,0.660843,-1.956680,-47.326248,-15.482910,,,,,,
1478384645.79,1.385318,1.116703,2.494786,1.715880,-1.088758,1.903673,0.431124,-0.898659,-0.080894,-1.028521,0.204689,0.565467,-1.956680,-47.326248,-15.482910,,,,,,
1478384645.81,1.427829,1.171983,2.412659,2.267014,-1.817806,2.695396,0.384363,-0.921523,-0.055329,-0.895425,0.059371,0.684708,-2.859589,-47.775650,-14.890564,,,,,,
1478384645.83,1.496879,1.232585,2.303920,2.207935,-1.318082,2.740473,0.330894,-0.943350,-0.024503,-0.848076,-0.091913,0.636854,-4.964172,-48.073502,-12.735779,,,,,,
1478384645.85,1.580163,1.271074,2.243088,0.502044,3.805890,0.840193,0.295242,-0.955418,0.002765,-0.168243,-0.491267,-0.355732,-8.645630,-48.670990,-10.220764,,,,,,
1478384645.87,1.752695,1.253421,2.151834,1.430013,3.038508,-0.709516,0.306926,-0.950058,0.056453,0.689595,-1.698166,-0.260067,-9.021973,-48.519638,-8.875000,,,,,,
1478384645.89,1.868297,1.266074,2.028624,1.672386,-1.311053,2.245950,0.286849,-0.953930,0.087948,-0.458037,-0.607853,-0.251354,-9.021973,-48.519638,-8.875000,,,,,,
1478384645.91,2.054763,1.315170,1.810258,2.075804,-1.256717,3.540660,0.223813,-0.967505,0.117650,-0.353986,0.300589,0.176539,-9.400436,-48.818222,-7.452820,,,,,,
1478384645.93,2.243321,1.331003,1.572931,1.842893,-2.404103,1.361791,0.185786,-0.971387,0.147955,-0.596141,0.559735,0.153559,-12.702744,-48.666229,-5.461365,,,,,,
1478384645.95,2.324258,1.319691,1.455627,1.260459,-0.695643,0.295987,0.181218,-0.968638,0.169998,-0.241399,0.052089,0.662140,-15.552902,-47.913864,-3.092041,,,,,,
1478384645.97,2.445753,1.314506,1.359278,0.871288,2.345642,0.955414,0.162497,-0.967337,0.194560,-0.287085,-0.148096,0.789448,-16.004684,-47.686981,-1.222290,,,,,,
1478384645.99,2.577570,1.312034,1.275315,0.684394,2.286422,0.523283,0.136793,-0.966707,0.216251,-0.593977,-0.067091,0.246472,-16.004684,-47.686981,-1.222290,,,,,,
1478384646.01,2.649759,1.303661,1.231245,0.643380,1.040595,0.314647,0.124658,-0.964531,0.232680,-0.185525,-0.037330,-0.117568,-17.277542,-47.011398,-0.637085,,,,,,
1478384646.03,2.719707,1.298071,1.166488,0.600805,-0.056159,0.793415,0.110297,-0.963040,0.245740,0.331430,-0.092654,-0.236065,-17.804428,-47.311035,-0.266418,,,,,,
1478384646.05,2.760475,1.291887,1.113737,0.541060,-0.582860,0.314277,0.102403,-0.961356,0.255554,0.194381,0.012794,-0.057892,-17.728302,-47.086105,-0.341370,,,,,,
1478384646.07,2.776051,1.284100,1.093198,0.434158,0.089723,0.105462,0.101083,-0.959183,0.264101,-0.112832,-0.038284,0.133512,-18.252502,-46.635284,0.477112,,,,,,
1478384646.09,2.811398,1.278287,1.066870,0.386765,0.694339,0.351712,0.093493,-0.957523,0.272779,-0.301882,-0.046703,0.110263,-18.853729,-46.634476,1.296021,,,,,,
1478384646.11,2.861260,1.273654,1.033247,0.353886,0.989028,0.375970,0.081007,-0.956177,0.281359,-0.182707,0.028077,0.082776,-18.853729,-46.634476,1.296021,,,,,,
,,,,,,,,,,,,,,,,37.354472,-122.033440,48.833252,2.040000,318.515625,1478384646.00
1478384646.13,2.905033,1.268363,1.009813,0.340593,1.065915,0.206280,0.069803,-0.954614,0.289549,0.071845,0.086527,0.021425,-19.454071,-46.784698,1.065491,,,,,,
1478384646.15,2.938668,1.262696,0.992733,0.325774,0.706182,0.200991,0.061115,-0.952911,0.297026,0.174999,0.029450,-0.045607,-19.301819,-46.334854,0.915649,,,,,,
1478384646.17,2.967523,1.257268,0.972831,0.323598,0.429675,0.280358,0.053415,-0.951251,0.303756,0.121786,-0.035123,-0.009750,-19.677139,-46.485077,0.687378,,,,,,
1478384646.19,3.000661,1.251741,0.949198,0.336873,0.634252,0.339707,0.044060,-0.949532,0.310560,0.042763,-0.060539,-0.009077,-19.677139,-46.485077,0.687378,,,,,,
1478384646.21,3.041632,1.245408,0.921893,0.397249,0.782817,0.429968,0.031902,-0.947527,0.318081,0.071156,0.003755,-0.042248,-20.727585,-46.409561,1.201599,,,,,,
1478384646.23,3.086775,1.236902,0.888100,0.507947,0.546883,0.565201,0.017956,-0.944773,0.327233,0.189869,0.039118,-0.086022,-20.351013,-46.109711,1.054504,,,,,,
1478384646.25,3.131499,1.225684,0.849120,0.632252,0.368203,0.665358,0.003415,-0.941038,0.338285,0.244068,-0.002963,-0.133970,-21.324417,-45.734650,1.118591,,,,,,
1478384646.27,-3.103192,1.211122,0.807216,0.771505,0.517435,0.786742,-0.013513,-0.936012,0.351710,0.177392,-0.019433,-0.172511,-21.700073,-45.734207,1.564880,,,,,,
1478384646.29,-3.049114,1.193120,0.760213,0.885869,0.493536,0.983465,-0.034054,-0.929524,0.367186,0.155804,-0.003887,-0.140120,-21.700073,-45.734207,1.564880,,,,,,
1478384646.31,-2.987973,1.172420,0.708375,0.910634,0.816768,1.145729,-0.059358,-0.921692,0.383354,0.154436,-0.110290,-0.032799,-22.299744,-45.433533,2.232971,,,,,,
1478384646.33,-2.926772,1.150370,0.661458,0.926205,0.926333,1.111868,-0.087006,-0.912915,0.398768,0.162384,-0.123325,-0.038081,-24.471664,-44.457657,3.108337,,,,,,
1478384646.35,-2.865749,1.125500,0.615673,1.004115,0.988001,1.336542,-0.117312,-0.902483,0.414442,0.238070,-0.057615,-0.060941,-25.443497,-43.707520,3.246399,,,,,,
1478384646.37,-2.808618,1.096500,0.566606,1.100235,0.359233,1.554006,-0.149279,-0.889614,0.431627,0.340624,-0.112263,-0.157549,-26.715637,-42.957169,3.606445,,,,,,
1478384646.39,-2.761902,1.063060,0.514577,1.164708,-0.000881,1.849081,-0.180202,-0.873847,0.451573,0.450862,-0.207909,-0.088841,-26.715637,-42.957169,3.606445,,,,,,
1478384646.41,-2.713176,1.025552,0.462847,1.249022,0.320626,1.937722,-0.215454,-0.855000,0.471756,0.268356,-0.345195,-0.029312,-28.663925,-42.281281,4.484863,,,,,,
1478384646.43,-2.662067,0.985514,0.419555,1.323353,1.048644,1.935581,-0.254871,-0.833556,0.490128,0.129550,-0.507524,-0.062882,-31.128082,-39.505188,5.576904,,,,,,
1478384646.45,-2.598203,0.941210,0.380536,1.441407,1.863686,2.147439,-0.304439,-0.808271,0.503999,0.160136,-0.603411,-0.319932,-32.323334,-38.304764,6.011353,,,,,,
1478384646.47,-2.527726,0.891281,0.341476,1.418184,1.974785,2.521652,-0.361988,-0.777877,0.513684,0.514835,-0.822938,-0.379819,-33.515991,-36.654694,6.069519,,,,,,
1478384646.49,-2.449377,0.835548,0.302056,1.464562,2.881294,2.730432,-0.428116,-0.741664,0.516382,1.048569,-1.427235,-0.455240,-33.515991,-36.654694,6.069519,,,,,,
1478384646.51,-2.356076,0.779421,0.283513,1.728477,4.291462,2.067006,-0.503039,-0.702868,0.502920,1.233294,-0.999495,-0.501165,-36.657608,-34.930099,5.657898,,,,,,
1478384646.53,-2.287837,0.724887,0.284773,1.975506,2.685273,2.063017,-0.564241,-0.663051,0.491930,1.050599,-0.628682,-0.411196,-37.694092,-32.531937,3.840332,,,,,,
1478384646.55,-2.270019,0.664326,0.281789,1.796416,-0.312061,2.579056,-0.602579,-0.616529,0.506745,0.942819,-1.032382,-0.386964,-40.149246,-29.084808,0.955444,,,,,,
1478384646.57,-2.294340,0.597740,0.272025,1.930104,-1.981414,2.861034,-0.619514,-0.562776,0.547253,0.872154,-0.880935,0.147861,-42.016327,-26.908569,2.205261,,,,,,
1478384646.59,-2.329887,0.532540,0.257755,1.545571,-2.070220,2.693447,-0.625000,-0.507723,0.592952,0.196411,-0.491682,0.194448,-42.016327,-26.908569,2.205261,,,,,,
1478384646.61,-2.349699,0.491970,0.240313,0.396264,-1.073944,1.412081,-0.627282,-0.472363,0.619185,0.177743,-0.377551,-0.230498,-42.982285,-24.131256,4.512268,,,,,,
1478384646.63,-2.360216,0.490332,0.232378,-0.494433,-0.535472,-0.308147,-0.621279,-0.470919,0.626297,0.301318,-0.064848,-0.312652,-43.500748,-21.954086,6.675598,,,,,,
1478384646.65,-2.362710,0.518775,0.232813,-1.293157,0.224101,-1.325654,-0.610057,-0.495816,0.618059,0.340007,0.243817,-0.128587,-44.025711,-21.502747,8.018921,,,,,,
1478384646.67,-2.345478,0.564109,0.229882,-1.915994,0.986128,-1.568241,-0.603921,-0.534663,0.591113,0.291680,0.324351,-0.170123,-43.580139,-22.778641,7.127197,,,,,,
1478384646.69,-2.325798,0.619584,0.218938,-2.421439,0.368701,-1.824040,-0.592900,-0.580696,0.557908,0.236607,0.383950,-0.299333,-43.580139,-22.778641,7.127197,,,,,,
1478384646.71,-2.321380,0.688241,0.209437,-2.745398,-0.273077,-2.563580,-0.564823,-0.635179,0.526804,0.412189,0.397569,-0.280252,-42.909302,-24.280350,5.413391,,,,,,
1478384646.73,-2.332688,0.775649,0.209139,-3.176727,-0.769827,-3.545440,-0.516577,-0.700180,0.492845,0.604148,0.436782,-0.233934,-41.716553,-26.231384,4.381226,,,,,,
1478384646.75,-2.365132,0.880049,0.222265,-3.394279,-1.369460,-4.273995,-0.446463,-0.770770,0.454516,0.561728,0.471286,-0.113756,-40.300690,-28.707703,3.052856,,,,,,
1478384646.77,-2.430673,0.990628,0.254343,-3.459451,-2.399994,-4.497039,-0.357695,-0.836370,0.415378,0.328550,0.286047,-0.087269,-35.452576,-35.309601,1.171082,,,,,,
1478384646.79,-2.527030,1.102457,0.305720,-3.731778,-2.492125,-4.442208,-0.260281,-0.892319,0.368809,-0.015262,0.067154,0.130061,-35.452576,-35.309601,1.171082,,,,,,
1478384646.81,-2.653661,1.215089,0.398330,-3.863044,-1.837149,-4.598761,-0.163261,-0.937401,0.307614,-0.232262,-0.111550,0.348331,-32.091141,-38.460007,0.764099,,,,,,
1478384646.83,-2.875557,1.320578,0.595683,-3.757198,-1.665926,-4.680374,-0.065100,-0.968858,0.238905,-0.426660,-0.233077,0.470064,-29.250671,-41.086548,-0.774536,,,,,,
1478384646.85,2.958550,1.397842,1.016183,-3.458554,-1.990534,-4.433942,0.031325,-0.985081,0.169218,-0.500533,-0.337185,0.502474,-25.584167,-43.563293,-2.530518,,,,,,
1478384646.87,2.276970,1.413438,1.665976,-3.172751,-1.896098,-4.032527,0.119232,-0.987645,0.101693,-0.415650,-0.304775,0.600059,-17.939957,-46.342789,-7.020691,,,,,,
1478384646.89,1.761039,1.368514,2.162938,-2.939081,-0.920373,-3.805068,0.197281,-0.979611,0.037991,-0.508804,-0.273777,0.670017,-17.939957,-46.342789,-7.020691,,,,,,
1478384646.91,1.517982,1.296769,2.406108,-2.365510,-0.028117,-3.703321,0.270233,-0.962689,-0.014286,-0.663697,-0.154605,0.698200,-14.640457,-47.320374,-9.609741,,,,,,
1478384646.93,1.421344,1.223380,2.511517,-1.774603,0.259523,-3.302980,0.336675,-0.940255,-0.050695,-0.802861,-0.287833,0.635045,-11.335922,-47.097748,-11.977356,,,,,,
1478384646.95,1.378137,1.163130,2.563642,-1.254488,0.257886,-2.441999,0.389133,-0.918049,-0.075912,-0.830158,-0.308636,0.624664,-8.637314,-47.924286,-13.522888,,,,,,
1478384646.97,1.361938,1.128727,2.585761,-0.486957,0.105859,-1.027560,0.418514,-0.903868,-0.088704,-0.801326,-0.155656,0.562230,-3.455856,-47.251572,-15.798157,,,,,,
1478384646.99,1.359884,1.129195,2.579521,0.552776,-0.779073,0.586201,0.417917,-0.904068,-0.089475,-0.792108,0.045517,0.464795,-3.455856,-47.251572,-15.798157,,,,,,
1478384647.01,1.372274,1.161167,2.533692,1.632881,-1.827841,1.782896,0.390447,-0.917268,-0.078547,-0.838689,0.232256,0.556254,-3.306778,-47.476639,-15.870972,,,,,,
1478384647.03,1.410641,1.213907,2.448821,2.194936,-1.978343,2.585845,0.344890,-0.936988,-0.055713,-0.886455,0.136924,0.742649,-5.034561,-47.700455,-14.687561,,,,,,
1478384647.05,1.466880,1.272788,2.370665,0.726414,0.497293,2.593306,0.292033,-0.955923,-0.030457,-0.617885,-0.166437,0.155930,-8.114334,-48.073380,-12.617310,,,,,,
1478384647.07,1.618847,1.271682,2.277653,1.844896,2.846085,-1.495687,0.294334,-0.955598,0.014154,1.689110,-2.091918,-0.136575,-10.365311,-47.771835,-11.065674,,,,,,
1478384647.09,1.718790,1.268767,2.163338,1.910424,-2.255751,1.250128,0.294207,-0.954735,0.043861,-0.042132,-0.818138,-0.473564,-10.365311,-47.771835,-11.065674,,,,,,
1478384647.11,1.836068,1.319712,1.989215,1.947721,-2.117190,3.634224,0.239764,-0.968644,0.065138,-0.578402,0.318863,0.575884,-9.545593,-48.219650,-8.881165,,,,,,
,,,,,,,,,,,,,,,,37.354484,-122.033458,48.722412,2.040000,304.101562,1478384647.00
1478384647.13,2.056785,1.357022,1.721283,2.126057,-2.050993,1.975456,0.187586,-0.977237,0.099092,-0.907724,0.732608,0.490096,-13.449585,-48.292206,-6.444885,,,,,,
1478384647.15,2.179341,1.352929,1.563113,1.348778,-1.043409,0.185132,0.177345,-0.976361,0.123566,-0.655067,-0.061359,0.546234,-15.549637,-47.539917,-4.143188,,,,,,
1478384647.17,2.286020,1.343256,1.474907,0.873901,2.284043,0.440265,0.170302,-0.974224,0.147933,-0.294143,-0.279316,0.845047,-15.927338,-47.538116,-2.346985,,,,,,
1478384647.19,2.430183,1.342499,1.386403,0.671228,2.784966,0.630401,0.147765,-0.974053,0.171424,-0.374342,-0.140983,0.253014,-15.927338,-47.538116,-2.346985,,,,,,
1478384647.21,2.514922,1.336888,1.335078,0.567036,1.191175,0.166414,0.135928,-0.972768,0.187739,-0.149158,0.024572,-0.052104,-17.503220,-47.537537,-1.762756,,,,,,
1478384647.23,2.579084,1.331666,1.281768,0.557888,0.251295,0.546307,0.126319,-0.971544,0.200363,0.269006,-0.007597,-0.169449,-17.877289,-47.312454,-1.692139,,,,,,
1478384647.25,2.635769,1.327943,1.216253,0.562622,-0.569792,0.504525,0.116516,-0.970656,0.210360,0.203140,-0.017732,-0.114794,-17.276871,-47.162308,-1.536560,,,,,,
1478384647.27,2.675438,1.321786,1.168246,0.529983,-0.110915,0.337988,0.110766,-0.969157,0.220150,-0.009005,-0.017553,0.042896,-17.952530,-47.161865,-1.093384,,,,,,
1478384647.29,2.721002,1.316047,1.124396,0.469237,0.244713,0.380530,0.102893,-0.967727,0.230040,-0.041262,0.033263,0.040239,-17.952530,-47.161865,-1.093384,,,,,,
1478384647.31,2.762973,1.310866,1.086896,0.389132,0.272293,0.302471,0.095002,-0.966408,0.238811,-0.004166,0.059837,0.104512,-18.327301,-46.861115,-0.348022,,,,,,
1478384647.33,2.790939,1.305862,1.060793,0.354532,0.048869,0.190681,0.089947,-0.965110,0.245912,-0.043255,0.077170,0.036970,-19.076263,-46.485672,0.093384,,,,,,
1478384647.35,2.811649,1.300596,1.038776,0.333464,-0.018286,0.203280,0.086481,-0.963718,0.252527,-0.070581,0.030871,-0.016809,-19.302490,-46.635300,0.466553,,,,,,
1478384647.37,2.839981,1.295799,1.013047,0.335656,0.328421,0.283301,0.080665,-0.962426,0.259287,-0.055274,-0.086296,-0.019175,-19.152954,-46.634995,0.768005,,,,,,
1478384647.39,2.878802,1.290908,0.984050,0.361355,0.636366,0.326930,0.071763,-0.961086,0.266764,0.050720,-0.051304,-0.033839,-19.152954,-46.634995,0.768005,,,,,,
1478384647.41,2.922651,1.284923,0.951157,0.425690,0.551280,0.419760,0.061249,-0.959416,0.275263,0.163971,0.042256,-0.069865,-20.428482,-46.634628,1.130249,,,,,,
1478384647.43,2.969209,1.277581,0.909606,0.509129,0.182994,0.560993,0.049578,-0.957319,0.284748,0.230696,0.052962,-0.099415,-20.200455,-45.884415,1.355347,,,,,,
1478384647.45,3.013455,1.268306,0.861882,0.595734,-0.193184,0.665882,0.038068,-0.954597,0.295456,0.175494,0.003838,-0.135773,-21.025772,-45.959427,1.347290,,,,,,
1478384647.47,3.058167,1.256871,0.810130,0.681043,-0.184500,0.740844,0.025731,-0.951129,0.307721,0.082591,-0.052091,-0.105786,-21.398514,-45.133453,2.316101,,,,,,
1478384647.49,3.106610,1.243481,0.759469,0.737528,0.150085,0.771779,0.011245,-0.946909,0.321306,0.003739,-0.052237,-0.058137,-21.398514,-45.133453,2.316101,,,,,,
1478384647.51,-3.121969,1.228177,0.709580,0.795095,0.501231,0.848703,-0.006592,-0.941878,0.335891,0.007004,-0.005342,-0.031478,-22.750168,-45.282791,2.978027,,,,,,
1478384647.53,-3.060412,1.210558,0.657993,0.857416,0.726043,0.978709,-0.028585,-0.935813,0.351337,0.114309,-0.044397,-0.044925,-22.824387,-44.982422,3.351379,,,,,,
1478384647.55,-2.997000,1.190904,0.607242,0.877296,0.867760,1.044307,-0.053431,-0.928704,0.366951,0.161830,-0.066382,-0.044564,-24.770859,-43.931610,4.153748,,,,,,
1478384647.57,-2.932986,1.169409,0.558778,0.912149,1.003437,1.135556,-0.080912,-0.920520,0.382226,0.161738,-0.087766,-0.023858,-26.270386,-43.706253,4.513062,,,,,,
1478384647.59,-2.869328,1.145783,0.511528,0.919741,1.015491,1.248856,-0.110882,-0.911033,0.397144,0.139400,-0.124291,-0.065571,-26.270386,-43.706253,4.513062,,,,,,
1478384647.61,-2.806938,1.120461,0.464258,0.890344,0.950943,1.392864,-0.142961,-0.900301,0.411121,0.159181,-0.191664,-0.062854,-27.392883,-43.030899,4.874817,,,,,,
1478384647.63,-2.744832,1.093600,0.416143,0.867099,0.961143,1.539225,-0.177485,-0.888286,0.423612,0.202204,-0.206685,-0.026426,-27.688599,-42.131058,4.719177,,,,,,
1478384647.65,-2.683992,1.063919,0.369458,0.923550,1.028073,1.675197,-0.214470,-0.874265,0.435504,0.255318,-0.245807,-0.021442,-30.529663,-40.030701,5.059509,,,,,,
1478384647.67,-2.621281,1.030098,0.324779,0.983598,1.314152,1.842763,-0.255901,-0.857349,0.446617,0.273067,-0.369183,-0.095894,-32.176041,-39.205658,5.115540,,,,,,
1478384647.69,-2.557958,0.993028,0.279301,0.985524,1.200541,2.154428,-0.300965,-0.837684,0.455748,0.422501,-0.684350,-0.057539,-32.176041,-39.205658,5.115540,,,,,,
1478384647.71,-2.490577,0.948591,0.233274,1.095054,1.682474,2.354671,-0.353191,-0.812595,0.463622,0.625469,-1.029873,-0.297591,-33.069717,-37.855820,4.952576,,,,,,
1478384647.73,-2.415946,0.903259,0.196935,1.029093,2.628462,2.330448,-0.410816,-0.785349,0.463096,0.807666,-0.900000,-0.297752,-34.486374,-36.131210,4.558228,,,,,,
1478384647.75,-2.327334,0.850053,0.167103,1.395030,3.537109,2.529106,-0.479922,-0.751316,0.452990,1.249163,-0.936062,-0.482043,-38.742844,-32.607986,2.780090,,,,,,
1478384647.77,-2.259279,0.796030,0.160596,1.728050,2.763857,2.012578,-0.540200,-0.714585,0.444470,1.153542,-0.635910,-0.332043,-40.156555,-30.734879,0.885254,,,,,,
1478384647.79,-2.224148,0.741590,0.163379,1.776129,1.170999,2.203802,-0.585530,-0.675461,0.448227,0.788228,-0.623764,-0.262161,-40.156555,-30.734879,0.885254,,,,,,
1478384647.81,-2.229387,0.677580,0.163956,2.068468,-1.027630,2.704694,-0.616150,-0.626909,0.476807,0.624237,-0.577192,0.057770,-40.446213,-28.861160,-0.398193,,,,,,
1478384647.83,-2.259256,0.611596,0.160537,1.792168,-1.653084,2.512314,-0.632246,-0.574175,0.520181,0.260191,-0.384153,0.020728,-41.788757,-26.985504,0.257812,,,,,,
1478384647.85,-2.279994,0.568165,0.157612,0.982873,-0.747044,1.163981,-0.639656,-0.538086,0.548911,0.277199,-0.285736,-0.277030,-42.606644,-24.658279,2.492615,,,,,,
1478384647.87,-2.287064,0.558278,0.164781,0.321444,0.133811,-0.373275,-0.639741,-0.529727,0.556885,0.370622,-0.017393,-0.249329,-43.947586,-21.956192,4.571045,,,,,,
1478384647.89,-2.283403,0.573659,0.179385,-0.265835,0.800913,-1.247499,-0.635534,-0.542709,0.549147,0.368017,0.160354,-0.242308,-43.947586,-21.956192,4.571045,,,,,,
1478384647.91,-2.270796,0.603318,0.190226,-0.805592,0.907988,-1.494949,-0.629816,-0.567378,0.530486,0.380105,0.163920,-0.264250,-43.350189,-22.631485,4.279053,,,,,,
1478384647.93,-2.264685,0.642489,0.196727,-1.177615,0.170611,-1.825630,-0.615478,-0.599190,0.512014,0.424637,0.207512,-0.306295,-43.054031,-23.757309,3.460388,,,,,,
1478384647.95,-2.279344,0.694278,0.206243,-1.519695,-0.762789,-2.495488,-0.583540,-0.639831,0.500098,0.500303,0.272826,-0.325568,-42.910233,-25.558578,2.192261,,,,,,
1478384647.97,-2.315512,0.762218,0.224058,-1.911507,-1.523761,-3.276075,-0.531833,-0.690527,0.490230,0.608082,0.322256,-0.334667,-40.001953,-29.308685,2.082581,,,,,,
1478384647.99,-2.379029,0.845488,0.252961,-2.375971,-2.465416,-3.884200,-0.458239,-0.748295,0.479659,0.524370,0.359058,-0.287810,-40.001953,-29.308685,2.082581,,,,,,
1478384648.01,-2.469144,0.939405,0.295506,-2.840111,-3.040754,-4.199638,-0.367680,-0.807207,0.461766,0.361012,0.258547,-0.227620,-37.690491,-32.158203,2.564270,,,,,,
1478384648.03,-2.585392,1.041144,0.356375,-3.406054,-3.344302,-4.331805,-0.266744,-0.862983,0.429078,0.111135,0.103934,-0.073426,-35.230499,-35.382874,2.898560,,,,,,
1478384648.05,-2.724864,1.146478,0.450699,-3.798661,-2.233046,-4.443752,-0.166644,-0.911320,0.376465,-0.189603,-0.031597,0.241241,-32.545639,-38.607452,3.310059,,,,,,
1478384648.07,-2.921656,1.253211,0.632075,-4.142540,-0.926491,-5.015567,-0.068128,-0.949992,0.304751,-0.407992,-0.201085,0.408658,-28.279831,-41.008530,2.234924,,,,,,
1478384648.09,2.983058,1.339397,1.015305,-3.976959,-0.265627,-5.397025,0.036206,-0.973346,0.226464,-0.556104,-0.386944,0.440482,-28.279831,-41.008530,2.234924,,,,,,
,,,,,,,,,,,,,,,,37.354497,-122.033479,48.791077,2.410000,304.101562,1478384648.00
1478384648.11,2.396865,1.361922,1.608601,-3.616105,-0.393674,-5.152081,0.140542,-0.978265,0.152465,-0.609032,-0.480216,0.376801,-20.116913,-45.664444,-3.669495,,,,,,
1478384648.13,1.917518,1.317319,2.088013,-3.164554,-0.756919,-4.614878,0.235848,-0.968046,0.085216,-0.438653,-0.528459,0.367375,-15.694824,-47.242233,-6.470520,,,,,,
1478384648.15,1.651071,1.244878,2.344605,-2.566989,-1.155151,-4.104228,0.319148,-0.947357,0.025675,-0.294795,-0.420914,0.489325,-11.645111,-48.370422,-9.651672,,,,,,
1478384648.17,1.507934,1.172717,2.466518,-1.853597,-1.632123,-3.253835,0.386883,-0.921807,-0.024353,-0.487866,-0.453956,0.616058,-7.065598,-48.147781,-12.006531,,,,,,
1478384648.19,1.427166,1.121943,2.517979,-0.953438,-1.641193,-1.883645,0.429465,-0.900945,-0.062112,-0.924475,-0.344477,0.697549,-7.065598,-48.147781,-12.006531,,,,,,
1478384648.21,1.394901,1.104733,2.523695,0.192816,-1.156270,-0.150542,0.442439,-0.893344,-0.078636,-1.257899,-0.006436,0.752967,-2.259598,-47.775650,-14.884583,,,,,,
1478384648.23,1.408721,1.127394,2.487408,1.422866,-0.882161,1.596017,0.423393,-0.903297,-0.069229,-1.214424,0.221794,0.718826,-2.634705,-47.700348,-14.588562,,,,,,
1478384648.25,1.460425,1.177255,2.409627,2.099194,-1.052920,2.543346,0.381128,-0.923557,-0.042237,-0.975442,0.059742,0.698518,-3.237961,-48.149536,-13.768188,,,,,,
1478384648.27,1.538536,1.235002,2.301805,2.035705,-1.068347,2.789999,0.329348,-0.944149,-0.010629,-0.734286,-0.116154,0.498772,-6.241608,-48.372772,-11.997620,,,,,,
1478384648.29,1.616576,1.278300,2.230733,0.589947,2.212034,1.285759,0.288041,-0.957527,0.013196,0.317946,-0.744774,-0.578931,-6.241608,-48.372772,-11.997620,,,,,,
1478384648.31,1.758474,1.265907,2.142273,1.520964,1.930068,-0.720963,0.294916,-0.953880,0.056008,0.626532,-1.228127,-0.206628,-8.269974,-48.445755,-9.992676,,,,,,
1478384648.33,1.864670,1.272244,2.015889,1.747234,-1.895637,1.874789,0.281527,-0.955763,0.085200,-0.503619,-0.505403,-0.020457,-9.698746,-48.668900,-8.131348,,,,,,
1478384648.35,2.025284,1.317962,1.811565,1.910751,-1.667669,3.397134,0.224755,-0.968207,0.109816,-0.450753,0.229896,0.261690,-10.600418,-48.442108,-6.340942,,,,,,
1478384648.37,2.218015,1.337403,1.574192,1.748019,-2.000788,1.469569,0.184507,-0.972887,0.139455,-0.649701,0.445925,0.259578,-13.677368,-48.139893,-4.122620,,,,,,
1478384648.39,2.306464,1.326662,1.458571,1.242078,-0.359379,0.126992,0.179204,-0.970347,0.162212,-0.411153,-0.008611,0.699193,-13.677368,-48.139893,-4.122620,,,,,,
1478384648.41,2.420437,1.319014,1.373053,0.889824,2.466470,0.784822,0.164489,-0.968470,0.187108,-0.412032,-0.144766,0.605541,-15.252686,-47.537888,-2.115234,,,,,,
1478384648.43,2.561862,1.316891,1.281966,0.727821,2.449874,0.696884,0.137600,-0.967939,0.210145,-0.417019,-0.056674,0.147414,-16.228897,-47.311386,-0.625671,,,,,,
1478384648.45,2.649154,1.309534,1.225664,0.658040,1.155733,0.383360,0.122118,-0.966065,0.227609,0.048613,-0.052093,-0.088464,-17.051529,-46.861633,-0.860229,,,,,,
1478384648.47,2.718843,1.303752,1.162303,0.598417,0.004140,0.743352,0.108262,-0.964555,0.240651,0.439055,-0.035369,-0.168980,-17.502426,-46.936264,-0.489502,,,,,,
1478384648.49,2.766401,1.298184,1.103501,0.543474,-0.590470,0.473447,0.098666,-0.963071,0.250519,0.182553,0.003781,-0.075119,-17.502426,-46.936264,-0.489502,,,,,,
1478384648.51,2.794807,1.290705,1.066435,0.512034,-0.160082,0.333544,0.093956,-0.961030,0.259986,-0.117852,-0.073729,0.052407,-18.627838,-46.860748,0.023987,,,,,,
1478384648.53,2.839569,1.284134,1.023528,0.503288,0.333198,0.537886,0.084105,-0.959193,0.269954,-0.227080,-0.039815,0.097600,-19.077835,-46.635071,0.693787,,,,,,
1478384648.55,2.894008,1.277978,0.977107,0.460831,0.612592,0.535376,0.070738,-0.957434,0.279850,-0.120680,0.064368,0.056897,-19.227478,-46.259171,1.591187,,,,,,
1478384648.57,2.943922,1.271228,0.940458,0.442012,0.762318,0.390449,0.057955,-0.955464,0.289361,0.055479,0.110859,0.044776,-19.750778,-45.884186,1.584778,,,,,,
1478384648.59,2.981950,1.263868,0.913126,0.426925,0.457372,0.326547,0.048029,-0.953266,0.298290,0.098959,0.051090,0.003544,-19.750778,-45.884186,1.584778,,,,,,
1478384648.61,3.011766,1.257102,0.887191,0.373506,0.188546,0.350289,0.039949,-0.951200,0.305978,0.060362,-0.038638,0.004630,-20.951447,-45.958969,1.798035,,,,,,
1478384648.63,3.038743,1.250865,0.863437,0.346590,0.259522,0.315179,0.032289,-0.949257,0.312839,-0.026644,-0.040397,0.010800,-20.500214,-45.734116,1.651855,,,,,,
1478384648.65,3.064962,1.244223,0.842051,0.375228,0.301337,0.322823,0.024559,-0.947147,0.319858,-0.043419,0.007633,-0.027072,-21.173843,-45.208450,2.318542,,,,,,
1478384648.67,3.093926,1.236307,0.817332,0.444704,0.267340,0.402982,0.015643,-0.944578,0.327914,0.002470,0.036176,-0.068927,-21.851532,-45.658005,2.763123,,,,,,
1478384648.69,3.124347,1.227036,0.791355,0.506305,0.335070,0.425712,0.005812,-0.941494,0.336980,0.078386,0.041973,-0.061269,-21.851532,-45.658005,2.763123,,,,,,
1478384648.71,-3.124318,1.215860,0.764418,0.589868,0.550644,0.487348,-0.006003,-0.937669,0.347478,0.111365,-0.038299,-0.073568,-22.374603,-45.207932,2.831604,,,,,,
1478384648.73,-3.083379,1.202619,0.735136,0.672485,0.738764,0.576688,-0.020940,-0.932985,0.359306,0.113241,-0.063704,-0.107780,-22.223389,-44.907852,2.907227,,,,,,
1478384648.75,-3.038089,1.187339,0.703621,0.737334,0.828820,0.680685,-0.038655,-0.927377,0.372127,0.063969,-0.076972,-0.085338,-23.422348,-44.381973,3.793640,,,,,,
1478384648.77,-2.986251,1.169990,0.668596,0.802701,1.111576,0.836498,-0.060365,-0.920747,0.385463,0.062700,-0.096160,-0.057003,-24.547226,-44.231613,4.156860,,,,,,
1478384648.79,-2.923825,1.150484,0.630439,0.810118,1.520990,0.982943,-0.088158,-0.912962,0.398408,0.182946,-0.083208,-0.051072,-24.547226,-44.231613,4.156860,,,,,,
1478384648.81,-2.859164,1.129617,0.590620,0.810173,1.242005,1.122139,-0.119002,-0.904249,0.410089,0.331618,-0.081530,-0.052896,-24.919510,-43.706833,3.926575,,,,,,
1478384648.83,-2.802906,1.106002,0.547777,0.853714,0.732611,1.344113,-0.148927,-0.893914,0.422776,0.418901,-0.177467,-0.024125,-25.515564,-42.882004,3.768188,,,,,,
1478384648.85,-2.747980,1.079149,0.501919,0.902925,0.755269,1.528030,-0.181055,-0.881557,0.435979,0.346689,-0.210912,-0.036259,-26.562515,-42.207016,3.755676,,,,,,
1478384648.87,-2.689889,1.048115,0.457368,1.018138,1.106509,1.684118,-0.217903,-0.866484,0.449137,0.262642,-0.253923,-0.066569,-30.156021,-40.631607,4.164978,,,,,,
1478384648.89,-2.627021,1.012049,0.415267,1.130190,1.466773,1.881894,-0.260907,-0.847920,0.461475,0.267545,-0.386180,-0.177661,-30.156021,-40.631607,4.164978,,,,,,
1478384648.91,-2.561061,0.971065,0.371674,1.127754,1.403865,2.243912,-0.309567,-0.825487,0.471952,0.409039,-0.663343,-0.222075,-31.050034,-39.281540,4.226990,,,,,,
1478384648.93,-2.492640,0.921973,0.323959,1.205584,1.596274,2.693314,-0.365179,-0.796796,0.481416,0.639258,-1.082797,-0.490922,-32.470169,-38.081177,4.584229,,,,,,
1478384648.95,-2.420272,0.866983,0.282367,1.454620,2.377512,2.803807,-0.427349,-0.762380,0.485952,0.953045,-1.025843,-0.491002,-34.335251,-36.131958,3.809692,,,,,,
1478384648.97,-2.345426,0.805315,0.257681,1.750049,2.812167,2.561916,-0.495191,-0.721049,0.484639,1.255979,-0.847112,-0.503773,-38.215256,-32.083130,2.633789,,,,,,
1478384648.99,-2.298514,0.745733,0.251123,1.912517,1.526737,2.279804,-0.548515,-0.678511,0.488626,1.146201,-0.601046,-0.334344,-38.215256,-32.083130,2.633789,,,,,,
1478384649.01,-2.295481,0.685314,0.249585,1.987144,-0.753624,2.349519,-0.579665,-0.632916,0.513230,0.905303,-0.593844,-0.063630,-39.630676,-30.208893,1.864014,,,,,,
1478384649.03,-2.326590,0.623303,0.244745,1.867106,-2.120872,2.452392,-0.590881,-0.583721,0.556893,0.423676,-0.648289,0.129066,-40.897766,-28.333542,2.220703,,,,,,
1478384649.05,-2.359581,0.570917,0.233040,1.186118,-1.621600,1.939737,-0.592946,-0.540404,0.596975,0.035817,-0.567537,0.019251,-42.316986,-26.155869,4.900024,,,,,,
1478384649.07,-2.374033,0.548504,0.226955,0.343578,-0.450087,0.314287,-0.592519,-0.521411,0.614045,0.051458,-0.208386,-0.196229,-43.135880,-24.128860,6.910706,,,,,,
1478384649.09,-2.374634,0.557634,0.235634,-0.342575,0.593123,-1.023838,-0.588822,-0.529180,0.610948,0.186860,0.165212,-0.177476,-43.135880,-24.128860,6.910706,,,,,,
1478384649.11,-2.357186,0.588432,0.248310,-0.917482,1.503318,-1.651635,-0.587597,-0.555058,0.588763,0.289562,0.281818,-0.273333,-42.834183,-23.377731,8.036438,,,,,,
,,,,,,,,,,,,,,,,37.354505,-122.033482,48.982422,2.410000,339.960938,1478384649.00
1478384649.13,-2.334307,0.631656,0.259904,-1.310619,1.341569,-2.026712,-0.583024,-0.590482,0.558045,0.330461,0.293912,-0.382279,-42.162689,-24.654221,6.547058,,,,,,
1478384649.15,-2.324609,0.686776,0.273647,-1.612817,0.631255,-2.614687,-0.563797,-0.634048,0.529261,0.400818,0.284225,-0.357981,-42.318558,-26.455719,5.050842,,,,,,
1478384649.17,-2.333973,0.755498,0.294508,-1.902449,-0.054474,-3.292320,-0.526034,-0.685651,0.503160,0.529590,0.231199,-0.351014,-40.449463,-28.332413,3.350220,,,,,,
1478384649.19,-2.370157,0.837231,0.324895,-2.243803,-1.153957,-3.840834,-0.466768,-0.742792,0.479987,0.511552,0.221857,-0.331885,-40.449463,-28.332413,3.350220,,,,,,
1478384649.21,-2.440366,0.926587,0.367553,-2.485578,-2.266511,-4.085778,-0.387458,-0.799575,0.458864,0.368797,0.226440,-0.288331,-37.021805,-33.884171,1.601135,,,,,,
1478384649.23,-2.544931,1.020203,0.427125,-2.882942,-2.978091,-4.214501,-0.293974,-0.852214,0.432794,0.124891,0.178523,-0.156030,-34.410599,-36.808762,2.011047,,,,,,
