timestamp(unix),attitude_roll(radians),attitude_pitch(radians),attitude_yaw(radians),rotation_rate_x(radians/s),rotation_rate_y(radians/s),rotation_rate_z(radians/s),gravity_x(G),gravity_y(G),gravity_z(G),user_acc_x(G),user_acc_y(G),user_acc_z(G),magnetic_field_x(microteslas),magnetic_field_y(microteslas),magnetic_field_z(microteslas),latitude(degree),longitude(degree),altitude(meter),speed(m/s),course(degree),timestamp(unix)
1478384891.30,-3.128083,1.454789,0.728659,0.007431,-0.154270,-0.004571,-0.001564,-0.993279,0.115736,0.022331,0.005593,-0.045439,-27.327393,-40.975327,3.819885,,,,,,
,,,,,,,,,,,,,,,,37.354387,-122.033361,44.611816,0.000000,267.890625,1478384891.28
1478384891.32,-3.136095,1.454141,0.731246,0.047310,-0.309162,-0.030569,-0.000640,-0.993204,0.116389,0.002181,0.045999,-0.024714,-27.327393,-40.975327,3.819885,,,,,,
,,,,,,,,,,,,,,,,37.354387,-122.033361,44.611816,0.000000,267.890625,1478384891.00
1478384891.34,-3.119316,1.452743,0.711643,0.059292,-0.022125,0.053588,-0.002623,-0.993040,0.117750,-0.050309,-0.062991,0.011232,-27.629166,-41.199799,4.342590,,,,,,
1478384891.36,-3.093893,1.452703,0.691066,-0.063135,0.280458,0.052070,-0.005618,-0.993035,0.117685,-0.080900,0.018243,-0.035119,-27.329300,-41.049271,4.870117,,,,,,
1478384891.37,-3.097631,1.453115,0.699242,0.041417,0.184661,-0.049511,-0.005160,-0.993084,0.117297,0.039523,0.098857,0.014784,-28.227829,-40.824585,4.560425,,,,,,
1478384891.39,-3.097141,1.452086,0.700195,0.029365,-0.012077,0.010827,-0.005263,-0.992962,0.118315,0.050551,-0.015949,-0.003248,-27.326935,-40.749939,4.194214,,,,,,
1478384891.41,-3.105403,1.452479,0.706175,-0.001110,-0.133642,0.027529,-0.004271,-0.993009,0.117964,0.004424,-0.002459,-0.004103,-27.326935,-40.749939,4.194214,,,,,,
1478384891.43,-3.103868,1.452208,0.702798,0.018867,-0.060126,0.011740,-0.004462,-0.992977,0.118227,-0.031777,0.032237,-0.008623,-27.253403,-41.125092,4.046082,,,,,,
1478384891.45,-3.092196,1.451755,0.691346,0.015310,0.039879,-0.012558,-0.005864,-0.992923,0.118616,-0.017192,0.003238,-0.000863,-28.079514,-41.199585,4.563049,,,,,,
1478384891.47,-3.094058,1.451449,0.694076,0.021744,0.026005,-0.014722,-0.005658,-0.992887,0.118930,-0.002460,0.019727,-0.020282,-27.477951,-40.899719,4.418152,,,,,,
1478384891.49,-3.095368,1.451919,0.694997,0.047529,-0.038891,-0.006308,-0.005480,-0.992942,0.118471,-0.001646,0.018028,-0.027590,-27.028290,-40.974716,4.422852,,,,,,
1478384891.51,-3.097730,1.450999,0.696715,0.042142,-0.022968,-0.011615,-0.005240,-0.992833,0.119396,-0.004357,0.001942,-0.003063,-27.028290,-40.974716,4.422852,,,,,,
1478384891.53,-3.098579,1.450268,0.697831,0.035547,0.035598,-0.020012,-0.005170,-0.992745,0.120125,-0.005389,0.011025,0.004096,-27.254196,-41.124573,4.571106,,,,,,
1478384891.55,-3.101256,1.449565,0.701389,0.036607,0.037749,-0.018936,-0.004877,-0.992661,0.120836,0.000513,0.016083,-0.003572,-27.853500,-40.899353,4.789368,,,,,,
1478384891.57,-3.105991,1.448898,0.706132,0.040038,-0.027142,-0.003083,-0.004328,-0.992580,0.121519,0.013666,0.007487,-0.003798,-26.952621,-40.824722,4.423157,,,,,,
1478384891.59,-3.105956,1.448365,0.705064,0.042264,-0.052630,0.006467,-0.004351,-0.992515,0.122048,-0.001813,0.014075,-0.007561,-27.327377,-40.674423,4.719055,,,,,,
1478384891.61,-3.102860,1.447656,0.701523,0.047411,-0.001490,-0.001929,-0.004756,-0.992428,0.122737,-0.005376,0.006268,-0.004954,-27.327377,-40.674423,4.719055,,,,,,
1478384891.63,-3.101743,1.447153,0.700838,0.050520,0.024120,-0.002921,-0.004913,-0.992366,0.123231,-0.001053,0.007136,-0.007462,-27.027725,-40.824646,4.497437,,,,,,
1478384891.65,-3.106160,1.446836,0.705316,0.064494,-0.009823,0.009829,-0.004380,-0.992327,0.123566,0.012208,0.011904,-0.015228,-27.178726,-40.974426,4.721436,,,,,,
1478384891.67,-3.111219,1.446229,0.709548,0.073301,-0.054398,0.019293,-0.003773,-0.992252,0.124188,0.010106,0.014789,-0.011456,-27.328857,-40.974350,4.794861,,,,,,
1478384891.69,-3.108348,1.444999,0.705527,0.074346,-0.051256,0.013963,-0.004170,-0.992098,0.125397,-0.004726,0.000979,-0.004440,-27.552582,-40.749496,4.641968,,,,,,
1478384891.71,-3.104661,1.444242,0.701045,0.081744,-0.033061,0.016164,-0.004660,-0.992003,0.126131,-0.004037,0.011549,-0.015505,-27.552582,-40.749496,4.641968,,,,,,
1478384891.73,-3.102043,1.442778,0.697755,0.095608,-0.038345,0.016175,-0.005048,-0.991817,0.127569,-0.002734,0.019588,-0.007559,-27.403732,-40.899200,4.943909,,,,,,
1478384891.75,-3.097311,1.441299,0.692312,0.107288,-0.027642,0.015158,-0.005716,-0.991627,0.129009,-0.008795,0.016651,-0.016644,-27.853836,-40.823898,5.239136,,,,,,
1478384891.77,-3.091231,1.439872,0.686250,0.125233,0.018223,0.007839,-0.006572,-0.991442,0.130385,-0.010167,0.013124,-0.021712,-27.403732,-40.899200,4.943909,,,,,,
1478384891.79,-3.089252,1.438513,0.685290,0.158084,0.066292,0.001619,-0.006900,-0.991263,0.131717,-0.000729,0.007712,-0.033085,-27.254303,-40.974045,5.095581,,,,,,
1478384891.81,-3.087788,1.436918,0.685414,0.189979,0.083499,0.002792,-0.007178,-0.991052,0.133285,-0.000344,0.017083,-0.039551,-27.254303,-40.974045,5.095581,,,,,,
1478384891.83,-3.086244,1.434219,0.685587,0.241104,0.084783,0.005022,-0.007532,-0.990688,0.135944,-0.000357,0.018001,-0.037785,-28.005737,-41.123535,5.613525,,,,,,
1478384891.85,-3.084586,1.430835,0.685694,0.283694,0.087039,0.001898,-0.007948,-0.990221,0.139278,-0.003404,0.019747,-0.043697,-26.953949,-40.748596,5.547913,,,,,,
1478384891.87,-3.080215,1.426281,0.682777,0.390326,0.056620,0.012687,-0.008834,-0.989576,0.143742,-0.010988,0.026792,-0.073048,-27.328384,-40.598526,5.618713,,,,,,
1478384891.89,-3.077192,1.420753,0.681407,0.445669,0.071845,0.019238,-0.009620,-0.988765,0.149171,-0.011178,0.021800,-0.094270,-27.556290,-40.972702,6.442566,,,,,,
1478384891.91,-3.072311,1.413118,0.678152,0.536061,0.127957,0.043057,-0.010870,-0.987595,0.156649,0.001715,0.044647,-0.017183,-27.556290,-40.972702,6.442566,,,,,,
1478384891.93,-3.077382,1.400841,0.686273,0.660509,0.141159,-0.051780,-0.010853,-0.985592,0.168789,-0.020321,0.050412,-0.098156,-28.156754,-40.972412,6.736572,,,,,,
1478384891.95,-3.081705,1.385936,0.692804,0.801387,0.083582,-0.002545,-0.011001,-0.982962,0.183480,-0.062561,0.019125,-0.072671,-27.631973,-40.972244,6.891846,,,,,,
1478384891.97,-3.088115,1.369749,0.701552,0.816065,0.125544,-0.067578,-0.010674,-0.979858,0.199410,-0.026435,0.037124,-0.023095,-27.481873,-40.897095,7.043091,,,,,,
1478384891.99,-3.095850,1.353837,0.712732,0.784953,0.191551,-0.070655,-0.009843,-0.976557,0.215036,-0.013426,0.039011,0.032263,-28.384338,-40.820236,8.908813,,,,,,
1478384892.01,-3.098791,1.338523,0.721277,0.763404,0.307955,-0.063998,-0.009850,-0.973146,0.229980,-0.009895,0.028855,0.088807,-28.384338,-40.820236,8.908813,,,,,,
1478384892.03,-3.099495,1.324898,0.729692,0.642707,0.403456,-0.071424,-0.010245,-0.969919,0.243212,0.015402,0.030847,0.122449,-27.932297,-40.445450,8.687195,,,,,,
1478384892.05,-3.099255,1.312988,0.737263,0.572592,0.347804,-0.063152,-0.010791,-0.966951,0.254733,0.024326,0.023088,0.070538,-27.482986,-40.445007,9.141724,,,,,,
1478384892.07,-3.097784,1.302524,0.742224,0.497169,0.297749,-0.031368,-0.011609,-0.964230,0.264812,0.050366,0.001340,0.071873,-27.182632,-40.219543,9.594055,,,,,,
,,,,,,,,,,,,,,,,37.354387,-122.033361,44.622070,0.000000,267.890625,1478384892.00
1478384892.09,-3.095697,1.293542,0.745605,0.430232,0.249630,-0.018796,-0.012558,-0.961811,0.273427,0.049393,-0.000103,0.081919,-28.158966,-40.218658,10.484314,,,,,,
1478384892.11,-3.092004,1.285727,0.747871,0.373471,0.344444,-0.014360,-0.013940,-0.959642,0.280878,-0.012900,0.016039,0.079794,-28.158966,-40.218658,10.484314,,,,,,
1478384892.13,-3.085359,1.279160,0.750436,0.305832,0.503105,-0.021520,-0.016160,-0.957775,0.287065,-0.012679,0.016796,0.041990,-27.783295,-40.143875,10.262817,,,,,,
1478384892.15,-3.076637,1.273782,0.751814,0.251638,0.478792,0.014645,-0.018997,-0.956215,0.292049,0.051681,-0.002098,0.025578,-27.407867,-40.068954,10.191345,,,,,,
1478384892.17,-3.066713,1.268819,0.749644,0.255355,0.342838,0.066630,-0.022249,-0.954750,0.296576,0.059038,0.025734,0.018656,-27.857849,-40.068954,10.186890,,,,,,
1478384892.19,-3.056151,1.263202,0.744832,0.277970,0.285757,0.104976,-0.025837,-0.953065,0.301662,0.013096,0.040162,-0.025310,-28.458633,-40.068436,10.705872,,,,,,
1478384892.21,-3.044687,1.256539,0.739163,0.349266,0.318256,0.123352,-0.029908,-0.951026,0.307660,0.002304,0.041297,-0.018292,-28.458633,-40.068436,10.705872,,,,,,
1478384892.23,-3.032904,1.249203,0.733334,0.357849,0.304543,0.134014,-0.034287,-0.948733,0.314214,0.019806,0.032519,0.001491,-28.306381,-39.693802,10.331299,,,,,,
1478384892.25,-3.021718,1.241857,0.726598,0.349719,0.191600,0.150784,-0.038631,-0.946385,0.320722,0.004589,0.030599,0.007053,-28.306046,-39.618805,10.331055,,,,,,
1478384892.27,-3.012909,1.234518,0.720283,0.348831,0.134987,0.146353,-0.042346,-0.943989,0.327248,-0.014493,0.017689,0.014930,-28.530243,-39.318436,10.702942,,,,,,
1478384892.29,-3.003597,1.227593,0.714722,0.323907,0.259609,0.134900,-0.046289,-0.941682,0.333306,-0.010886,0.027024,0.028479,-29.206039,-39.393143,10.996399,,,,,,
1478384892.31,-2.991427,1.220785,0.709530,0.327708,0.404844,0.142785,-0.051300,-0.939369,0.339050,0.034195,0.018989,0.013123,-29.206039,-39.393143,10.996399,,,,,,
1478384892.33,-2.978796,1.213561,0.702989,0.363470,0.235763,0.180845,-0.056676,-0.936867,0.345062,0.083608,0.013298,-0.025161,-28.980118,-39.168076,11.072998,,,,,,
1478384892.35,-2.971683,1.205019,0.696357,0.417703,-0.060636,0.185466,-0.060480,-0.933846,0.352525,0.022959,0.004311,-0.057084,-29.203674,-38.868149,10.994812,,,,,,
1478384892.37,-2.970563,1.195230,0.692030,0.485043,-0.150521,0.143667,-0.062428,-0.930300,0.361448,-0.097606,0.001162,-0.027494,-29.878876,-38.717560,11.587585,,,,,,
1478384892.39,-2.970077,1.185286,0.690991,0.493817,0.069631,0.079115,-0.064180,-0.926607,0.370514,-0.076399,-0.006956,0.005493,-29.202545,-38.342331,11.818237,,,,,,
1478384892.41,-2.968165,1.175372,0.693462,0.486673,0.278176,0.030528,-0.066470,-0.922833,0.379421,0.039294,-0.034076,0.045109,-29.202545,-38.342331,11.818237,,,,,,
1478384892.43,-2.964431,1.166412,0.694460,0.437068,0.159071,0.080330,-0.069341,-0.919345,0.387295,0.079061,-0.031934,0.042149,-29.428314,-38.417023,12.116211,,,,,,
1478384892.45,-2.962663,1.158289,0.692973,0.379208,-0.054281,0.104216,-0.071352,-0.916118,0.394507,0.063539,-0.008259,0.056741,-29.577286,-37.891129,13.013123,,,,,,
1478384892.47,-2.962489,1.150678,0.690033,0.343319,-0.140458,0.137038,-0.072661,-0.913041,0.401344,0.055769,-0.021530,0.058693,-30.178513,-38.040756,13.382568,,,,,,
1478384892.49,-2.961728,1.144212,0.685989,0.291138,-0.144896,0.139072,-0.074021,-0.910384,0.407089,-0.028152,0.021865,0.019303,-29.201630,-37.590683,13.466003,,,,,,
1478384892.51,-2.960391,1.137810,0.682681,0.300338,-0.037374,0.114810,-0.075614,-0.907717,0.412714,-0.071130,0.036058,0.014425,-29.201630,-37.590683,13.466003,,,,,,
1478384892.53,-2.958394,1.131624,0.680965,0.315921,0.066804,0.076660,-0.077459,-0.905104,0.418075,-0.034891,0.032103,-0.004776,-29.200943,-37.440674,13.465515,,,,,,
1478384892.55,-2.956968,1.125085,0.680614,0.320278,0.030372,0.062678,-0.079140,-0.902304,0.423774,-0.045143,0.033270,-0.017356,-30.252060,-37.364716,14.429871,,,,,,
1478384892.57,-2.958755,1.118154,0.680629,0.349685,-0.165808,0.067532,-0.079518,-0.899294,0.430054,0.007252,-0.000226,-0.031754,-29.348465,-36.614853,14.286621,,,,,,
1478384892.59,-2.964613,1.110553,0.680050,0.407030,-0.428934,0.087208,-0.078199,-0.895944,0.437228,0.067319,-0.035391,-0.088107,-29.648453,-36.539642,14.508362,,,,,,
1478384892.61,-2.975560,1.101398,0.679206,0.454649,-0.650504,0.104844,-0.074760,-0.891841,0.446129,0.036735,-0.030721,-0.044929,-29.648453,-36.539642,14.508362,,,,,,
1478384892.63,-2.987913,1.091430,0.677794,0.513355,-0.681103,0.115547,-0.070601,-0.887287,0.455781,-0.021013,0.008915,-0.015870,-29.498917,-36.464111,15.034668,,,,,,
1478384892.65,-2.999613,1.080557,0.676437,0.546137,-0.611744,0.105110,-0.066625,-0.882220,0.466100,-0.008708,0.019976,0.018123,-29.875809,-36.237152,16.980225,,,,,,
1478384892.67,-3.009668,1.069478,0.675139,0.541802,-0.548638,0.111658,-0.063217,-0.876950,0.476406,0.030487,-0.032947,0.049992,-29.124802,-35.936920,17.211792,,,,,,
1478384892.69,-3.019171,1.058637,0.672925,0.516432,-0.598620,0.133914,-0.059844,-0.871688,0.486393,0.060546,-0.061966,0.033291,-29.124130,-35.561249,17.885681,,,,,,
1478384892.71,-3.028845,1.047572,0.668579,0.576619,-0.734273,0.193477,-0.056218,-0.866212,0.496503,0.052067,-0.067305,-0.069746,-29.124130,-35.561249,17.885681,,,,,,
1478384892.73,-3.039918,1.033991,0.663896,0.729994,-0.739353,0.167019,-0.051906,-0.859347,0.508753,-0.019368,-0.089384,-0.133417,-28.675232,-35.560501,18.640076,,,,,,
1478384892.75,-3.054012,1.016420,0.663662,0.955458,-0.681271,0.045771,-0.046045,-0.850229,0.524395,-0.071860,-0.164862,-0.203747,-29.499786,-35.034241,19.905334,,,,,,
1478384892.77,-3.070700,0.994372,0.668143,1.220479,-0.671165,-0.084088,-0.038606,-0.838417,0.543661,-0.054030,-0.169838,-0.287695,-28.673859,-34.282578,21.561401,,,,,,
1478384892.79,-3.093454,0.966024,0.676797,1.547925,-0.847306,-0.191913,-0.027360,-0.822632,0.567916,-0.068572,-0.198441,-0.290160,-28.373444,-33.831528,22.612976,,,,,,
1478384892.81,-3.121613,0.932510,0.686465,1.759633,-1.108460,-0.233932,-0.011903,-0.803118,0.595701,-0.014449,-0.335142,-0.238096,-28.373444,-33.831528,22.612976,,,,,,
1478384892.83,3.129060,0.895166,0.694662,1.940682,-1.426984,-0.245177,0.007838,-0.780313,0.625340,0.127309,-0.474829,-0.378636,-27.173416,-33.229721,24.423218,,,,,,
1478384892.85,3.090919,0.852530,0.698901,2.256758,-1.949874,-0.165934,0.033333,-0.752948,0.657236,0.227318,-0.552564,-0.594644,-27.547836,-32.477844,26.292175,,,,,,
1478384892.87,3.046817,0.803844,0.698592,2.519937,-2.312137,-0.201731,0.065671,-0.720029,0.690829,0.158359,-0.671206,-0.705463,-24.844376,-30.373856,30.287903,,,,,,
1478384892.89,3.004254,0.751572,0.697728,2.646618,-2.008842,-0.310723,0.100027,-0.682788,0.723737,-0.035070,-0.747723,-0.667432,-22.816467,-28.796066,33.078430,,,,,,
1478384892.91,2.968552,0.695199,0.696878,2.914961,-1.724864,-0.472944,0.132220,-0.640538,0.756458,-0.213595,-0.786296,-0.532871,-22.816467,-28.796066,33.078430,,,,,,
1478384892.93,2.938648,0.631085,0.695861,3.286499,-1.384650,-0.604915,0.162733,-0.590021,0.790818,-0.320234,-0.776861,-0.209092,-22.063416,-27.293579,35.556396,,,,,,
1478384892.95,2.916947,0.562963,0.694008,3.306585,-1.039600,-0.669104,0.188384,-0.533695,0.824428,-0.314086,-0.748898,-0.017467,-19.881912,-25.266830,37.297241,,,,,,
1478384892.97,2.897132,0.501333,0.692849,2.750477,-1.015729,-0.641159,0.212249,-0.480595,0.850870,-0.271438,-0.891338,-0.321191,-18.223495,-22.714813,39.331085,,,,,,
1478384892.99,2.883306,0.458786,0.691777,1.607054,-0.443767,-0.374469,0.229011,-0.442860,0.866850,-0.297951,-0.665142,-0.110914,-16.710190,-18.736725,42.409363,,,,,,
1478384893.01,2.883627,0.438822,0.692287,0.667393,0.292513,-0.261894,0.230943,-0.424874,0.875299,-0.374009,-0.191917,0.262580,-16.710190,-18.736725,42.409363,,,,,,
1478384893.03,2.894303,0.429610,0.694663,0.321511,0.571081,-0.149545,0.222534,-0.416516,0.881472,-0.210968,-0.058917,-0.242541,-16.405457,-17.536285,42.858795,,,,,,
1478384893.05,2.898906,0.428368,0.691427,-0.242575,-0.027446,0.304044,0.218598,-0.415387,0.882988,-0.087770,-0.430545,-0.877205,-16.028000,-17.011353,42.786011,,,,,,
1478384893.07,2.902695,0.461348,0.687908,-2.243428,0.241938,0.699825,0.211892,-0.445156,0.870022,-0.019387,-0.517964,-0.319531,-16.252548,-17.011642,42.483734,,,,,,
1478384893.09,2.908026,0.515021,0.680610,-2.608301,-0.071976,1.065864,0.201426,-0.492554,0.846651,0.025534,0.062317,-0.242876,-17.687881,-19.562408,41.727020,,,,,,
,,,,,,,,,,,,,,,,37.354395,-122.033369,45.542236,0.980000,262.968750,1478384893.00
1478384893.11,2.908681,0.576789,0.671007,-3.183011,-0.226426,1.090082,0.193471,-0.545335,0.815585,0.180568,0.115342,-0.352587,-17.687881,-19.562408,41.727020,,,,,,
1478384893.13,2.907269,0.653022,0.666946,-3.916143,-0.165313,1.075084,0.184413,-0.607590,0.772545,0.116566,-0.103317,-0.161919,-17.393295,-21.138535,40.609711,,,,,,
1478384893.15,2.909141,0.744959,0.660391,-4.747925,-0.037731,1.473577,0.169344,-0.677942,0.715345,0.013685,0.017892,-0.114667,-17.702423,-23.765320,38.814545,,,,,,
1478384893.17,2.924313,0.853780,0.647518,-5.427954,0.523962,1.718608,0.141662,-0.753770,0.641688,0.028595,0.227265,0.079519,-18.312134,-26.542206,36.941711,,,,,,
1478384893.19,2.953452,0.972778,0.630834,-5.922510,0.915397,1.678225,0.105301,-0.826453,0.553071,0.055680,0.270133,0.163711,-19.672134,-29.544525,34.612183,,,,,,
1478384893.21,2.994661,1.102084,0.607010,-6.489811,1.098026,1.689493,0.066136,-0.892151,0.446870,0.122508,0.162888,0.380065,-19.672134,-29.544525,34.612183,,,,,,
1478384893.23,3.057851,1.240240,0.563923,-6.931321,1.183333,1.554338,0.027148,-0.945862,0.323432,0.233838,0.068894,0.566003,-22.608154,-34.878174,25.973755,,,,,,
1478384893.25,-3.120223,1.382330,0.475476,-7.071204,0.803278,1.227180,-0.004003,-0.982293,0.187310,0.277700,-0.040977,0.760078,-23.812012,-37.508499,20.644653,,,,,,
1478384893.27,-2.664987,1.512355,0.025434,-6.621739,0.090043,1.052916,-0.026795,-0.998293,0.051899,0.164613,-0.082243,0.909405,-25.385239,-39.089432,14.708679,,,,,,
1478384893.29,-0.611475,1.486786,-2.032162,-5.634787,-0.046633,1.094857,-0.048172,-0.996473,-0.068707,0.082321,-0.122133,1.039700,-26.956635,-40.069778,9.370850,,,,,,
1478384893.31,-0.399025,1.392966,-2.238341,-4.124362,0.628582,1.048058,-0.068727,-0.984230,-0.162998,0.063692,0.090355,1.279254,-26.956635,-40.069778,9.370850,,,,,,
1478384893.33,-0.366192,1.336307,-2.255990,-1.783968,0.834736,0.781317,-0.083194,-0.972633,-0.216941,0.119937,0.684135,1.283530,-28.066818,-39.929230,-0.090698,,,,,,
1478384893.35,-0.380243,1.334235,-2.228422,1.157636,0.348705,0.000876,-0.086982,-0.972150,-0.217621,-0.088296,0.944180,0.879105,-28.510727,-39.331497,-2.346863,,,,,,
1478384893.37,-0.439011,1.389664,-2.165311,3.681267,0.333384,-0.728782,-0.076569,-0.983640,-0.163061,-0.162292,0.371030,1.180151,-29.261627,-39.631790,-2.653503,,,,,,
1478384893.39,-0.525811,1.460179,-2.065907,2.547616,0.899434,-1.048656,-0.055407,-0.993888,-0.095480,-0.106900,-1.846032,-0.472788,-29.341125,-39.854477,-0.328613,,,,,,
1478384893.41,-0.763992,1.508911,-1.779087,2.788223,2.960864,-0.249797,-0.042786,-0.998086,-0.044658,0.197251,-0.393516,1.071468,-29.341125,-39.854477,-0.328613,,,,,,
1478384893.43,-1.883986,1.539699,-0.602776,2.885486,2.579532,-0.846856,-0.029580,-0.999517,0.009579,0.619942,0.639226,0.830173,-27.472885,-40.451752,2.391846,,,,,,
1478384893.45,-2.931794,1.504722,0.483953,2.691703,1.329412,-0.652974,-0.013751,-0.997818,0.064578,0.578631,0.301544,0.366498,-26.649918,-40.600845,3.300537,,,,,,
1478384893.47,-3.002678,1.458083,0.559648,2.157927,-0.435383,0.422486,-0.015574,-0.993655,0.111391,0.222621,-0.072630,0.382170,-27.179184,-40.974121,5.021362,,,,,,
1478384893.49,-3.018973,1.419083,0.553647,1.784184,-1.308523,0.072197,-0.018485,-0.988514,0.149998,0.008399,-0.117993,0.417980,-26.354630,-40.522461,6.678223,,,,,,
1478384893.51,-3.071997,1.389309,0.588068,1.338544,-0.641454,-0.135086,-0.012551,-0.983576,0.180056,-0.057654,-0.203420,0.275938,-26.354630,-40.522461,6.678223,,,,,,
1478384893.53,-3.079192,1.365279,0.596226,1.174223,0.488538,-0.000848,-0.012726,-0.978956,0.203676,-0.193878,-0.113391,0.269926,-26.505402,-40.070587,8.550354,,,,,,
1478384893.55,-3.084626,1.343055,0.618636,1.098412,0.750931,-0.254542,-0.012855,-0.974179,0.225411,-0.154824,0.084759,0.108741,-25.833557,-39.842804,11.331421,,,,,,
1478384893.57,-3.096474,1.322873,0.637381,0.956052,0.064352,-0.067568,-0.011068,-0.969424,0.245142,0.163976,-0.110471,0.072439,-26.958084,-39.617447,11.694519,,,,,,
1478384893.59,-3.104708,1.304315,0.635419,0.940073,-0.836376,0.108353,-0.009711,-0.964703,0.263160,0.209754,-0.033893,-0.072394,-26.282990,-39.391846,12.300537,,,,,,
1478384893.61,-3.119728,1.284515,0.631035,1.014921,-0.940055,0.070803,-0.006174,-0.959301,0.282319,-0.008353,0.093700,0.001128,-26.282990,-39.391846,12.300537,,,,,,
1478384893.63,-3.131880,1.264165,0.627632,1.004384,-0.655372,0.054473,-0.002932,-0.953356,0.301834,-0.135466,0.018007,0.014404,-26.358536,-39.165802,13.349182,,,,,,
1478384893.65,3.140191,1.244370,0.629085,0.998138,-0.425167,-0.057088,0.000449,-0.947194,0.320660,-0.117316,-0.012614,-0.015438,-26.509415,-38.488174,15.970581,,,,,,
1478384893.67,3.128769,1.223674,0.631965,1.060102,-0.476055,-0.048573,0.004362,-0.940355,0.340166,-0.042692,-0.011091,-0.071046,-25.759537,-38.262421,16.727417,,,,,,
1478384893.69,3.114704,1.202122,0.634342,1.077843,-0.668269,-0.071534,0.009689,-0.932806,0.360249,-0.016418,0.001287,-0.043965,-25.459427,-37.961594,17.554504,,,,,,
1478384893.71,3.098441,1.180786,0.636568,1.066266,-0.716448,-0.081302,0.016401,-0.924905,0.379844,-0.002241,0.004602,0.017540,-25.459427,-37.961594,17.554504,,,,,,
1478384893.73,3.080529,1.159325,0.639171,1.059014,-0.801329,-0.127490,0.024408,-0.916534,0.399212,-0.031717,0.029647,0.013568,-24.784760,-37.660461,18.685303,,,,,,
1478384893.75,3.061064,1.138474,0.643279,1.037491,-0.756072,-0.173345,0.033704,-0.907995,0.417623,-0.041165,-0.027003,0.033655,-24.484528,-37.209259,19.886963,,,,,,
1478384893.77,3.040023,1.116655,0.648747,1.102628,-0.836694,-0.242901,0.044481,-0.898638,0.436430,-0.038118,-0.089475,-0.078261,-23.960098,-36.607071,22.065369,,,,,,
1478384893.79,3.015906,1.091991,0.655873,1.297731,-0.934311,-0.346467,0.057754,-0.887546,0.457085,-0.064361,-0.078778,-0.226082,-23.135223,-36.230865,23.272522,,,,,,
1478384893.81,2.985980,1.060639,0.666656,1.655748,-1.058169,-0.553459,0.075682,-0.872668,0.482414,-0.168882,-0.043989,-0.339241,-23.135223,-36.230865,23.272522,,,,,,
1478384893.83,2.954917,1.021847,0.680259,1.951093,-0.901411,-0.743762,0.096841,-0.853073,0.512726,-0.159631,-0.258728,-0.324326,-22.685089,-35.779587,24.550720,,,,,,
1478384893.85,2.922311,0.976394,0.697564,2.270301,-0.922885,-1.032808,0.121819,-0.828483,0.546604,-0.155221,-0.376839,-0.426594,-21.785995,-35.327637,26.508362,,,,,,
1478384893.87,2.888456,0.922486,0.716472,2.626837,-0.915413,-1.233030,0.151227,-0.797105,0.584597,-0.267987,-0.458449,-0.522417,-19.607971,-33.599457,29.674927,,,,,,
1478384893.89,2.858370,0.860600,0.732451,2.952450,-0.851365,-1.332719,0.182197,-0.758234,0.626007,-0.413780,-0.812780,-0.622956,-17.955627,-32.322205,31.937683,,,,,,
1478384893.91,2.831973,0.795735,0.744007,3.040333,-0.995681,-1.292364,0.213214,-0.714378,0.666486,-0.253726,-1.337547,-0.683286,-17.955627,-32.322205,31.937683,,,,,,
1478384893.93,2.803667,0.729466,0.740315,3.293736,-1.967844,-0.659954,0.247166,-0.666472,0.703366,-0.227971,-1.136888,-0.920667,-17.202927,-30.894730,34.415894,,,,,,
1478384893.95,2.756131,0.661565,0.722501,3.460981,-3.580007,-0.603198,0.296665,-0.614353,0.731137,-0.509846,-0.519513,-0.360897,-15.472168,-28.942688,36.452332,,,,,,
1478384893.97,2.693927,0.592599,0.701884,3.383874,-3.424806,-0.539868,0.359056,-0.558519,0.747754,-0.598909,-0.583266,0.020053,-12.914444,-26.465424,38.720490,,,,,,
1478384893.99,2.664282,0.545549,0.675343,2.041702,-1.422427,0.276374,0.392708,-0.518888,0.759300,-0.338936,-0.611560,0.252617,-6.596725,-21.136246,42.892700,,,,,,
1478384894.01,2.661411,0.527858,0.644869,1.213590,-0.965635,0.986691,0.399065,-0.503684,0.766192,-0.121065,-0.403832,-0.017031,-6.596725,-21.136246,42.892700,,,,,,
1478384894.03,2.645652,0.518262,0.614055,0.745185,-1.768987,0.880029,0.413370,-0.495371,0.764024,-0.234399,-0.218618,-0.519639,-6.442764,-20.010498,43.640839,,,,,,
1478384894.05,2.641825,0.537616,0.595903,-1.107304,0.434914,1.395712,0.411619,-0.512089,0.753880,-0.544477,-0.627071,-0.632542,-5.013077,-18.885269,43.876740,,,,,,
1478384894.07,2.691500,0.581351,0.579570,-1.912184,2.723259,1.685875,0.363580,-0.549154,0.752489,-0.753335,-0.079371,0.029127,-4.413086,-18.885254,43.882751,,,,,,
1478384894.09,2.761791,0.637737,0.568014,-2.657176,3.403335,1.499476,0.297866,-0.595379,0.746190,-0.326736,0.196392,-0.125188,-10.273788,-21.811890,42.257935,,,,,,
,,,,,,,,,,,,,,,,37.354397,-122.033381,45.078308,0.730000,253.125000,1478384894.00
1478384894.11,2.841320,0.709807,0.559400,-3.757704,3.787232,1.553107,0.224346,-0.651688,0.724550,0.112568,-0.141632,-0.310533,-10.273788,-21.811890,42.257935,,,,,,
1478384894.13,2.914534,0.805590,0.546950,-4.875634,2.711974,1.755478,0.155933,-0.721239,0.674906,0.338925,-0.221555,-0.092158,-13.579620,-23.839096,40.055969,,,,,,
1478384894.15,2.966570,0.915153,0.523541,-5.397960,1.201754,1.807042,0.106162,-0.792656,0.600355,0.539697,0.140694,-0.076139,-16.287155,-26.542175,36.961975,,,,,,
1478384894.17,2.999693,1.030942,0.500205,-5.752954,0.456664,1.450727,0.072693,-0.857784,0.508844,0.480896,0.362865,0.121679,-18.544769,-29.470871,33.273193,,,,,,
1478384894.19,3.040670,1.154549,0.464742,-6.227190,0.626318,1.686490,0.040737,-0.914613,0.402274,0.199253,0.176957,0.414819,-20.203583,-32.549255,29.890869,,,,,,
1478384894.21,-3.130980,1.287458,0.371216,-6.762320,1.544794,2.006475,-0.002967,-0.960127,0.279547,0.168265,-0.069093,0.619532,-20.203583,-32.549255,29.890869,,,,,,
1478384894.23,-2.820272,1.417744,0.096288,-6.829171,2.306068,1.706089,-0.048148,-0.988310,0.144652,0.223777,-0.008226,0.950974,-23.208542,-36.833801,20.348633,,,,,,
1478384894.25,-1.737440,1.491022,-0.950084,-6.156312,1.853089,1.184624,-0.078586,-0.996820,0.013218,0.238070,0.010232,0.916194,-25.380295,-38.190033,14.106018,,,,,,
1478384894.27,-0.795669,1.432338,-1.860005,-4.839940,1.899459,1.082336,-0.098590,-0.990430,-0.096585,0.408725,-0.212787,0.921735,-26.949432,-38.946198,7.942627,,,,,,
1478384894.29,-0.570695,1.361017,-2.048325,-3.229835,1.979725,0.867400,-0.112497,-0.978077,-0.175243,0.333780,-0.105572,1.121379,-28.667328,-38.950943,3.200439,,,,,,
1478384894.31,-0.474444,1.316175,-2.109899,-1.574231,1.673186,0.327747,-0.115069,-0.967759,-0.224058,0.273349,0.470109,1.152022,-28.667328,-38.950943,3.200439,,,,,,
1478384894.33,-0.459539,1.311101,-2.098646,0.589315,0.965848,0.201354,-0.113894,-0.966468,-0.230147,0.072802,0.631248,0.758696,-29.626831,-37.908157,-4.012329,,,,,,
1478384894.35,-0.493270,1.341574,-2.051042,2.184272,0.583027,-0.451867,-0.107591,-0.973843,-0.200134,0.013688,0.518201,0.908462,-29.250610,-37.984207,-5.058350,,,,,,
1478384894.37,-0.575570,1.399927,-1.950039,3.450313,0.989730,-0.656888,-0.092554,-0.985437,-0.142643,0.059489,0.158625,0.956211,-29.477524,-38.058151,-4.010376,,,,,,
1478384894.39,-0.698931,1.454629,-1.801455,2.257613,1.473913,-0.754858,-0.074574,-0.993260,-0.088730,0.156636,-0.662685,-0.245651,-29.634689,-39.031281,-2.133972,,,,,,
1478384894.41,-0.936046,1.490536,-1.519010,2.106850,2.521477,-0.289611,-0.064558,-0.996781,-0.047541,0.224958,-1.129272,0.591105,-29.634689,-39.031281,-2.133972,,,,,,
1478384894.43,-1.389523,1.517344,-1.014858,2.171916,2.352698,-0.592326,-0.052552,-0.998572,-0.009632,0.576768,0.302695,0.686558,-27.240021,-39.629517,-0.383301,,,,,,
1478384894.45,-2.254863,1.513207,-0.115704,2.382249,1.040353,-0.284659,-0.044608,-0.998342,0.036373,0.801627,0.273489,0.591404,-27.242722,-40.154297,-0.156738,,,,,,
1478384894.47,-2.597492,1.481899,0.225405,1.762776,-0.810677,0.298940,-0.045957,-0.996051,0.075960,0.630628,-0.220868,0.191176,-27.622101,-40.602737,1.415833,,,,,,
1478384894.49,-2.707648,1.449647,0.305544,1.530529,-1.762735,0.354681,-0.050813,-0.992670,0.109652,0.003892,-0.026006,0.252180,-27.623001,-40.301224,2.914856,,,,,,
1478384894.51,-2.791929,1.423612,0.360368,1.252129,-1.147641,0.032156,-0.050241,-0.989188,0.137779,-0.367652,0.054404,0.332634,-27.623001,-40.301224,2.914856,,,,,,
1478384894.53,-2.844650,1.402795,0.411594,1.037681,0.540527,-0.078962,-0.048926,-0.985921,0.159894,-0.355783,-0.032145,0.318042,-27.398102,-39.624130,5.015076,,,,,,
1478384894.55,-2.870205,1.384790,0.458364,0.972790,1.126126,-0.168280,-0.049575,-0.982751,0.178167,-0.112213,-0.013969,0.020930,-27.627243,-39.696579,7.563049,,,,,,
1478384894.57,-2.892515,1.366000,0.497175,1.042311,0.425255,-0.082477,-0.050132,-0.979102,0.197092,0.112877,-0.028527,-0.116587,-28.002014,-39.621506,7.634094,,,,,,
1478384894.59,-2.924950,1.345068,0.523717,1.096068,-0.677086,-0.011694,-0.048110,-0.974631,0.218584,0.090499,-0.013543,-0.150500,-27.176346,-39.471497,7.641907,,,,,,
1478384894.61,-2.960540,1.323130,0.543061,1.143413,-0.824212,-0.015222,-0.044142,-0.969487,0.241135,-0.035280,0.043477,-0.038529,-27.176346,-39.471497,7.641907,,,,,,
1478384894.63,-2.990768,1.300754,0.562609,1.134425,-0.389798,-0.093106,-0.040083,-0.963760,0.263744,-0.104631,0.025344,0.046346,-26.952927,-39.320007,9.143677,,,,,,
1478384894.65,-3.013515,1.279476,0.582576,1.059930,-0.105687,-0.137328,-0.036686,-0.957866,0.284864,-0.071911,0.000575,0.062731,-27.404266,-38.717300,11.837341,,,,,,
1478384894.67,-3.032857,1.259611,0.599239,0.994409,-0.257198,-0.115422,-0.033228,-0.951971,0.304379,0.041849,-0.004266,0.090473,-26.955719,-38.716324,12.816833,,,,,,
1478384894.69,-3.053862,1.240637,0.610039,0.963147,-0.736582,-0.043097,-0.028405,-0.945991,0.322947,0.132440,-0.034707,0.036977,-26.279602,-38.265717,13.422180,,,,,,
1478384894.71,-3.077520,1.220907,0.613576,0.973055,-1.121789,0.044540,-0.021949,-0.939411,0.342091,0.073859,-0.122433,-0.057270,-26.279602,-38.265717,13.422180,,,,,,
1478384894.73,-3.100507,1.202376,0.615273,0.935269,-0.996749,-0.017150,-0.014792,-0.932897,0.359839,-0.087182,-0.058695,-0.052588,-26.505600,-38.114594,14.544495,,,,,,
1478384894.75,-3.122159,1.182482,0.621089,1.037499,-0.704090,-0.115531,-0.007358,-0.925549,0.378557,-0.147718,0.037609,-0.071016,-26.206268,-37.888474,15.671814,,,,,,
1478384894.77,3.138524,1.159668,0.631910,1.218146,-0.631454,-0.254980,0.001227,-0.916670,0.399642,-0.155661,0.062361,-0.169326,-25.608276,-37.510986,18.151733,,,,,,
1478384894.79,3.111371,1.132537,0.646082,1.437942,-0.779997,-0.341548,0.012823,-0.905492,0.424170,-0.136755,-0.005656,-0.226248,-25.158630,-37.209854,19.280273,,,,,,
1478384894.81,3.079627,1.100603,0.660123,1.675317,-1.084047,-0.409282,0.028056,-0.891481,0.452189,-0.120250,-0.076812,-0.283946,-25.158630,-37.209854,19.280273,,,,,,
1478384894.83,3.042012,1.063338,0.674485,1.914503,-1.319480,-0.539861,0.048312,-0.873982,0.483550,-0.073672,-0.169231,-0.273040,-24.258423,-36.683426,20.712708,,,,,,
1478384894.85,3.002133,1.022108,0.689261,2.052884,-1.348253,-0.668979,0.072502,-0.853209,0.516505,-0.016579,-0.273591,-0.241267,-24.260422,-36.456406,22.737000,,,,,,
1478384894.87,2.962965,0.977191,0.706489,2.211640,-1.147903,-0.919231,0.099386,-0.828929,0.550453,-0.059438,-0.252217,-0.257591,-21.483521,-34.802704,26.434814,,,,,,
1478384894.89,2.927415,0.926944,0.726534,2.439335,-0.839143,-1.138080,0.127586,-0.799789,0.586565,-0.210609,-0.319077,-0.373553,-20.133774,-34.200745,28.396545,,,,,,
1478384894.91,2.898122,0.870846,0.746276,2.686723,-0.654258,-1.281378,0.155294,-0.764874,0.625181,-0.329214,-0.600055,-0.503508,-20.133774,-34.200745,28.396545,,,,,,
1478384894.93,2.871876,0.808860,0.760840,2.988074,-0.901753,-1.190719,0.183942,-0.723500,0.665366,-0.308881,-1.132472,-0.890021,-19.081299,-33.074005,30.128601,,,,,,
1478384894.95,2.845928,0.745593,0.760167,3.124381,-1.617257,-0.653965,0.214070,-0.678408,0.702807,-0.272084,-1.119230,-0.861254,-18.554581,-31.946762,32.380493,,,,,,
1478384894.97,2.813751,0.678407,0.744878,3.510798,-2.405896,-0.421478,0.250701,-0.627553,0.737106,-0.265975,-0.644190,-0.193466,-16.223541,-29.994934,34.197998,,,,,,
1478384894.99,2.761793,0.610831,0.727077,3.258513,-3.509691,-0.555301,0.303696,-0.573548,0.760797,-0.369659,-0.671172,-0.166665,-12.385269,-25.339813,39.322388,,,,,,
1478384895.01,2.706382,0.556193,0.710569,2.502361,-2.784692,-0.283243,0.358054,-0.527957,0.770103,-0.446372,-0.833539,-0.086326,-12.385269,-25.339813,39.322388,,,,,,
1478384895.03,2.686775,0.522617,0.688261,1.540322,-0.822722,0.336961,0.380659,-0.499149,0.778427,-0.462629,-0.468990,0.179993,-9.602646,-22.937698,41.443024,,,,,,
1478384895.05,2.691719,0.509569,0.668697,0.646704,-0.119408,0.533930,0.379606,-0.487801,0.786098,-0.406995,-0.127662,0.228902,-7.721481,-21.136414,42.731415,,,,,,
1478384895.07,2.689944,0.510716,0.655738,-0.170119,-0.509499,0.560284,0.380756,-0.488802,0.784919,-0.462391,-0.237653,-0.520118,-6.515732,-19.635727,43.413971,,,,,,
1478384895.09,2.695263,0.543212,0.651778,-2.027132,0.794900,1.083100,0.369522,-0.516889,0.772191,-0.534302,-0.613437,-0.596639,-6.892212,-20.086105,43.036591,,,,,,
,,,,,,,,,,,,,,,,37.354398,-122.033394,44.665955,0.730000,248.906250,1478384895.00
1478384895.11,2.735649,0.597156,0.647319,-2.519809,2.391546,1.347330,0.326546,-0.562293,0.759733,-0.400917,0.006263,0.017840,-6.892212,-20.086105,43.036591,,,,,,
1478384895.13,2.788595,0.660641,0.645860,-3.239163,2.712941,1.141825,0.272974,-0.613623,0.740913,-0.351373,0.267676,-0.321098,-9.599731,-22.112183,41.965546,,,,,,
1478384895.15,2.846999,0.741535,0.648394,-4.247039,3.141871,1.273736,0.214114,-0.675421,0.705664,-0.109790,0.027487,-0.213919,-11.405655,-24.064072,40.078369,,,,,,
1478384895.17,2.908875,0.840128,0.644961,-5.006141,2.762336,1.450867,0.153910,-0.744729,0.649377,0.118673,0.019036,-0.035699,-14.639526,-26.841492,37.654358,,,,,,
1478384895.19,2.965564,0.952298,0.633335,-5.651824,2.164973,1.491905,0.101538,-0.814750,0.570852,0.390680,0.140373,0.059717,-20.653000,-32.399185,29.960876,,,,,,
1478384895.21,3.019094,1.073994,0.612078,-6.117485,1.531007,1.449820,0.058239,-0.879111,0.473046,0.343098,0.225409,0.255028,-20.653000,-32.399185,29.960876,,,,,,
1478384895.23,3.084758,1.204709,0.569750,-6.618558,1.337387,1.477263,0.020334,-0.933735,0.357387,0.254034,0.092670,0.531422,-22.908401,-35.103699,25.446411,,,,,,
1478384895.25,-3.066049,1.342426,0.461263,-7.035419,1.477607,1.553850,-0.017086,-0.974037,0.225744,0.294460,-0.142983,0.695642,-23.809311,-37.134171,19.968506,,,,,,
1478384895.27,-2.605654,1.468788,0.026574,-6.820433,1.519533,1.512671,-0.052000,-0.994802,0.087554,0.343123,-0.196254,0.935151,-25.381195,-38.339890,14.256470,,,,,,
1478384895.29,-1.153333,1.479038,-1.404716,-5.615386,1.168764,1.608892,-0.083760,-0.995793,-0.037150,0.236317,-0.279781,1.005962,-27.100433,-39.095978,8.166504,,,,,,
1478384895.31,-0.727187,1.400357,-1.808302,-3.725352,1.344537,1.440647,-0.112755,-0.985510,-0.126711,0.406838,-0.139108,1.250246,-27.100433,-39.095978,8.166504,,,,,,
1478384895.33,-0.625187,1.347011,-1.886641,-1.792145,1.160400,0.877240,-0.129880,-0.975064,-0.179946,0.524243,0.465543,1.282623,-29.481232,-38.130905,-1.760193,,,,,,
1478384895.35,-0.619121,1.335035,-1.871905,0.457466,0.899880,0.163526,-0.135553,-0.972337,-0.190228,0.258493,0.703782,1.125485,-30.448669,-37.383682,-4.547119,,,,,,
1478384895.37,-0.669876,1.369759,-1.802090,2.659180,0.888272,-0.690619,-0.123983,-0.979860,-0.156534,0.303762,0.657365,1.129205,-30.821976,-37.309601,-5.450989,,,,,,
1478384895.39,-0.887437,1.434685,-1.566488,3.848588,0.586380,-0.963965,-0.105223,-0.990751,-0.085676,0.312880,0.210768,0.635679,-31.350922,-37.683105,-3.955200,,,,,,
1478384895.41,-1.219463,1.476377,-1.217115,2.685263,0.851990,-0.431047,-0.088520,-0.995546,-0.032446,0.489811,-1.701552,-0.071359,-31.350922,-37.683105,-3.955200,,,,,,
1478384895.43,-1.795696,1.484681,-0.618492,2.418361,1.331555,-0.490024,-0.083843,-0.996294,0.019181,0.104366,-0.239713,0.735321,-29.413071,-39.179474,-0.331360,,,,,,
1478384895.45,-2.319253,1.478459,-0.055935,2.415695,1.951792,-0.914623,-0.067563,-0.995740,0.062747,0.224073,0.519437,0.610348,-28.815094,-39.178116,1.024597,,,,,,
1478384895.47,-2.631209,1.444833,0.288747,2.364021,1.158039,-0.170069,-0.061372,-0.992077,0.109620,0.143770,0.276516,0.256225,-28.668930,-39.852585,1.553101,,,,,,
1478384895.49,-2.761719,1.407985,0.429149,1.952106,0.061492,-0.183418,-0.060105,-0.986775,0.150538,0.129944,-0.049937,0.370534,-28.747406,-40.075943,3.203003,,,,,,
1478384895.51,-2.854661,1.377064,0.518661,1.607138,-0.330567,-0.201123,-0.054486,-0.981293,0.184652,0.121502,-0.119675,0.245753,-28.747406,-40.075943,3.203003,,,,,,
1478384895.53,-2.900849,1.348922,0.560752,1.396915,-0.125168,-0.003265,-0.052467,-0.975487,0.213712,0.030189,-0.083061,0.217624,-27.996185,-39.399734,4.408447,,,,,,
1478384895.55,-2.928363,1.324558,0.593651,1.227789,0.368260,-0.182765,-0.051583,-0.969836,0.238237,-0.105262,-0.007962,0.135299,-27.626114,-39.622101,7.037842,,,,,,
1478384895.57,-2.957157,1.302549,0.628007,1.123196,0.103293,-0.177266,-0.048607,-0.964237,0.260547,-0.013100,-0.100460,0.047666,-28.452911,-39.620911,8.229553,,,,,,
1478384895.59,-2.980778,1.281556,0.648698,1.057859,-0.388566,-0.061206,-0.045671,-0.958461,0.281544,0.134156,-0.052739,0.056911,-28.078918,-39.620239,8.908264,,,,,,
1478384895.61,-3.004840,1.260809,0.661134,1.068511,-0.697511,-0.021437,-0.041586,-0.952338,0.302198,0.055792,0.063940,0.041948,-28.078918,-39.620239,8.908264,,,,,,
1478384895.63,-3.028156,1.239593,0.671165,1.069430,-0.654886,-0.026661,-0.036809,-0.945652,0.323092,-0.019786,0.041492,0.019880,-27.929474,-39.544632,9.509583,,,,,,
1478384895.65,-3.048393,1.218314,0.680295,1.079657,-0.537820,-0.056237,-0.032129,-0.938519,0.343730,-0.047919,-0.000919,0.003636,-27.331497,-39.167160,11.989380,,,,,,
1478384895.67,-3.066823,1.197407,0.689792,1.039991,-0.476470,-0.089258,-0.027249,-0.931096,0.363755,-0.029255,-0.027247,0.016174,-27.707169,-38.865814,13.334778,,,,,,
1478384895.69,-3.086623,1.177008,0.698371,1.024603,-0.661207,-0.095135,-0.021081,-0.923462,0.383110,0.015313,0.015824,0.003822,-26.656937,-38.565048,14.094421,,,,,,
1478384895.71,-3.107863,1.156739,0.706522,1.027880,-0.678658,-0.132593,-0.013568,-0.915496,0.402098,-0.013761,0.048904,0.023454,-26.656937,-38.565048,14.094421,,,,,,
1478384895.73,-3.128048,1.136190,0.715386,1.031670,-0.551034,-0.169630,-0.005703,-0.907036,0.421015,-0.041264,-0.005074,0.003958,-26.656494,-38.113998,15.143066,,,,,,
1478384895.75,3.138383,1.115715,0.723368,1.022851,-0.454910,-0.159765,0.001411,-0.898225,0.439533,-0.016364,-0.076781,-0.020405,-26.205948,-37.587799,16.345947,,,,,,
1478384895.77,3.121088,1.094723,0.730116,1.078899,-0.664051,-0.176269,0.009397,-0.888801,0.458197,0.012546,-0.080651,-0.078695,-26.283966,-37.585770,18.370178,,,,,,
1478384895.79,3.097528,1.071545,0.737200,1.195976,-0.977786,-0.213255,0.021090,-0.877941,0.478303,-0.018480,-0.114673,-0.176103,-25.233749,-37.059341,19.804016,,,,,,
1478384895.81,3.070133,1.045476,0.743807,1.370140,-1.165614,-0.269027,0.035806,-0.865163,0.500211,-0.043923,-0.137980,-0.276089,-25.233749,-37.059341,19.804016,,,,,,
1478384895.83,3.037137,1.014811,0.753133,1.606695,-1.273677,-0.455886,0.055029,-0.849381,0.524903,-0.064169,-0.144103,-0.206300,-24.709976,-36.908066,21.083862,,,,,,
1478384895.85,2.999617,0.977903,0.766703,1.882498,-1.339137,-0.661792,0.079064,-0.829327,0.553141,-0.075830,-0.265613,-0.376734,-24.184296,-36.231476,22.662048,,,,,,
1478384895.87,2.960847,0.935096,0.782043,2.153551,-1.256346,-0.872640,0.106733,-0.804656,0.584069,-0.210492,-0.309068,-0.454873,-21.709763,-35.102783,26.358398,,,,,,
1478384895.89,2.924758,0.884627,0.800166,2.496372,-0.992511,-1.136287,0.136308,-0.773679,0.618742,-0.328507,-0.404483,-0.530805,-20.584213,-34.350891,28.242432,,,,,,
1478384895.91,2.894151,0.826948,0.815265,2.796944,-1.033840,-1.116646,0.165844,-0.735868,0.656501,-0.216137,-0.762499,-0.727561,-20.584213,-34.350891,28.242432,,,,,,
1478384895.93,2.856533,0.765505,0.823713,2.955577,-1.979531,-1.096535,0.202765,-0.692901,0.691935,-0.057105,-1.220475,-0.941248,-19.457977,-33.449020,30.125977,,,,,,
1478384895.95,2.806389,0.701724,0.819462,3.235554,-2.993654,-0.590268,0.251238,-0.645535,0.721224,-0.205233,-1.051196,-0.654665,-18.330612,-32.021317,32.833008,,,,,,
1478384895.97,2.755943,0.631569,0.796905,3.777869,-3.245102,-0.369922,0.303600,-0.590412,0.747824,-0.570461,-0.587155,0.106012,-12.919159,-27.816315,37.824524,,,,,,
1478384895.99,2.705840,0.563474,0.772368,3.239314,-3.115032,-0.479480,0.356839,-0.534127,0.766404,-0.623471,-0.712867,0.038299,-10.284042,-24.663605,40.541351,,,,,,
1478384896.01,2.666566,0.510180,0.754233,2.430939,-1.820643,-0.406809,0.399120,-0.488334,0.776037,-0.588649,-0.838326,0.165751,-10.284042,-24.663605,40.541351,,,,,,
1478384896.03,2.659028,0.478532,0.741399,1.167784,-0.133967,-0.137262,0.411926,-0.460477,0.786306,-0.497208,-0.450473,0.196329,-7.350769,-22.261917,42.213501,,,,,,
1478384896.05,2.664772,0.468896,0.734193,0.315289,0.112380,0.204897,0.409420,-0.451902,0.792565,-0.326916,-0.156619,0.142295,-6.669800,-20.460510,43.639923,,,,,,
1478384896.07,2.667769,0.470611,0.722676,0.078429,-0.203981,0.683336,0.406689,-0.453431,0.793098,-0.195934,-0.124267,-0.548912,-6.441635,-19.785568,43.565155,,,,,,
,,,,,,,,,,,,,,,,37.354398,-122.033401,45.172791,0.670000,286.523438,1478384896.00
1478384896.09,2.676137,0.491459,0.708363,-1.198020,0.456124,1.223553,0.395709,-0.471913,0.787853,-0.295123,-0.214519,-0.467052,-6.892197,-19.785202,43.935669,,,,,,
1478384896.11,2.704588,0.534851,0.697315,-1.915733,1.463600,1.457992,0.364121,-0.509713,0.779493,-0.345765,0.099556,-0.229795,-6.892197,-19.785202,43.935669,,,,,,
1478384896.13,2.747305,0.585150,0.683680,-2.200593,1.987003,1.590352,0.320239,-0.552325,0.769665,-0.431369,0.171282,-0.312512,-8.697021,-21.136032,43.096680,,,,,,
1478384896.15,2.805752,0.649253,0.670001,-3.251537,2.877652,1.707431,0.262509,-0.604592,0.752036,-0.230633,-0.025139,-0.273780,-10.952072,-22.637177,41.953613,,,,,,
1478384896.17,2.878157,0.733371,0.655336,-4.129029,3.174681,1.833864,0.193456,-0.669378,0.717292,0.035380,-0.071467,-0.138084,-12.981903,-24.288925,40.213257,,,,,,
1478384896.19,2.953025,0.830758,0.631991,-4.870030,2.745877,1.900843,0.126402,-0.738443,0.662363,0.266481,0.056298,-0.075770,-19.293991,-29.020050,34.089355,,,,,,
1478384896.21,3.024341,0.941805,0.600413,-5.583821,2.055750,1.790861,0.068825,-0.808621,0.584290,0.370598,0.142697,-0.015076,-19.293991,-29.020050,34.089355,,,,,,
1478384896.23,3.099161,1.062300,0.549745,-6.109930,1.396361,1.872537,0.020652,-0.873478,0.486426,0.285103,0.138050,0.232217,-22.525269,-31.723984,30.165161,,,,,,
1478384896.25,-3.077198,1.192444,0.459495,-6.796385,1.178844,1.833349,-0.023770,-0.929274,0.368625,0.339917,-0.111985,0.628736,-24.177872,-33.828568,25.579895,,,,,,
1478384896.27,-2.877129,1.326892,0.272710,-7.121232,1.082855,1.671188,-0.063124,-0.970402,0.233097,0.471327,-0.217342,0.645534,-26.128998,-35.783676,20.466309,,,,,,
1478384896.29,-2.347741,1.429212,-0.247447,-6.460312,0.701162,1.849715,-0.100621,-0.989994,0.098934,0.304646,-0.044796,1.036839,-27.477325,-37.289307,14.832397,,,,,,
1478384896.31,-1.486268,1.431134,-1.103690,-4.821225,0.786590,1.789764,-0.138711,-0.990263,-0.011753,0.340204,-0.327577,1.049091,-27.477325,-37.289307,14.832397,,,,,,
1478384896.33,-1.056843,1.383357,-1.509080,-3.253189,1.753328,1.028024,-0.162270,-0.982485,-0.091611,0.482552,-0.157225,1.388623,-31.663681,-37.674545,4.591675,,,,,,
1478384896.35,-0.896009,1.347204,-1.634784,-1.261287,1.953683,0.652751,-0.173139,-0.975107,-0.138524,0.430646,0.631678,1.411367,-32.330017,-36.928085,1.057739,,,,,,
1478384896.37,-0.888209,1.348809,-1.601760,1.353237,2.073087,-0.261215,-0.170839,-0.975462,-0.138883,0.217546,1.016676,1.000684,-32.623489,-36.405869,-1.721802,,,,,,
1478384896.39,-0.982106,1.391167,-1.456019,2.927683,2.704740,-1.026003,-0.148590,-0.983910,-0.099208,0.143128,0.515175,1.515239,-32.622147,-36.481995,-2.846497,,,,,,
1478384896.41,-1.205291,1.438819,-1.182527,2.259599,2.024945,-1.178614,-0.122902,-0.991304,-0.047035,0.601356,-0.167571,-0.171990,-32.622147,-36.481995,-2.846497,,,,,,
1478384896.43,-1.543644,1.460862,-0.807052,3.219139,1.265669,-0.186469,-0.109673,-0.993963,-0.002979,0.523033,-1.830240,0.739749,-31.131302,-38.206070,-1.926453,,,,,,
1478384896.45,-1.951560,1.461065,-0.377864,1.790556,0.782221,-0.548206,-0.101669,-0.993986,0.040698,0.827178,-0.149813,0.480771,-30.308350,-38.279938,-0.793030,,,,,,
1478384896.47,-2.253596,1.441532,-0.070739,2.124055,-0.167233,0.262832,-0.100006,-0.991657,0.081335,0.294677,0.479480,0.408732,-30.162384,-38.954254,-0.114563,,,,,,
1478384896.49,-2.417206,1.408182,0.085245,1.941525,-0.660739,0.366931,-0.107286,-0.986807,0.121247,0.060533,0.288809,0.364761,-30.615189,-38.877151,1.980713,,,,,,
1478384896.51,-2.551917,1.380279,0.203314,1.498687,-1.009155,-0.164736,-0.105305,-0.981906,0.157387,-0.175502,-0.192761,0.190773,-30.615189,-38.877151,1.980713,,,,,,
1478384896.53,-2.624649,1.360262,0.264874,1.118831,-0.322287,0.192278,-0.103285,-0.977919,0.181676,0.000135,-0.244050,0.226985,-30.765274,-38.350510,3.627625,,,,,,
1478384896.55,-2.672145,1.338312,0.310274,1.210521,-0.152477,-0.092364,-0.104229,-0.973097,0.205471,-0.182178,0.132567,0.001698,-30.095108,-38.497726,6.409790,,,,,,
1478384896.57,-2.734996,1.318066,0.369483,1.236510,-0.329646,-0.192170,-0.098891,-0.968233,0.229663,-0.108583,-0.057813,-0.050707,-30.096344,-38.271225,7.909119,,,,,,
1478384896.59,-2.785568,1.297145,0.414667,1.159848,-0.339487,-0.188057,-0.094196,-0.962790,0.253302,-0.035245,-0.053308,-0.002340,-30.547562,-38.270416,8.729553,,,,,,
1478384896.61,-2.832991,1.276674,0.458724,1.179467,-0.181253,-0.258103,-0.088050,-0.957057,0.276205,-0.035943,0.060374,0.055796,-30.547562,-38.270416,8.729553,,,,,,
1478384896.63,-2.870632,1.256039,0.495719,1.121796,-0.119140,-0.221706,-0.082863,-0.950871,0.298290,0.061852,0.027165,0.060993,-29.796448,-37.669357,9.785278,,,,,,
1478384896.65,-2.902437,1.235554,0.523088,1.098483,-0.437076,-0.120053,-0.077934,-0.944331,0.319634,0.108329,-0.001577,-0.000161,-29.199722,-37.742401,11.741516,,,,,,
1478384896.67,-2.934111,1.214383,0.541610,1.109534,-0.856696,-0.054946,-0.071875,-0.937154,0.341432,0.075461,-0.017207,-0.023683,-29.651169,-37.590988,13.161499,,,,,,
1478384896.69,-2.967618,1.192856,0.556751,1.106734,-0.988208,-0.075612,-0.063874,-0.929427,0.363437,-0.014830,-0.016664,-0.008548,-29.351501,-37.365082,14.063843,,,,,,
1478384896.71,-2.999648,1.171792,0.572171,1.068806,-0.804602,-0.152118,-0.054961,-0.921448,0.384594,-0.079958,-0.006073,0.026935,-29.351501,-37.365082,14.063843,,,,,,
1478384896.73,-3.026519,1.151660,0.586966,1.023379,-0.598955,-0.163384,-0.046728,-0.913441,0.404280,-0.029535,-0.015530,0.062608,-28.301498,-36.913712,15.422913,,,,,,
1478384896.75,-3.050722,1.131849,0.599993,1.009773,-0.673706,-0.163613,-0.038566,-0.905199,0.423233,0.095405,-0.031110,-0.000946,-27.852844,-36.461472,17.676086,,,,,,
1478384896.77,-3.077700,1.110961,0.610631,1.104634,-1.012560,-0.152628,-0.028336,-0.896125,0.442895,0.072449,-0.032601,-0.116693,-28.079086,-36.234970,19.173096,,,,,,
1478384896.79,-3.110789,1.087384,0.621715,1.243667,-1.214572,-0.223458,-0.014315,-0.885414,0.464583,-0.057828,-0.059105,-0.195693,-26.953186,-35.784210,19.933044,,,,,,
1478384896.81,3.137512,1.060308,0.633559,1.444930,-1.224252,-0.292581,0.001994,-0.872506,0.488600,-0.168543,-0.072105,-0.222135,-26.953186,-35.784210,19.933044,,,,,,
1478384896.83,3.101008,1.027337,0.647080,1.762245,-1.255875,-0.448106,0.020981,-0.855925,0.516674,-0.135193,-0.147508,-0.342800,-26.353973,-35.407562,21.587952,,,,,,
1478384896.85,3.062033,0.988272,0.664007,2.036638,-1.212428,-0.648373,0.043722,-0.835077,0.548393,-0.168020,-0.215704,-0.378883,-25.378540,-34.806046,23.095886,,,,,,
1478384896.87,3.021636,0.941332,0.685318,2.422513,-1.104732,-0.954042,0.070451,-0.808343,0.584482,-0.221971,-0.301215,-0.454690,-24.179642,-33.752136,27.004700,,,,,,
1478384896.89,2.982533,0.885780,0.707624,2.793958,-1.066583,-1.092186,0.100211,-0.774408,0.624699,-0.260184,-0.600241,-0.585652,-22.153900,-32.849945,29.197205,,,,,,
1478384896.91,2.946993,0.824340,0.724310,2.976743,-1.250309,-1.075279,0.131309,-0.734100,0.666225,-0.159767,-1.076035,-0.692180,-22.153900,-32.849945,29.197205,,,,,,
1478384896.93,2.903327,0.758560,0.735590,3.277228,-2.237885,-1.032599,0.171308,-0.687877,0.705322,0.026507,-1.419408,-1.204864,-21.325623,-31.347610,31.526001,,,,,,
1478384896.95,2.851651,0.688357,0.725296,3.638240,-3.152569,-0.267360,0.220795,-0.635270,0.740056,-0.342331,-0.900482,-0.482792,-19.598267,-30.145569,33.564697,,,,,,
1478384896.97,2.805200,0.615108,0.699699,3.808664,-3.102810,-0.175042,0.269583,-0.577047,0.770936,-0.477973,-0.603846,0.149612,-14.333435,-24.964920,39.226776,,,,,,
1478384896.99,2.759647,0.548854,0.674917,3.174692,-2.720684,-0.147315,0.317982,-0.521710,0.791648,-0.477223,-0.865986,-0.131446,-11.398544,-21.962494,41.647125,,,,,,
1478384897.01,2.739167,0.503821,0.649168,2.080984,-0.926615,0.394203,0.342987,-0.482775,0.805784,-0.449218,-0.663099,0.114550,-11.398544,-21.962494,41.647125,,,,,,
1478384897.03,2.749188,0.481808,0.623268,1.169376,0.125976,0.713902,0.338877,-0.463382,0.818804,-0.306696,-0.224255,0.160597,-9.665253,-19.485611,43.532043,,,,,,
1478384897.05,2.756318,0.471304,0.598135,0.795764,-0.528248,0.912316,0.334841,-0.454049,0.825664,-0.138430,-0.154853,-0.256847,-10.032806,-17.609940,44.197723,,,,,,
1478384897.07,2.751109,0.475230,0.574548,-0.432342,-0.784846,1.164826,0.338456,-0.457543,0.822254,-0.146333,-0.452643,-0.739597,-9.880432,-17.009705,44.422455,,,,,,
1478384897.09,2.754063,0.514723,0.558794,-1.979641,0.188705,1.498160,0.328938,-0.492294,0.805883,-0.263310,-0.259385,-0.349798,-9.579895,-16.934875,44.275238,,,,,,
1478384897.11,2.776858,0.568392,0.543407,-2.448746,1.042665,1.667436,0.300616,-0.538277,0.787329,-0.345630,0.265847,-0.126624,-9.579895,-16.934875,44.275238,,,,,,
1478384897.13,2.816608,0.633654,0.527471,-3.089274,1.827680,1.746476,0.257309,-0.592094,0.763687,-0.289963,0.333549,-0.199523,-10.260727,-18.360245,43.897705,,,,,,
,,,,,,,,,,,,,,,,37.354402,-122.033408,45.296814,0.570000,257.343750,1478384897.00
1478384897.15,2.873004,0.713408,0.510601,-3.992896,2.606448,1.831451,0.200657,-0.654414,0.729026,-0.153644,0.156139,-0.208442,-12.594711,-20.761459,42.681580,,,,,,
1478384897.17,2.946580,0.811823,0.489936,-4.957363,3.071728,1.866311,0.133354,-0.725543,0.675133,0.031090,0.068576,-0.108177,-14.324081,-22.488708,40.419464,,,,,,
1478384897.19,3.028541,0.923731,0.459165,-5.634144,2.813339,1.797112,0.068008,-0.797857,0.598999,0.236451,0.175863,0.107712,-20.792267,-28.795517,33.623718,,,,,,
1478384897.21,3.117346,1.046890,0.415257,-6.335449,2.463805,1.520346,0.012129,-0.865872,0.500119,0.374971,0.202740,0.266070,-20.792267,-28.795517,33.623718,,,,,,
1478384897.23,-3.059453,1.181225,0.342499,-6.991778,1.763549,1.348467,-0.031161,-0.925072,0.378511,0.383639,-0.020393,0.478545,-23.949142,-31.724747,29.400879,,,,,,
1478384897.25,-2.878179,1.319792,0.181366,-7.361913,1.225690,1.282239,-0.064672,-0.968663,0.239810,0.499715,-0.151866,0.739423,-26.277512,-34.430603,23.535706,,,,,,
1478384897.27,-2.373281,1.436774,-0.311156,-7.050885,0.902317,1.271206,-0.092856,-0.991032,0.096085,0.392371,-0.165431,1.039855,-27.250748,-36.011536,17.605774,,,,,,
1478384897.29,-1.320700,1.445366,-1.352000,-5.751633,1.134138,1.512362,-0.121210,-0.992144,-0.030962,0.134439,-0.299619,1.117220,-28.300293,-37.817245,11.900635,,,,,,
1478384897.31,-0.857018,1.374136,-1.782791,-3.986480,2.381147,1.371421,-0.147698,-0.980725,-0.127924,0.236428,-0.152546,1.165934,-28.300293,-37.817245,11.900635,,,,,,
1478384897.33,-0.688620,1.321378,-1.900499,-2.027399,2.677385,0.636296,-0.156860,-0.969056,-0.190591,0.269882,0.462373,1.118097,-31.434204,-37.527100,2.043457,,,,,,
1478384897.35,-0.629265,1.310391,-1.915021,0.395302,1.939690,-0.057062,-0.151535,-0.966286,-0.208156,0.325989,0.838127,0.954448,-31.650421,-36.931152,-2.010498,,,,,,
1478384897.37,-0.657318,1.346553,-1.852763,2.708912,1.682260,-0.710824,-0.135867,-0.974963,-0.176035,0.091784,0.755801,1.123224,-31.496857,-36.783112,-3.959351,,,,,,
1478384897.39,-0.784996,1.413237,-1.679456,3.858215,2.208352,-1.068505,-0.110907,-0.987613,-0.110996,0.005896,0.325748,0.882556,-31.050674,-37.382339,-3.203125,,,,,,
1478384897.41,-0.914461,1.460147,-1.512070,1.655420,1.636052,-0.766205,-0.087481,-0.993885,-0.067382,0.484713,-1.476101,-0.798920,-31.050674,-37.382339,-3.203125,,,,,,
1478384897.43,-1.367301,1.480441,-1.032792,2.991356,1.107916,0.251804,-0.088370,-0.995921,-0.018235,0.345573,-0.769857,1.309236,-30.388290,-39.555450,-1.315002,,,,,,
1478384897.45,-2.027788,1.485973,-0.342651,2.674887,1.465868,-1.127095,-0.076028,-0.996405,0.037383,0.663354,0.358877,0.587174,-29.487183,-38.954391,-0.257751,,,,,,
1478384897.47,-2.522681,1.465804,0.172659,2.446178,0.430929,-0.329023,-0.060799,-0.994493,0.085360,0.418282,0.125963,0.323896,-28.591782,-39.402664,1.477539,,,,,,
1478384897.49,-2.664517,1.423254,0.316918,2.179252,0.008296,0.463187,-0.067503,-0.989135,0.130593,0.084456,0.128067,0.244666,-28.221069,-39.851166,2.982544,,,,,,
1478384897.51,-2.752691,1.386238,0.401558,1.813151,-0.377847,-0.124007,-0.069583,-0.983017,0.169809,-0.296659,-0.039382,0.411902,-28.221069,-39.851166,2.982544,,,,,,
1478384897.53,-2.833807,1.360875,0.480858,1.270492,0.030693,-0.236012,-0.063129,-0.978047,0.198590,-0.104839,-0.084910,0.312884,-28.897171,-39.474289,4.849670,,,,,,
1478384897.55,-2.866891,1.336749,0.519805,1.318678,0.357176,-0.076903,-0.062910,-0.972736,0.223221,0.059202,0.040530,0.127700,-28.675537,-39.396820,7.326721,,,,,,
1478384897.57,-2.899452,1.313589,0.561356,1.198240,0.318998,-0.197949,-0.060996,-0.967104,0.246959,0.042243,-0.116071,0.011906,-28.300995,-39.246063,8.080017,,,,,,
1478384897.59,-2.922359,1.291300,0.586497,1.153107,-0.124911,-0.004796,-0.059997,-0.961194,0.269269,0.153198,-0.140505,-0.040234,-28.828232,-39.319794,9.349854,,,,,,
1478384897.61,-2.950409,1.268941,0.605177,1.151651,-0.687977,-0.062974,-0.056492,-0.954787,0.291875,0.004063,0.070570,-0.038930,-28.828232,-39.319794,9.349854,,,,,,
1478384897.63,-2.979590,1.246198,0.622211,1.178936,-0.551025,-0.041181,-0.051441,-0.947779,0.314752,-0.029140,0.097315,0.045798,-28.827774,-38.943970,10.173767,,,,,,
1478384897.65,-3.000306,1.222826,0.635178,1.184821,-0.396306,-0.043951,-0.048017,-0.940067,0.337593,0.027632,0.014987,0.047325,-27.854568,-38.566635,12.507385,,,,,,
1478384897.67,-3.019176,1.200697,0.645671,1.081921,-0.515866,-0.015611,-0.044169,-0.932291,0.359001,0.042307,-0.058965,0.065544,-27.704346,-38.115433,13.707581,,,,,,
1478384897.69,-3.037535,1.179890,0.650460,1.027580,-0.809822,0.048659,-0.039577,-0.924564,0.378965,0.088817,-0.016247,0.025683,-28.081146,-38.114243,14.903748,,,,,,
1478384897.71,-3.057974,1.159883,0.652605,0.989647,-0.942392,0.039681,-0.033362,-0.916756,0.398051,0.020438,0.070687,0.073064,-28.081146,-38.114243,14.903748,,,,,,
1478384897.73,-3.078192,1.140990,0.657196,0.921647,-0.697292,-0.060211,-0.026401,-0.909046,0.415858,-0.103039,0.068775,0.125021,-27.330933,-37.663040,16.109863,,,,,,
1478384897.75,-3.094263,1.123233,0.661457,0.874520,-0.597688,-0.015146,-0.020475,-0.901504,0.432286,-0.003924,-0.037857,0.035366,-26.880676,-36.986160,17.987366,,,,,,
1478384897.77,-3.110433,1.105932,0.662719,0.890429,-0.890747,0.012923,-0.013966,-0.893883,0.448084,0.059133,-0.032280,-0.073801,-27.406693,-36.835037,19.106628,,,,,,
1478384897.79,-3.134323,1.086194,0.665012,1.050974,-1.164381,-0.075161,-0.003386,-0.884860,0.465844,-0.033341,-0.040539,-0.127862,-26.881561,-36.458984,20.160767,,,,,,
1478384897.81,3.120184,1.062844,0.670283,1.242872,-1.248949,-0.157328,0.010412,-0.873742,0.486278,-0.122747,-0.156959,-0.265956,-26.881561,-36.458984,20.160767,,,,,,
1478384897.83,3.087738,1.034495,0.676629,1.536140,-1.400751,-0.271557,0.027504,-0.859605,0.510219,-0.178734,-0.115798,-0.359279,-25.606232,-35.932617,21.521973,,,,,,
1478384897.85,3.048726,0.997934,0.688213,1.966358,-1.482444,-0.544549,0.050265,-0.840353,0.539704,-0.203967,-0.176325,-0.383713,-24.930557,-35.331268,22.876892,,,,,,
1478384897.87,3.006054,0.952389,0.704901,2.351281,-1.403411,-0.837478,0.078337,-0.814803,0.574422,-0.150175,-0.411012,-0.447499,-23.507370,-34.352127,27.013184,,,,,,
1478384897.89,2.963400,0.897879,0.724671,2.760679,-1.309168,-1.115365,0.110475,-0.782007,0.613401,-0.121721,-0.613455,-0.624692,-21.854782,-33.150238,28.901062,,,,,,
1478384897.91,2.924001,0.834693,0.743231,3.094852,-1.276533,-1.256794,0.144942,-0.741091,0.655573,-0.048171,-0.833662,-0.682398,-21.854782,-33.150238,28.901062,,,,,,
1478384897.93,2.880136,0.762729,0.757565,3.541328,-2.012208,-1.343515,0.186874,-0.690897,0.698383,-0.146027,-1.241049,-1.232990,-20.578445,-32.097977,31.160767,,,,,,
1478384897.95,2.832216,0.689300,0.756905,3.536694,-2.602759,-0.754310,0.234953,-0.635997,0.735054,-0.333204,-1.075230,-0.647438,-18.324875,-30.445404,33.728271,,,,,,
1478384897.97,2.785430,0.614969,0.739137,3.867571,-3.006062,-0.495217,0.284799,-0.576933,0.765531,-0.462579,-0.638811,0.101809,-14.110489,-25.414917,39.230347,,,,,,
1478384897.99,2.735759,0.540895,0.717063,3.666458,-3.103574,-0.555667,0.338429,-0.514903,0.787617,-0.451176,-0.636326,0.247066,-10.650589,-22.487701,41.431213,,,,,,
1478384898.01,2.691129,0.476824,0.698475,2.894549,-2.244142,-0.548235,0.386819,-0.458959,0.799830,-0.393655,-0.916849,0.101919,-10.650589,-22.487701,41.431213,,,,,,
1478384898.03,2.674408,0.441812,0.681671,1.212655,-0.625686,0.215076,0.407129,-0.427578,0.807108,-0.387521,-0.623432,0.292257,-7.565613,-19.560593,43.553253,,,,,,
1478384898.05,2.678236,0.440935,0.667371,-0.061445,-0.036080,0.748693,0.404203,-0.426785,0.808996,-0.268583,-0.191074,0.040263,-5.756165,-17.084457,44.688934,,,,,,
1478384898.07,2.681407,0.458053,0.650092,-0.569179,-0.248545,1.254726,0.398333,-0.442203,0.803609,-0.092226,0.012241,-0.543050,-6.430145,-16.633789,45.355804,,,,,,
1478384898.09,2.688769,0.491147,0.630930,-1.599880,0.127153,1.671719,0.385790,-0.471638,0.792921,-0.270449,-0.123074,-0.511061,-6.058533,-17.534225,44.912262,,,,,,
,,,,,,,,,,,,,,,,37.354403,-122.033415,44.845703,0.620000,252.421875,1478384898.00
1478384898.11,2.712203,0.547614,0.612891,-2.425936,1.096220,2.029801,0.355437,-0.520652,0.776264,-0.348586,0.122230,-0.152881,-6.058533,-17.534225,44.912262,,,,,,
1478384898.13,2.756651,0.612905,0.592979,-2.861425,2.015505,2.029435,0.307155,-0.575246,0.758121,-0.347286,0.326543,-0.241626,-7.563019,-18.810074,44.076019,,,,,,
1478384898.15,2.818448,0.689861,0.574561,-3.695012,2.854763,2.064483,0.244937,-0.636430,0.731411,-0.132068,0.088258,-0.214535,-9.820206,-20.836365,42.784546,,,,,,
1478384898.17,2.895176,0.783461,0.552037,-4.581885,3.058149,2.126537,0.172818,-0.705736,0.687074,0.162097,-0.039671,-0.088197,-12.752487,-23.013031,41.111755,,,,,,
1478384898.19,2.972771,0.891693,0.519543,-5.358285,2.387251,2.216293,0.105533,-0.778136,0.619166,0.406186,0.032363,-0.058665,-19.442291,-28.494598,34.536316,,,,,,
1478384898.21,3.051140,1.009799,0.468195,-5.835829,1.498768,2.221566,0.048058,-0.846725,0.529856,0.404579,0.225066,0.121236,-19.442291,-28.494598,34.536316,,,,,,
1478384898.23,-3.138955,1.134198,0.388986,-6.340583,1.067814,2.124413,-0.001115,-0.906195,0.422858,0.328249,0.109778,0.349267,-21.923462,-31.123367,30.769348,,,,,,
1478384898.25,-2.983221,1.264353,0.245424,-6.870312,1.125901,2.060614,-0.047577,-0.953412,0.297895,0.338852,-0.096163,0.569751,-24.478287,-33.753036,26.101685,,,,,,
1478384898.27,-2.621897,1.384356,-0.100870,-6.958383,1.292799,1.945530,-0.092054,-0.982670,0.160889,0.364103,-0.175792,0.893920,-25.979889,-35.783081,21.067810,,,,,,
1478384898.29,-1.784258,1.438957,-0.922122,-6.298366,1.247913,1.555513,-0.128474,-0.991322,0.027848,0.170695,-0.202495,1.000579,-27.852524,-37.213943,15.203369,,,,,,
1478384898.31,-1.053796,1.394430,-1.626594,-5.019140,2.087529,1.140158,-0.152523,-0.984488,-0.086722,0.145519,-0.200403,1.022361,-27.852524,-37.213943,15.203369,,,,,,
1478384898.33,-0.760210,1.331058,-1.872458,-3.267735,2.882881,0.802429,-0.163620,-0.971400,-0.172077,0.131408,0.309092,1.129780,-30.990616,-38.049393,4.749451,,,,,,
1478384898.35,-0.632261,1.294490,-1.941800,-1.137295,3.002072,0.289347,-0.161219,-0.962070,-0.220069,0.158289,0.722369,1.058646,-32.181396,-37.604202,-0.063782,,,,,,
1478384898.37,-0.592511,1.300693,-1.933076,1.195965,1.988233,-0.267099,-0.149010,-0.963743,-0.221347,0.297234,0.837050,0.864841,-31.949203,-37.157654,-3.512817,,,,,,
1478384898.39,-0.638507,1.343498,-1.855092,2.796753,1.316902,-0.508693,-0.134305,-0.974279,-0.180950,0.161680,0.456273,0.927516,-31.423218,-37.384003,-4.856873,,,,,,
1478384898.41,-0.766916,1.401265,-1.693312,3.226901,1.600567,-0.747560,-0.117078,-0.985664,-0.121488,0.120328,0.008186,0.415387,-31.423218,-37.384003,-4.856873,,,,,,
1478384898.43,-0.839881,1.436844,-1.587112,1.220996,1.721044,-0.487886,-0.099438,-0.991042,-0.089153,0.294384,-1.753892,-0.877446,-30.983459,-38.806442,-2.298157,,,,,,
1478384898.45,-1.121554,1.461598,-1.259367,3.012089,2.526160,0.067682,-0.098168,-0.994044,-0.047329,0.046532,-0.448736,1.657131,-30.386948,-39.481125,-1.990173,,,,,,
1478384898.47,-1.760913,1.489686,-0.560310,3.214419,3.141514,-1.453843,-0.079562,-0.996712,0.015311,0.812868,0.368127,0.426584,-29.259155,-38.730743,-1.606201,,,,,,
1478384898.49,-2.386248,1.485785,0.122422,2.372272,2.104408,-0.556413,-0.058208,-0.996389,0.061816,0.630123,-0.053141,0.354626,-28.664978,-39.704758,-0.622314,,,,,,
1478384898.51,-2.557700,1.440695,0.310576,2.323411,0.146974,0.945661,-0.071520,-0.991549,0.108241,0.278658,0.223665,0.168844,-28.664978,-39.704758,-0.622314,,,,,,
1478384898.53,-2.668075,1.399118,0.401421,2.011305,-1.589226,0.059963,-0.077905,-0.985299,0.152039,-0.024055,0.130105,0.515411,-28.668930,-39.852585,1.553101,,,,,,
1478384898.55,-2.795253,1.369760,0.501080,1.512091,-1.209744,-0.264662,-0.067784,-0.979860,0.187828,-0.050532,-0.185164,0.385201,-28.521500,-39.700409,3.729126,,,,,,
1478384898.57,-2.843209,1.344165,0.540308,1.291312,0.042673,0.130510,-0.066055,-0.974429,0.214767,-0.185379,-0.168012,0.251938,-28.074310,-39.623306,5.833374,,,,,,
1478384898.59,-2.857685,1.321843,0.572457,1.129689,1.119428,-0.172378,-0.069016,-0.969171,0.236526,-0.082290,0.015313,0.140397,-28.151001,-39.546967,7.182373,,,,,,
1478384898.61,-2.873203,1.302567,0.606374,0.970769,0.563899,-0.086572,-0.070279,-0.964242,0.255537,0.219937,-0.100089,0.076571,-28.151001,-39.546967,7.182373,,,,,,
1478384898.63,-2.886320,1.285387,0.616833,0.845999,-0.579408,0.183582,-0.071094,-0.959547,0.272426,0.316165,-0.011889,0.007801,-28.902222,-39.621368,7.775085,,,,,,
1478384898.65,-2.904690,1.266821,0.615005,0.911905,-1.150076,0.271874,-0.070247,-0.954154,0.290956,0.116024,0.051322,0.004103,-28.076660,-39.170395,8.756958,,,,,,
1478384898.67,-2.925283,1.247614,0.611019,0.937691,-1.217196,0.272803,-0.068162,-0.948230,0.310184,-0.063704,-0.010144,-0.012775,-28.302216,-38.869110,10.028809,,,,,,
1478384898.69,-2.944685,1.228738,0.609356,0.899302,-0.923997,0.174179,-0.065622,-0.942066,0.328945,-0.158102,0.008686,-0.010876,-29.052643,-38.492691,11.445251,,,,,,
1478384898.71,-2.963458,1.209988,0.614036,0.973760,-0.616719,0.057627,-0.062555,-0.935612,0.347444,-0.132193,0.086750,-0.045808,-29.052643,-38.492691,11.445251,,,,,,
1478384898.73,-2.982234,1.189626,0.622874,1.061711,-0.492400,-0.017750,-0.059032,-0.928230,0.367294,-0.079518,0.065620,-0.030410,-28.377899,-38.191635,12.501038,,,,,,
1478384898.75,-3.001627,1.168817,0.632978,1.044781,-0.536433,-0.036064,-0.054582,-0.920289,0.387414,0.014283,-0.009124,0.015128,-27.853546,-37.589386,14.754517,,,,,,
1478384898.77,-3.021053,1.148732,0.640797,0.995149,-0.659047,-0.011914,-0.049259,-0.912245,0.406672,0.083835,-0.015672,0.048589,-27.853424,-37.213333,15.803345,,,,,,
1478384898.79,-3.040101,1.129368,0.645206,0.981870,-0.817666,0.023953,-0.043286,-0.904142,0.425033,0.088345,0.010344,0.009522,-28.003983,-36.912064,17.075928,,,,,,
1478384898.81,-3.062775,1.109026,0.649579,1.047363,-0.999448,-0.027717,-0.035080,-0.895265,0.444150,0.012405,-0.015700,-0.088682,-28.003983,-36.912064,17.075928,,,,,,
1478384898.83,-3.090464,1.086666,0.655332,1.187560,-1.218184,-0.069744,-0.023787,-0.885080,0.464831,-0.074175,-0.048041,-0.223132,-27.102631,-36.311157,17.983154,,,,,,
1478384898.85,-3.121513,1.060575,0.661598,1.387941,-1.286612,-0.143305,-0.009805,-0.872636,0.488272,-0.160193,0.020006,-0.243445,-26.954773,-36.234512,19.634399,,,,,,
1478384898.87,3.128282,1.028820,0.672639,1.723697,-1.117114,-0.351665,0.006866,-0.856691,0.515785,-0.203140,-0.045516,-0.234107,-26.055313,-35.331421,22.715698,,,,,,
1478384898.89,3.095553,0.990782,0.688467,1.970816,-0.885115,-0.570692,0.025223,-0.836455,0.547455,-0.113312,-0.297746,-0.237991,-25.229874,-34.654694,24.446899,,,,,,
1478384898.91,3.062310,0.947755,0.708866,2.218482,-0.819538,-0.785902,0.046214,-0.812108,0.581675,-0.132105,-0.367488,-0.386606,-25.229874,-34.654694,24.446899,,,,,,
1478384898.93,3.029141,0.897305,0.729325,2.612673,-0.876835,-0.881532,0.069990,-0.781649,0.619780,-0.126738,-0.366194,-0.483641,-24.328995,-33.903046,26.103638,,,,,,
1478384898.95,2.995750,0.837633,0.745188,3.068668,-1.230687,-0.898807,0.097256,-0.743061,0.662119,-0.047314,-0.651958,-0.561975,-23.053650,-33.226227,27.914429,,,,,,
1478384898.97,2.952238,0.768176,0.755469,3.488322,-2.200328,-0.910360,0.135368,-0.694824,0.706325,-0.083396,-1.414062,-1.059734,-21.325165,-30.821350,32.799438,,,,,,
1478384898.99,2.901597,0.698701,0.752423,3.414706,-2.905110,-0.393173,0.182001,-0.643223,0.743733,-0.054041,-1.483242,-1.010015,-18.619553,-28.643539,35.594910,,,,,,
1478384899.01,2.843319,0.627965,0.731837,3.780442,-3.851962,-0.088504,0.237807,-0.587500,0.773493,-0.271499,-0.822702,-0.189250,-18.619553,-28.643539,35.594910,,,,,,
1478384899.03,2.781646,0.554039,0.703201,3.911427,-3.832109,-0.075401,0.299534,-0.526127,0.795909,-0.359638,-0.607510,0.395498,-16.137253,-26.090759,38.387146,,,,,,
1478384899.05,2.724304,0.483193,0.674993,3.477843,-3.278341,-0.302206,0.358885,-0.464609,0.809531,-0.452666,-0.862844,-0.038733,-12.750916,-22.713181,40.960876,,,,,,
1478384899.07,2.687370,0.435073,0.655841,1.975976,-1.603162,-0.116442,0.397888,-0.421476,0.814888,-0.549576,-0.875536,0.247108,-9.964905,-19.335388,43.753601,,,,,,
1478384899.09,2.684486,0.414864,0.641757,0.789242,0.225002,0.271155,0.403914,-0.403065,0.821214,-0.438994,-0.259609,0.515441,-6.047729,-14.908554,45.579468,,,,,,
,,,,,,,,,,,,,,,,37.354403,-122.033415,44.394165,0.000000,244.687500,1478384899.00
1478384899.11,2.704919,0.418335,0.633248,-0.471407,1.104033,0.463696,0.386457,-0.406240,0.828022,-0.409940,0.105535,0.004406,-6.047729,-14.908554,45.579468,,,,,,
1478384899.13,2.731714,0.434228,0.633021,-0.710326,1.431626,0.269728,0.361516,-0.420710,0.832051,-0.480473,-0.026876,-0.544210,-6.198608,-15.058411,45.728424,,,,,,
1478384899.15,2.768714,0.458923,0.633189,-1.650046,2.287859,0.597386,0.326604,-0.442983,0.834923,-0.338643,0.070943,-0.223701,-7.475174,-15.583954,45.192230,,,,,,
1478384899.17,2.825883,0.512019,0.639865,-3.032821,3.280285,0.583821,0.270673,-0.489939,0.828672,-0.215909,0.246637,-0.183133,-9.578308,-16.409348,44.798676,,,,,,
1478384899.19,2.884255,0.579170,0.648575,-3.470761,3.008151,0.629321,0.213001,-0.547330,0.809358,-0.075230,0.315289,-0.260164,-14.843109,-20.912979,41.159546,,,,,,
1478384899.21,2.939236,0.657253,0.653940,-4.168062,2.884304,0.663025,0.159109,-0.610945,0.775520,0.130670,0.254789,-0.238319,-14.843109,-20.912979,41.159546,,,,,,
1478384899.23,2.990056,0.754124,0.661336,-5.190171,2.650531,0.529188,0.110028,-0.684650,0.720519,0.224048,0.107838,-0.224379,-17.550522,-23.390472,38.664917,,,,,,
1478384899.25,3.033589,0.867467,0.664355,-5.888930,2.059941,0.706911,0.069717,-0.762693,0.642992,0.225739,0.161894,-0.055773,-20.560623,-26.618423,35.719421,,,,,,
1478384899.27,3.076530,0.994993,0.655371,-6.618143,1.649264,0.858366,0.035402,-0.838755,0.543357,0.200605,0.323862,0.233056,-23.427414,-33.302277,26.860901,,,,,,
1478384899.29,3.129809,1.135094,0.627919,-7.141086,1.346797,0.981629,0.004973,-0.906574,0.422018,0.201539,0.307498,0.470377,-23.427414,-33.302277,26.860901,,,,,,
1478384899.31,-3.057982,1.279398,0.551260,-7.319938,1.078554,1.182512,-0.023993,-0.957843,0.286288,0.250815,0.096668,0.751401,-23.427414,-33.302277,26.860901,,,,,,
1478384899.33,-2.790100,1.416567,0.297136,-7.139326,0.959085,1.308571,-0.052891,-0.988130,0.144226,0.226322,-0.113692,1.092132,-26.055481,-37.813766,15.373047,,,,,,
1478384899.35,-1.696509,1.487197,-0.777635,-6.262640,1.392660,1.508947,-0.082843,-0.996508,0.010470,-0.016049,-0.297590,1.148847,-27.851318,-38.869705,9.433289,,,,,,
1478384899.37,-0.875665,1.421774,-1.571437,-4.344740,1.679379,1.686157,-0.114022,-0.988917,-0.095094,-0.022590,-0.391714,1.082338,-28.966553,-38.725800,3.346741,,,,,,
1478384899.39,-0.725394,1.361479,-1.687065,-1.993809,1.801442,1.165987,-0.137855,-0.978173,-0.155478,0.057899,0.219903,1.357031,-29.856201,-38.055679,-1.539185,,,,,,
1478384899.41,-0.689612,1.343652,-1.692597,0.042066,1.313260,0.220496,-0.143278,-0.974313,-0.173737,0.143233,0.682932,1.119828,-29.856201,-38.055679,-1.539185,,,,,,
1478384899.43,-0.752002,1.369130,-1.606057,2.559774,1.206417,-0.397240,-0.136827,-0.979734,-0.146285,0.276949,0.574552,1.015029,-31.793808,-36.935577,-6.436890,,,,,,
1478384899.45,-0.908374,1.426218,-1.409400,3.058864,2.258320,-1.288816,-0.113604,-0.989567,-0.088611,0.358020,-0.048061,0.500659,-30.521194,-37.234894,-5.748291,,,,,,
1478384899.47,-1.058356,1.474628,-1.200261,2.248015,3.382219,-1.105503,-0.083686,-0.995379,-0.047079,0.315727,-1.212339,0.116095,-30.002060,-38.208908,-4.765198,,,,,,
1478384899.49,-1.570663,1.502752,-0.627199,2.346413,2.510247,-0.613051,-0.067992,-0.997686,-0.000009,0.916854,-0.312968,0.661584,-28.132721,-39.408737,-4.592896,,,,,,
1478384899.51,-2.053249,1.499022,-0.107660,1.819324,1.098670,0.014655,-0.063528,-0.997425,0.033271,0.339040,0.303639,0.320748,-28.132721,-39.408737,-4.592896,,,,,,
1478384899.53,-2.382042,1.469129,0.215793,2.006559,-0.917712,0.440008,-0.069887,-0.994836,0.073597,0.187914,0.418237,0.162701,-27.688461,-40.307602,-3.460754,,,,,,
1478384899.55,-2.571849,1.435206,0.380929,1.849813,-1.327034,0.169367,-0.072916,-0.990822,0.113823,0.038858,-0.177422,0.310051,-27.539902,-40.005722,-1.585205,,,,,,
1478384899.57,-2.669811,1.407752,0.465300,1.294356,-0.210918,0.157582,-0.073772,-0.986738,0.144591,-0.140889,-0.385973,0.320161,-27.619064,-40.153412,0.739502,,,,,,
1478384899.59,-2.705445,1.386222,0.512672,1.110735,0.833700,0.029788,-0.077532,-0.983014,0.166347,-0.088530,-0.118975,0.303135,-27.919724,-39.927277,1.860779,,,,,,
1478384899.61,-2.743013,1.366022,0.562176,1.125364,0.237600,-0.029521,-0.078921,-0.979107,0.187406,0.019915,0.115398,0.013811,-27.919724,-39.927277,1.860779,,,,,,
1478384899.63,-2.783099,1.345259,0.597714,1.075765,-0.507087,0.088008,-0.078464,-0.974674,0.209413,0.142917,-0.082226,0.023650,-28.745834,-39.851318,2.827332,,,,,,
1478384899.65,-2.812278,1.325262,0.615879,0.996007,-0.524901,0.140172,-0.078609,-0.970007,0.230013,0.021679,-0.020837,0.047269,-28.147964,-39.699432,4.707886,,,,,,
1478384899.66,-2.836530,1.305652,0.634194,1.003445,-0.234655,0.048031,-0.078707,-0.965055,0.249949,-0.066999,0.011945,0.013860,-27.848526,-39.623825,5.310608,,,,,,
1478384899.68,-2.858900,1.286412,0.652307,0.995156,-0.303986,0.053168,-0.078262,-0.959835,0.269430,0.010269,-0.008626,-0.047385,-27.999207,-39.472931,6.208679,,,,,,
1478384899.70,-2.882097,1.266367,0.666403,1.044204,-0.628833,0.089755,-0.076913,-0.954018,0.289713,0.062906,0.020424,-0.105463,-27.999207,-39.472931,6.208679,,,,,,
1478384899.72,-2.909457,1.244016,0.677238,1.168827,-0.944023,0.107267,-0.073847,-0.947081,0.312386,-0.041403,0.008680,-0.084023,-28.674515,-39.171814,7.326050,,,,,,
1478384899.74,-2.938776,1.221284,0.688513,1.131351,-0.904418,0.036782,-0.068977,-0.939540,0.335421,-0.099648,-0.007238,-0.001345,-28.301544,-38.794342,9.803589,,,,,,
1478384899.76,-2.965768,1.198733,0.699882,1.150036,-0.771402,-0.000214,-0.063590,-0.931579,0.357933,-0.048699,0.003601,0.009880,-27.927322,-38.568130,11.006714,,,,,,
1478384899.78,-2.990469,1.176436,0.711505,1.138993,-0.670563,-0.041625,-0.057844,-0.923242,0.379839,0.046995,0.006983,0.019392,-28.528091,-38.191498,12.649475,,,,,,
1478384899.80,-3.013862,1.154033,0.720758,1.131026,-0.827093,-0.011085,-0.051565,-0.914404,0.401506,0.064261,0.004659,0.010726,-28.528091,-38.191498,12.649475,,,,,,
1478384899.82,-3.040221,1.131040,0.727426,1.184230,-1.135246,-0.007566,-0.043082,-0.904855,0.423534,0.034858,-0.045676,-0.054332,-27.327896,-37.890732,13.410583,,,,,,
1478384899.84,-3.070814,1.106250,0.732538,1.293769,-1.401492,0.002576,-0.031684,-0.894025,0.446895,0.015631,-0.088626,-0.193325,-27.403549,-37.514160,14.983765,,,,,,
1478384899.86,-3.104499,1.077897,0.736336,1.508402,-1.576120,-0.032789,-0.017548,-0.880965,0.472856,-0.074859,-0.007554,-0.242555,-26.581589,-37.060776,18.365601,,,,,,
1478384899.88,3.140295,1.043443,0.742558,1.872719,-1.647038,-0.187271,0.000653,-0.864142,0.503248,-0.102017,-0.134241,-0.268766,-26.431564,-36.458984,20.165283,,,,,,
1478384899.90,3.099845,1.002902,0.754144,2.086851,-1.449912,-0.456667,0.022448,-0.843035,0.537389,-0.072680,-0.327588,-0.323782,-26.431564,-36.458984,20.165283,,,,,,
1478384899.92,3.059746,0.957295,0.772924,2.357918,-1.101818,-0.790723,0.047069,-0.817637,0.573806,-0.154079,-0.334538,-0.411910,-25.081253,-35.706940,22.201538,,,,,,
1478384899.94,3.021228,0.904096,0.796395,2.710653,-0.936059,-1.049280,0.074254,-0.785866,0.613922,-0.224309,-0.458824,-0.509140,-24.181580,-35.029678,24.458496,,,,,,
1478384899.96,2.984091,0.842650,0.817388,3.101343,-1.207354,-1.102767,0.104383,-0.746409,0.657250,-0.221662,-0.835225,-0.753395,-22.379684,-33.075104,29.045654,,,,,,
1478384899.98,2.941310,0.775996,0.832496,3.190842,-1.873017,-1.112990,0.141993,-0.700427,0.699457,0.129843,-1.336011,-0.701669,-20.200867,-31.497910,31.237732,,,,,,
1478384900.00,2.879868,0.705349,0.842191,3.551604,-3.384436,-1.080194,0.197006,-0.648300,0.735456,0.234497,-1.443360,-0.958845,-20.200867,-31.497910,31.237732,,,,,,
1478384900.02,2.802438,0.630026,0.826056,3.936821,-4.836153,-0.256558,0.268818,-0.589166,0.761985,-0.358280,-0.659476,-0.034919,-18.097717,-29.845032,34.103760,,,,,,
1478384900.04,2.715978,0.553356,0.797692,3.923226,-4.996211,-0.430107,0.351265,-0.525545,0.774864,-0.553154,-0.654386,0.145759,-15.018585,-27.816711,37.428528,,,,,,
1478384900.06,2.653639,0.490510,0.772831,2.767923,-2.813900,-0.331024,0.413542,-0.471076,0.779147,-0.642287,-0.835137,0.069593,-10.583374,-24.438385,40.762726,,,,,,
1478384900.08,2.634302,0.460930,0.750136,1.288492,-0.846881,0.515867,0.435111,-0.444782,0.782846,-0.792533,-0.883755,-0.016671,-4.414978,-19.260101,44.033875,,,,,,
,,,,,,,,,,,,,,,,37.354405,-122.033427,44.482239,0.490000,228.515625,1478384900.00
1478384900.10,2.644587,0.455037,0.724442,0.567581,0.293029,1.028454,0.428280,-0.439495,0.789570,-0.557659,-0.235279,0.384655,-4.414978,-19.260101,44.033875,,,,,,
1478384900.12,2.660618,0.460016,0.700848,0.249092,0.261380,0.979734,0.414550,-0.443962,0.794384,-0.392501,0.052315,-0.051357,-4.186249,-18.134201,44.932800,,,,,,
1478384900.14,2.685195,0.459707,0.679782,0.387491,1.208965,0.846892,0.394963,-0.443685,0.804455,-0.193181,-0.055720,-0.296017,-4.709473,-17.834518,44.626648,,,,,,
1478384900.16,2.736366,0.488523,0.663535,-1.996659,2.858943,1.520389,0.348113,-0.469322,0.811513,-0.421386,-0.256508,-0.454152,-6.509186,-17.684235,44.908203,,,,,,
1478384900.18,2.816795,0.552585,0.649311,-2.986206,3.943786,1.795168,0.271623,-0.524889,0.806667,-0.276063,0.081087,-0.074032,-11.538651,-19.411453,42.688080,,,,,,
1478384900.20,2.905615,0.623467,0.627120,-3.300568,3.685304,1.872973,0.189807,-0.583853,0.789360,-0.015125,0.379187,-0.181282,-11.538651,-19.411453,42.688080,,,,,,
1478384900.22,2.989497,0.707542,0.603432,-4.448272,3.353382,1.601890,0.115141,-0.649967,0.751189,0.265916,0.295109,-0.306151,-15.070251,-21.588593,40.559265,,,,,,
1478384900.24,3.066020,0.813383,0.577981,-5.509035,2.576801,1.509229,0.051873,-0.726616,0.685083,0.456718,0.075966,-0.183206,-18.978561,-24.291168,37.978333,,,,,,
1478384900.26,3.137088,0.933384,0.533896,-6.206131,1.491523,1.724057,0.002681,-0.803638,0.595112,0.448125,0.245731,-0.003025,-22.360062,-27.070160,33.977844,,,,,,
1478384900.28,-3.061440,1.064074,0.459718,-6.850893,0.935719,1.759870,-0.038858,-0.874340,0.483756,0.414163,0.427227,0.213067,-25.819611,-32.179108,25.033569,,,,,,
1478384900.30,-2.925747,1.202505,0.327129,-7.505209,0.678167,1.753749,-0.077107,-0.932944,0.351667,0.354558,0.218360,0.554949,-25.819611,-32.179108,25.033569,,,,,,
1478384900.32,-2.633599,1.337670,0.035718,-7.875371,0.752585,1.578089,-0.112374,-0.972949,0.201847,0.382027,-0.184735,0.768367,-27.398117,-34.734436,19.700439,,,,,,
1478384900.34,-1.883901,1.416827,-0.696157,-7.444540,1.915008,1.561736,-0.145906,-0.988170,0.047238,0.445649,-0.532155,1.249332,-29.421875,-36.239777,14.359741,,,,,,
1478384900.36,-1.095468,1.372842,-1.456059,-5.950417,2.006852,1.458814,-0.174862,-0.980471,-0.089999,0.041089,-0.701460,0.954196,-30.315399,-37.071609,7.528320,,,,,,
1478384900.38,-0.794939,1.303642,-1.708668,-3.445555,3.221868,0.821187,-0.188440,-0.964526,-0.184878,0.279611,-0.212918,1.213900,-31.804352,-36.702850,1.287354,,,,,,
1478384900.40,-0.671175,1.268427,-1.781170,-1.003082,2.025663,0.239856,-0.185193,-0.954634,-0.233191,0.447537,0.555784,1.452124,-31.804352,-36.702850,1.287354,,,,,,
1478384900.42,-0.693621,1.287132,-1.730819,2.425884,1.178739,-0.264009,-0.178931,-0.960036,-0.215206,0.470084,1.133681,0.688793,-32.612045,-35.586044,-6.899170,,,,,,
1478384900.44,-0.809723,1.351840,-1.583986,4.072025,1.332372,-1.136829,-0.157282,-0.976125,-0.149810,-0.024878,0.750127,1.330810,-32.987839,-35.660751,-6.602661,,,,,,
1478384900.46,-0.995351,1.410863,-1.377690,2.180354,0.635873,-1.055494,-0.133605,-0.987238,-0.086666,-0.033860,-0.189215,0.143078,-31.343948,-36.559372,-5.233521,,,,,,
1478384900.48,-1.163961,1.433692,-1.195220,2.334399,0.444067,0.347085,-0.125519,-0.990616,-0.054083,0.744477,-1.735382,-0.148706,-30.903946,-38.132416,-3.274414,,,,,,
1478384900.50,-1.602438,1.438842,-0.744074,3.104113,0.643776,-0.236522,-0.131506,-0.991307,0.004162,0.264257,-0.251888,1.183032,-30.903946,-38.132416,-3.274414,,,,,,
1478384900.52,-2.010803,1.448239,-0.309556,2.323771,1.361805,-1.164363,-0.110606,-0.992499,0.052072,0.859706,0.225684,0.281790,-31.059677,-38.279037,0.099487,,,,,,
1478384900.54,-2.280104,1.428373,-0.012588,2.037968,0.859128,0.346643,-0.107707,-0.989875,0.092448,0.092220,0.026237,0.290258,-29.786926,-38.503204,0.937927,,,,,,
1478384900.56,-2.419098,1.395881,0.124878,1.809990,-0.576999,0.077327,-0.115076,-0.984741,0.130547,-0.173041,0.036377,0.416695,-29.789520,-38.802383,1.763672,,,,,,
1478384900.58,-2.543746,1.377302,0.235415,1.137593,-0.926354,-0.104299,-0.108232,-0.981338,0.158936,0.087862,-0.111099,0.204665,-29.716080,-38.500427,3.713562,,,,,,
1478384900.60,-2.599453,1.353320,0.282133,1.360359,-0.130282,0.273295,-0.111329,-0.976445,0.184827,0.107896,0.027623,0.142535,-29.716080,-38.500427,3.713562,,,,,,
1478384900.62,-2.657524,1.331697,0.342547,1.203612,0.007189,-0.228758,-0.110216,-0.971552,0.209618,-0.278563,0.064493,0.016777,-29.569687,-38.798935,5.215881,,,,,,
1478384900.64,-2.708353,1.311667,0.391814,1.152727,-0.279194,0.021444,-0.107572,-0.966614,0.232565,0.076917,-0.196472,-0.001059,-29.646133,-38.346603,7.538818,,,,,,
1478384900.66,-2.748902,1.290419,0.422426,1.162639,-0.707068,0.021353,-0.105893,-0.960951,0.255655,0.143308,-0.016664,-0.064706,-29.421127,-38.045700,8.440125,,,,,,
1478384900.68,-2.793006,1.267271,0.452223,1.262993,-0.768446,0.033112,-0.102091,-0.954289,0.280910,0.025552,0.080891,-0.039867,-28.896469,-37.819794,9.344727,,,,,,
1478384900.70,-2.830640,1.243769,0.477604,1.219809,-0.616632,-0.018899,-0.098285,-0.947001,0.305824,-0.085156,0.050090,0.043556,-28.896469,-37.819794,9.344727,,,,,,
1478384900.72,-2.861843,1.221777,0.499675,1.121381,-0.490101,-0.026201,-0.094425,-0.939709,0.328682,-0.039853,0.006649,0.089836,-29.874039,-37.818085,11.059998,,,,,,
1478384900.74,-2.889855,1.200527,0.516320,1.106305,-0.737203,0.014750,-0.090136,-0.932230,0.350461,0.079333,0.027918,0.021518,-28.749390,-37.140823,13.319153,,,,,,
1478384900.76,-2.919444,1.178793,0.528397,1.105099,-1.008996,0.041779,-0.084173,-0.924146,0.372652,0.067633,-0.002994,-0.005465,-28.675598,-36.989548,14.594421,,,,,,
1478384900.78,-2.950103,1.157185,0.538321,1.093701,-1.113772,0.028650,-0.076494,-0.915675,0.394573,0.010728,-0.060826,-0.024349,-28.376633,-36.687973,16.171509,,,,,,
1478384900.80,-2.981840,1.135523,0.547243,1.113120,-1.210278,-0.016455,-0.067075,-0.906755,0.416289,0.008924,-0.060774,-0.042418,-28.376633,-36.687973,16.171509,,,,,,
1478384900.82,-3.015316,1.113520,0.557630,1.138443,-1.169434,-0.088952,-0.055604,-0.897259,0.437990,-0.045257,-0.019093,-0.072496,-28.825592,-36.011627,17.515015,,,,,,
1478384900.84,-3.046325,1.089231,0.568978,1.306138,-1.004037,-0.141626,-0.044058,-0.886271,0.461067,-0.086649,-0.060400,-0.143120,-28.001602,-35.785278,18.872559,,,,,,
1478384900.86,-3.078883,1.060440,0.581501,1.558937,-1.139484,-0.214212,-0.030613,-0.872570,0.487528,-0.070202,-0.123890,-0.366587,-26.727844,-35.182632,21.508545,,,,,,
1478384900.88,-3.117057,1.025413,0.596739,1.913996,-1.319477,-0.385037,-0.012726,-0.854929,0.518589,-0.131042,-0.024039,-0.412541,-26.803284,-34.580536,23.605896,,,,,,
1478384900.90,3.122814,0.982267,0.617640,2.297791,-1.214671,-0.664007,0.010424,-0.831758,0.555041,-0.172564,-0.058104,-0.341067,-26.803284,-34.580536,23.605896,,,,,,
1478384900.92,3.080357,0.931993,0.642620,2.590953,-1.064913,-0.903480,0.036488,-0.802810,0.595118,-0.129780,-0.367219,-0.440653,-25.076950,-33.753952,25.195740,,,,,,
1478384900.94,3.039967,0.875408,0.666812,2.874204,-1.077857,-1.003455,0.064998,-0.767805,0.637378,-0.133983,-0.594607,-0.626774,-24.401276,-32.926910,27.225037,,,,,,
1478384900.96,3.001673,0.811940,0.684982,3.237644,-1.442025,-0.962156,0.095964,-0.725624,0.681367,-0.014695,-0.743706,-0.752168,-21.398468,-30.747238,31.898499,,,,,,
1478384900.98,2.953115,0.739082,0.694832,3.638402,-2.448927,-0.871276,0.138478,-0.673609,0.725999,0.046184,-1.159169,-1.292527,-20.794754,-29.094772,34.374573,,,,,,
1478384901.00,2.898369,0.663355,0.689312,3.877960,-3.205189,-0.473349,0.189759,-0.615764,0.764739,0.024291,-1.152943,-0.701308,-20.794754,-29.094772,34.374573,,,,,,
1478384901.02,2.836360,0.582348,0.672600,4.154983,-3.870947,-0.460809,0.250982,-0.549986,0.796570,-0.115911,-0.791597,0.182267,-17.712677,-26.541809,37.322754,,,,,,
1478384901.04,2.761981,0.502322,0.656323,3.761777,-4.012446,-0.837967,0.324783,-0.481462,0.814070,-0.303269,-0.897887,0.157167,-14.327576,-23.389099,40.047119,,,,,,
1478384901.06,2.710582,0.445203,0.647937,2.167820,-1.843040,-0.610404,0.377065,-0.430641,0.819982,-0.471135,-1.281395,0.051646,-10.865570,-19.786285,42.845947,,,,,,
1478384901.08,2.707624,0.420751,0.635817,0.933587,0.417858,0.284732,0.383802,-0.408446,0.828171,-0.661573,-0.765596,0.194061,-6.050308,-15.508636,45.506256,,,,,,
1478384901.10,2.740863,0.418404,0.623831,-0.131314,1.698677,0.462693,0.356440,-0.406303,0.841349,-0.399104,-0.130303,0.459295,-6.050308,-15.508636,45.506256,,,,,,
,,,,,,,,,,,,,,,,37.354403,-122.033432,44.663635,0.380000,261.914062,1478384901.00
1478384901.12,2.770350,0.431177,0.624885,-0.614560,1.356161,-0.009196,0.329571,-0.417941,0.846586,-0.304684,0.182650,-0.193419,-6.871368,-14.608566,45.570343,,,,,,
1478384901.14,2.795698,0.434339,0.626502,-0.062357,1.315417,0.159395,0.307559,-0.420811,0.853420,-0.190264,-0.057506,-0.474636,-8.447464,-14.983948,45.180695,,,,,,
1478384901.16,2.833499,0.461290,0.619218,-2.158987,2.110983,1.039384,0.271547,-0.445103,0.853314,-0.392595,-0.081737,-0.475095,-10.400146,-15.659210,44.938171,,,,,,
1478384901.18,2.885847,0.529412,0.613135,-3.494655,2.492981,1.275301,0.218337,-0.505026,0.835031,-0.265761,0.066885,-0.382990,-14.006973,-17.986618,42.509125,,,,,,
1478384901.20,2.935093,0.606487,0.600466,-3.758638,1.852658,1.441891,0.168469,-0.569984,0.804199,-0.073681,0.287895,-0.300079,-14.006973,-17.986618,42.509125,,,,,,
1478384901.22,2.970870,0.694182,0.586743,-4.544805,1.116776,1.276099,0.130577,-0.639757,0.757404,0.138191,0.312013,-0.229664,-16.341843,-20.913818,40.319550,,,,,,
1478384901.24,2.992434,0.798368,0.575957,-5.413020,0.448282,1.238560,0.103709,-0.716218,0.690127,0.305364,0.098466,-0.181903,-18.224289,-23.240860,38.282715,,,,,,
1478384901.26,3.010659,0.920825,0.555280,-6.289787,0.030239,1.712402,0.079010,-0.796101,0.599983,0.204162,0.048299,-0.035546,-20.262100,-26.918350,35.798340,,,,,,
1478384901.28,3.048782,1.057545,0.513097,-6.879210,0.270608,2.007990,0.045506,-0.871153,0.488899,0.074077,0.307676,0.304833,-21.552872,-33.001068,28.078674,,,,,,
1478384901.30,3.134332,1.203945,0.434186,-7.398073,0.977973,2.069934,0.002604,-0.933461,0.358669,0.004735,0.289266,0.745717,-21.552872,-33.001068,28.078674,,,,,,
1478384901.32,-2.926154,1.350013,0.236701,-7.619974,2.073363,2.094998,-0.046816,-0.975726,0.213931,0.225176,-0.113461,0.807629,-23.283875,-36.006088,23.045410,,,,,,
1478384901.34,-2.171972,1.460627,-0.477896,-7.330561,2.332545,1.726540,-0.090669,-0.993938,0.062187,0.285570,-0.274022,1.408577,-25.306961,-37.587112,17.029907,,,,,,
1478384901.36,-1.048680,1.429420,-1.568059,-5.746562,1.973273,1.618260,-0.122132,-0.990023,-0.070272,0.254457,-0.355985,1.143438,-28.150192,-38.494339,9.804199,,,,,,
1478384901.38,-0.763568,1.353253,-1.807858,-2.985600,2.645945,1.504182,-0.149248,-0.976431,-0.155911,0.210390,-0.311426,1.324154,-29.415634,-38.500717,3.416565,,,,,,
1478384901.40,-0.680322,1.320346,-1.838433,-0.567874,2.624489,0.473028,-0.155902,-0.968801,-0.192663,0.306918,0.561712,1.495276,-29.415634,-38.500717,3.416565,,,,,,
1478384901.42,-0.695921,1.338183,-1.770692,2.367778,2.379769,-0.204192,-0.147785,-0.973067,-0.176917,0.207554,1.043410,1.187552,-30.897629,-36.933014,-3.877991,,,,,,
1478384901.44,-0.867109,1.407582,-1.546328,4.567856,2.494960,-1.162696,-0.123893,-0.986710,-0.105137,0.113868,0.861695,1.251377,-31.424667,-37.533478,-4.331421,,,,,,
1478384901.46,-1.040323,1.456454,-1.327246,1.699758,2.088531,-0.881398,-0.098413,-0.993470,-0.057724,0.405664,-1.000091,-0.969268,-30.303848,-38.057266,-3.118652,,,,,,
1478384901.48,-1.489021,1.469092,-0.848367,2.857925,1.070906,0.575145,-0.101190,-0.994833,-0.008293,0.449823,-1.532679,0.927406,-29.336853,-39.556427,-2.279480,,,,,,
1478384901.50,-2.012940,1.460791,-0.299191,2.933494,1.174060,-0.638167,-0.099226,-0.993955,0.046974,0.754988,0.405928,0.670723,-29.336853,-39.556427,-2.279480,,,,,,
1478384901.52,-2.428704,1.439702,0.146944,2.583484,1.397844,-0.554823,-0.085493,-0.991419,0.098886,0.500029,0.280543,0.517950,-29.564987,-39.253433,0.717346,,,,,,
1478384901.54,-2.572237,1.400394,0.305726,2.146157,0.141019,0.582033,-0.091418,-0.985517,0.142828,-0.049054,-0.098285,0.225291,-28.744720,-39.927292,1.852539,,,,,,
1478384901.56,-2.660182,1.364458,0.389577,1.699527,-0.424814,-0.104090,-0.094864,-0.978788,0.181591,-0.024917,-0.064181,0.397068,-28.744827,-39.475861,3.276184,,,,,,
1478384901.58,-2.716989,1.340496,0.440298,1.266763,-0.177858,0.247347,-0.094038,-0.973598,0.208000,0.128492,-0.119755,0.328408,-28.746490,-39.173843,5.300232,,,,,,
1478384901.60,-2.735661,1.314084,0.464682,1.305199,0.394965,0.128258,-0.100260,-0.967230,0.233268,-0.089194,0.140402,0.204048,-28.746490,-39.173843,5.300232,,,,,,
1478384901.62,-2.765348,1.292369,0.500304,1.123861,0.083357,0.005285,-0.100986,-0.961489,0.255619,-0.026455,-0.145918,0.014080,-28.521820,-38.947937,6.201843,,,,,,
1478384901.64,-2.783881,1.271401,0.515395,1.042558,-0.359199,0.233637,-0.103269,-0.955515,0.276272,0.197980,-0.196310,-0.023511,-29.198044,-38.646225,7.919189,,,,,,
1478384901.66,-2.808249,1.249482,0.528676,1.130844,-0.686409,0.149554,-0.103336,-0.948821,0.298429,0.037097,0.058547,-0.041807,-29.198166,-38.345245,8.893250,,,,,,
1478384901.68,-2.834655,1.226803,0.541414,1.154448,-0.725486,0.176198,-0.101897,-0.941415,0.321488,-0.031282,0.080438,0.000473,-28.748489,-38.044128,10.021851,,,,,,
1478384901.70,-2.858584,1.203404,0.550675,1.163284,-0.819284,0.182366,-0.100300,-0.933267,0.344894,-0.029460,0.014078,0.007813,-28.748489,-38.044128,10.021851,,,,,,
1478384901.72,-2.885951,1.180183,0.558828,1.159883,-1.095981,0.157025,-0.096280,-0.924676,0.368381,0.034391,-0.033042,-0.048649,-29.574814,-37.817551,11.587952,,,,,,
1478384901.74,-2.916274,1.157037,0.566067,1.160190,-1.208476,0.119321,-0.089826,-0.915616,0.391892,-0.010409,-0.009799,-0.005860,-28.824371,-36.915146,13.992737,,,,,,
1478384901.76,-2.946641,1.133851,0.574251,1.177860,-1.093909,0.054483,-0.081977,-0.906049,0.415158,-0.061822,-0.020969,0.016819,-28.899933,-36.538651,15.490845,,,,,,
1478384901.78,-2.972908,1.110275,0.581487,1.144168,-0.882613,0.065689,-0.074611,-0.895821,0.438107,-0.059895,-0.024360,-0.028668,-28.376953,-36.462067,17.070862,,,,,,
1478384901.80,-2.991748,1.088953,0.589647,1.103118,-0.449150,-0.081700,-0.069180,-0.886142,0.458221,0.028684,0.034992,0.012406,-28.376953,-36.462067,17.070862,,,,,,
1478384901.82,-3.012151,1.065613,0.603065,1.251021,-0.443380,-0.180790,-0.062471,-0.875086,0.479919,0.034608,0.028528,-0.085754,-28.601242,-35.860718,18.416809,,,,,,
1478384901.84,-3.036218,1.039447,0.617470,1.395707,-0.720486,-0.197327,-0.053294,-0.862124,0.503886,0.045878,-0.173490,-0.233546,-27.626495,-35.559662,19.475647,,,,,,
1478384901.86,-3.066972,1.010297,0.629308,1.547492,-1.195555,-0.172728,-0.039632,-0.846990,0.530130,0.052038,-0.244349,-0.363153,-27.325027,-34.507492,21.650513,,,,,,
1478384901.88,-3.105375,0.975636,0.642042,1.896493,-1.471435,-0.328869,-0.020301,-0.828059,0.560274,-0.118173,-0.049306,-0.417055,-27.176804,-34.205399,23.751099,,,,,,
1478384901.90,3.134843,0.932157,0.660315,2.355782,-1.317104,-0.594751,0.004023,-0.802908,0.596090,-0.260234,-0.138743,-0.469930,-27.176804,-34.205399,23.751099,,,,,,
1478384901.92,3.095107,0.880291,0.682362,2.688880,-1.001852,-0.839042,0.029598,-0.770925,0.636238,-0.282665,-0.477458,-0.642296,-26.126831,-33.528366,25.784485,,,,,,
1478384901.94,3.060546,0.821962,0.703587,2.984890,-0.975527,-0.871575,0.055115,-0.732483,0.678551,-0.160355,-0.663071,-0.812615,-24.474457,-32.326324,27.822449,,,,,,
1478384901.96,3.023938,0.757523,0.715614,3.280734,-1.761432,-0.649922,0.085283,-0.687124,0.721517,0.101301,-0.772883,-0.818746,-22.219299,-29.696884,32.262085,,,,,,
1478384901.98,2.969885,0.685103,0.718275,3.753088,-3.190212,-0.612431,0.132310,-0.632753,0.762966,0.306410,-1.164030,-0.885632,-21.465790,-28.119476,34.664978,,,,,,
1478384902.00,2.896444,0.604783,0.709622,4.183745,-4.167965,-0.413508,0.199651,-0.568584,0.798030,-0.193990,-1.167409,-0.275249,-21.465790,-28.119476,34.664978,,,,,,
1478384902.02,2.833018,0.520246,0.689162,4.175841,-3.302888,-0.261563,0.263520,-0.497093,0.826714,-0.515443,-1.125084,0.193718,-17.557281,-25.116135,37.994995,,,,,,
1478384902.04,2.794346,0.457712,0.667450,2.750369,-1.829349,-0.006773,0.305280,-0.441896,0.843523,-0.791853,-1.429579,-0.224734,-14.320938,-21.588135,41.016785,,,,,,
1478384902.06,2.790952,0.420834,0.648124,1.513010,0.120068,0.274226,0.313529,-0.408522,0.857210,-0.761435,-0.729006,0.252928,-10.851944,-16.184586,44.560272,,,,,,
1478384902.08,2.807969,0.411324,0.635196,0.221832,0.577963,0.507224,0.300155,-0.399823,0.866053,-0.357788,-0.304828,0.376287,-11.147095,-14.984207,44.928680,,,,,,
1478384902.10,2.813781,0.419551,0.619568,-0.329133,-0.420956,1.027045,0.294048,-0.407351,0.864639,-0.043178,-0.191938,-0.619354,-11.147095,-14.984207,44.928680,,,,,,
,,,,,,,,,,,,,,,,37.354400,-122.033438,44.214478,0.670000,223.242188,1478384902.00
1478384902.12,2.820801,0.447620,0.598149,-1.632947,0.449957,1.535741,0.284253,-0.432821,0.855492,0.337192,-0.329920,-0.575371,-11.072205,-15.059357,44.779694,,,,,,
1478384902.14,2.847613,0.503480,0.579410,-2.645069,0.882277,1.684749,0.253806,-0.482476,0.838331,0.041512,-0.087424,-0.510527,-10.998657,-15.434509,44.631561,,,,,,
1478384902.16,2.873308,0.568908,0.560195,-3.165235,0.958810,1.643455,0.223325,-0.538713,0.812351,-0.212415,0.247270,-0.341999,-11.979965,-17.085266,43.876678,,,,,,
1478384902.18,2.913016,0.649343,0.549256,-4.197289,2.073030,1.354113,0.180476,-0.604663,0.775765,-0.028391,0.154376,-0.209053,-15.293900,-21.138138,41.005707,,,,,,
1478384902.20,2.967948,0.748969,0.538789,-5.133931,2.513148,1.417800,0.126538,-0.680884,0.721377,0.207919,0.021994,-0.108080,-15.293900,-21.138138,41.005707,,,,,,
1478384902.22,3.027275,0.865552,0.521434,-6.021220,2.157664,1.415278,0.073942,-0.761453,0.643989,0.396014,0.094858,-0.070701,-17.779236,-24.365921,38.215515,,,,,,
1478384902.24,3.085652,0.996075,0.493006,-6.668171,1.592612,1.392298,0.030394,-0.839344,0.542750,0.394182,0.216724,0.179494,-20.189468,-27.894684,34.452026,,,,,,
1478384902.26,-3.125688,1.138497,0.444007,-7.349302,1.332410,1.262187,-0.006663,-0.908005,0.418907,0.371409,0.165955,0.617760,-23.123138,-31.274063,30.082825,,,,,,
1478384902.28,-3.009888,1.288841,0.343208,-7.737910,0.904346,1.191954,-0.036539,-0.960513,0.275825,0.402628,-0.020154,0.630868,-25.606354,-36.910461,18.674866,,,,,,
1478384902.30,-2.663971,1.429487,0.010491,-7.560751,1.185930,1.304153,-0.064740,-0.990032,0.125079,0.338025,-0.100315,1.066251,-25.606354,-36.910461,18.674866,,,,,,
1478384902.32,-1.370681,1.474568,-1.254878,-6.690689,1.978072,1.418962,-0.094162,-0.995374,-0.019099,0.117920,-0.360721,1.287928,-26.428360,-38.266541,12.595764,,,,,,
1478384902.34,-0.724423,1.398687,-1.858305,-4.408680,2.657991,0.900207,-0.113495,-0.985226,-0.128254,0.178024,-0.359547,1.398670,-27.621399,-38.948227,5.910828,,,,,,
1478384902.36,-0.524471,1.337479,-2.006653,-2.780123,2.515531,0.436816,-0.115778,-0.972905,-0.200130,0.254877,0.304585,1.628078,-29.563293,-38.878433,0.716248,,,,,,
1478384902.38,-0.464368,1.310547,-2.036514,-0.314519,0.945357,0.254086,-0.115244,-0.966326,-0.230073,0.304590,0.778124,1.128693,-29.329086,-38.282776,-3.633179,,,,,,
1478384902.40,-0.512422,1.335909,-1.981369,2.304285,-0.018822,-0.164969,-0.114107,-0.972540,-0.202841,0.198427,0.796042,1.201834,-29.329086,-38.282776,-3.633179,,,,,,
1478384902.42,-0.668133,1.390950,-1.829997,3.459251,-0.778493,-0.248386,-0.110819,-0.983871,-0.140416,-0.041220,0.346634,0.997136,-29.777390,-38.359131,-4.987488,,,,,,
1478384902.44,-0.842447,1.427677,-1.672194,2.238990,-0.526764,-0.055364,-0.106442,-0.989776,-0.094941,0.496838,-1.473572,-0.438033,-30.534332,-38.956284,-2.143188,,,,,,
1478384902.46,-1.293400,1.451121,-1.214709,3.062515,0.526493,0.135940,-0.114826,-0.992847,-0.032695,0.031361,-0.813091,1.228618,-30.540512,-39.629181,-0.041321,,,,,,
1478384902.48,-1.682631,1.474151,-0.794497,2.206049,1.850611,-1.216667,-0.095892,-0.995333,0.010769,0.482855,0.263812,0.576877,-29.789734,-38.727005,2.138489,,,,,,
1478384902.50,-2.084596,1.467918,-0.350140,2.087562,1.939713,0.203305,-0.089437,-0.994713,0.050474,0.153860,0.339683,0.346895,-29.789734,-38.727005,2.138489,,,,,,
1478384902.52,-2.284492,1.438644,-0.131431,1.753908,0.109036,0.347268,-0.099610,-0.991281,0.086260,-0.011047,0.099801,0.309843,-29.046036,-39.625488,3.648621,,,,,,
1478384902.54,-2.441283,1.420197,0.013405,1.148442,-0.997418,-0.166467,-0.096688,-0.988681,0.114720,0.241890,-0.172192,0.349193,-29.870926,-39.249451,4.689331,,,,,,
1478384902.56,-2.509262,1.400070,0.060723,0.997942,-0.863748,0.617861,-0.100414,-0.985462,0.137049,0.275555,-0.236310,0.256231,-28.972275,-39.022873,6.272522,,,,,,
1478384902.58,-2.534128,1.379774,0.082269,0.899386,0.079218,0.172615,-0.108371,-0.981811,0.155896,-0.252698,0.084197,0.128620,-29.346146,-38.346603,7.541809,,,,,,
1478384902.60,-2.585102,1.367323,0.135186,0.770318,0.011677,-0.081012,-0.106737,-0.979371,0.171582,-0.198622,-0.095703,-0.032956,-29.346146,-38.346603,7.541809,,,,,,
1478384902.62,-2.620914,1.352160,0.169909,0.905446,-0.180931,0.100326,-0.107901,-0.976194,0.188156,0.063604,0.007826,-0.165741,-29.572021,-38.346008,8.139526,,,,,,
1478384902.64,-2.674149,1.333305,0.215815,1.182284,-0.539187,-0.050826,-0.106012,-0.971931,0.210026,-0.050788,0.162285,-0.201207,-30.322464,-37.969589,9.555908,,,,,,
1478384902.66,-2.731795,1.310259,0.262797,1.331799,-0.649468,-0.039117,-0.102634,-0.966252,0.236271,-0.098111,0.070286,-0.160084,-29.423813,-37.893448,10.689697,,,,,,
1478384902.68,-2.787689,1.285463,0.306499,1.398943,-0.690560,-0.105355,-0.097549,-0.959568,0.264033,-0.074966,0.041080,-0.079524,-29.124512,-37.592102,12.041748,,,,,,
1478384902.70,-2.840744,1.259276,0.346859,1.440572,-0.744476,-0.165262,-0.090827,-0.951869,0.292739,-0.016335,-0.003805,-0.023254,-29.124512,-37.592102,12.041748,,,,,,
1478384902.72,-2.889673,1.233033,0.381968,1.396041,-0.815215,-0.177287,-0.082600,-0.943498,0.320918,0.027409,-0.042189,-0.002711,-28.900269,-37.290680,13.468079,,,,,,
1478384902.74,-2.931488,1.207487,0.409498,1.323474,-0.770539,-0.166606,-0.074117,-0.934726,0.347555,0.067113,-0.004270,0.070582,-28.151627,-36.687973,16.173767,,,,,,
1478384902.76,-2.966462,1.183176,0.431481,1.235988,-0.717382,-0.158074,-0.065859,-0.925811,0.372205,0.077440,-0.000901,0.130450,-27.627518,-36.386459,17.678101,,,,,,
1478384902.78,-2.997416,1.160814,0.447683,1.108716,-0.868844,-0.112770,-0.057269,-0.917128,0.394457,0.093509,-0.048250,0.098981,-27.326843,-35.785110,19.029297,,,,,,
1478384902.80,-3.027157,1.139430,0.458052,1.103150,-1.096555,-0.056780,-0.047743,-0.908395,0.415378,0.071669,-0.045844,-0.028033,-27.326843,-35.785110,19.029297,,,,,,
1478384902.82,-3.059288,1.116135,0.467400,1.233412,-1.215197,-0.113506,-0.036104,-0.898410,0.437671,-0.021971,-0.068707,-0.179447,-27.703293,-35.558472,20.674866,,,,,,
1478384902.84,-3.093143,1.089182,0.479087,1.462031,-1.138809,-0.221877,-0.022433,-0.886248,0.462667,-0.097211,-0.079694,-0.306600,-27.253418,-35.182266,21.878296,,,,,,
1478384902.86,-3.130000,1.055561,0.495526,1.839789,-1.104553,-0.419852,-0.005712,-0.870177,0.492707,-0.182993,-0.092485,-0.378129,-25.378311,-34.129181,24.968872,,,,,,
1478384902.88,3.114548,1.014818,0.516744,2.138370,-0.977018,-0.645487,0.014272,-0.849385,0.527581,-0.087453,-0.227596,-0.353189,-24.626617,-33.302811,26.323853,,,,,,
1478384902.90,3.074448,0.967275,0.542483,2.457339,-0.915013,-0.914004,0.038079,-0.823342,0.566266,-0.104287,-0.325751,-0.448835,-24.626617,-33.302811,26.323853,,,,,,
1478384902.92,3.034594,0.912768,0.569651,2.776539,-0.886197,-1.102481,0.065311,-0.791200,0.608061,-0.215488,-0.431747,-0.474882,-24.101715,-32.625717,28.427063,,,,,,
1478384902.94,2.997495,0.851127,0.594014,3.055722,-0.943594,-1.170532,0.094652,-0.752024,0.652305,-0.252306,-0.816900,-0.663306,-22.224152,-31.423828,30.317261,,,,,,
1478384902.96,2.962842,0.785065,0.612261,3.244138,-1.209162,-1.128198,0.125766,-0.706871,0.696072,-0.149859,-1.211159,-0.852291,-20.193085,-28.719772,34.379517,,,,,,
1478384902.98,2.925529,0.713017,0.618983,3.657218,-1.941615,-0.756615,0.162160,-0.654119,0.738805,-0.159719,-1.237056,-0.791722,-18.914688,-27.067062,37.087280,,,,,,
1478384903.00,2.884782,0.635770,0.607599,3.922282,-2.678560,-0.357522,0.204370,-0.593797,0.778227,-0.141412,-0.845992,-0.113524,-18.914688,-27.067062,37.087280,,,,,,
1478384903.02,2.827534,0.562648,0.590178,3.557848,-3.613254,-0.325469,0.261300,-0.533428,0.804473,-0.183358,-0.798908,-0.183730,-16.879349,-24.064941,39.198608,,,,,,
1478384903.04,2.777381,0.503352,0.567781,2.771049,-2.528156,0.175100,0.312032,-0.482365,0.818511,-0.178731,-0.843639,0.055955,-13.718246,-20.762436,41.695343,,,,,,
1478384903.06,2.758123,0.472474,0.537186,1.437808,-1.333128,0.936784,0.333152,-0.455090,0.825774,-0.342215,-0.450061,-0.012801,-8.675720,-15.734024,45.105682,,,,,,
1478384903.08,2.748737,0.461817,0.506697,0.809107,-1.200189,1.095251,0.342725,-0.445575,0.827044,-0.326810,-0.293591,-0.154818,-8.445663,-14.383362,45.778931,,,,,,
1478384903.10,2.734752,0.471771,0.481844,-0.758827,-1.122877,1.356637,0.352484,-0.454464,0.818057,-0.387442,-0.499927,-0.737933,-8.445663,-14.383362,45.778931,,,,,,
,,,,,,,,,,,,,,,,37.354400,-122.033446,43.694763,0.660000,287.226562,1478384903.00
1478384903.12,2.737271,0.516144,0.465009,-2.094609,0.296830,1.632803,0.342147,-0.493530,0.799602,-0.456267,-0.345245,-0.411647,-7.167404,-13.633286,45.864471,,,,,,
1478384903.14,2.766515,0.573118,0.450203,-2.624587,1.468168,1.679977,0.307808,-0.542254,0.781802,-0.388222,0.138613,-0.204288,-7.020905,-14.458420,45.718384,,,,,,
1478384903.16,2.809848,0.643341,0.442029,-3.525378,2.199144,1.426136,0.260586,-0.599872,0.756471,-0.185619,0.205249,-0.237367,-8.003220,-16.334183,44.964172,,,,,,
1478384903.18,2.862210,0.730121,0.438755,-4.450395,2.667038,1.488851,0.205468,-0.666960,0.716203,-0.012933,0.046553,-0.118562,-13.123322,-21.812210,41.929413,,,,,,
1478384903.20,2.924274,0.835265,0.429438,-5.359192,2.787431,1.667096,0.144671,-0.741474,0.655199,0.124173,0.047459,-0.057253,-13.123322,-21.812210,41.929413,,,,,,
1478384903.22,2.992413,0.955733,0.409374,-6.037754,2.478189,1.718486,0.085760,-0.816737,0.570602,0.243189,0.193278,0.097550,-15.307983,-24.965225,38.917084,,,,,,
1478384903.24,3.064785,1.084985,0.374682,-6.528494,1.953360,1.530283,0.035828,-0.884297,0.465549,0.331176,0.292210,0.321820,-18.544098,-28.794296,34.846191,,,,,,
1478384903.26,-3.135484,1.224662,0.319481,-7.170477,1.392033,1.281885,-0.002073,-0.940691,0.339257,0.372815,0.028628,0.493338,-20.801193,-31.949036,30.108032,,,,,,
1478384903.28,-2.976323,1.368666,0.179471,-7.347705,1.193110,1.300261,-0.033028,-0.979641,0.198021,0.381463,-0.084308,0.721382,-24.409103,-37.360001,19.138184,,,,,,
1478384903.30,-2.278533,1.485945,-0.493171,-6.993469,1.740304,1.438072,-0.064396,-0.996402,0.055097,0.183811,-0.192120,1.091784,-24.409103,-37.360001,19.138184,,,,,,
1478384903.32,-0.864694,1.451048,-1.868464,-6.021516,2.528733,1.299831,-0.090899,-0.992839,-0.077516,-0.039411,-0.396230,1.064790,-25.831635,-38.866165,12.978516,,,,,,
1478384903.34,-0.534163,1.362472,-2.138207,-4.041456,3.478489,1.041988,-0.105297,-0.978379,-0.178009,0.057872,-0.087997,1.208024,-28.002365,-39.997406,6.735168,,,,,,
1478384903.36,-0.406170,1.303060,-2.202820,-2.296751,2.927040,0.429164,-0.104522,-0.964372,-0.243025,0.319579,0.519396,1.195814,-29.343246,-39.853043,1.096375,,,,,,
1478384903.38,-0.356947,1.286372,-2.212902,0.128876,1.471552,0.122743,-0.098048,-0.959823,-0.262918,0.384257,0.691665,0.770288,-29.558014,-39.032410,-3.258240,,,,,,
1478384903.40,-0.370506,1.316067,-2.176741,2.259446,0.960682,-0.251041,-0.091240,-0.967731,-0.234885,-0.048698,0.633366,1.094306,-29.558014,-39.032410,-3.258240,,,,,,
1478384903.42,-0.396130,1.377795,-2.125910,3.474577,1.453519,-0.822382,-0.074008,-0.981433,-0.176952,-0.121152,0.286929,1.073802,-28.581451,-39.183899,-4.748047,,,,,,
1478384903.44,-0.407459,1.442941,-2.079133,2.544470,1.752492,-0.963141,-0.050528,-0.991838,-0.117068,0.245353,-0.345519,0.165011,-28.060516,-39.482086,-2.941895,,,,,,
1478384903.46,-0.416551,1.473704,-2.038464,1.175929,1.512982,0.137499,-0.039223,-0.995290,-0.088650,0.426994,-1.277155,-0.446232,-28.292160,-40.380356,-1.216614,,,,,,
1478384903.48,-0.688636,1.495909,-1.729633,2.260579,1.954718,0.509207,-0.047545,-0.997197,-0.057768,-0.096437,-0.127314,1.461408,-27.169876,-40.905121,-0.978760,,,,,,
1478384903.50,-1.736194,1.526099,-0.639695,3.780558,2.157842,-0.558149,-0.044072,-0.999001,0.007357,0.312993,0.383324,1.111784,-27.169876,-40.905121,-0.978760,,,,,,
1478384903.52,-2.729745,1.511342,0.402854,1.574590,2.194065,-1.035198,-0.023786,-0.998233,0.054451,0.839688,-0.429181,0.082314,-27.095978,-40.528244,0.895874,,,,,,
1478384903.54,-2.828821,1.476851,0.513963,2.100832,-0.147091,0.948679,-0.028864,-0.995590,0.089256,0.580210,-0.099869,0.023582,-27.101273,-41.427414,1.723511,,,,,,
1478384903.56,-2.804401,1.431562,0.477483,1.834623,-0.956796,0.693841,-0.045915,-0.990323,0.130970,-0.035200,0.236386,0.282070,-26.951935,-41.201294,2.849304,,,,,,
1478384903.58,-2.869334,1.400440,0.517843,1.492214,-1.193846,-0.104449,-0.045589,-0.985524,0.163289,-0.407445,0.087545,0.240825,-27.174789,-40.074341,4.793701,,,,,,
1478384903.60,-2.916393,1.377157,0.553898,1.094800,-0.095977,0.093400,-0.042970,-0.981310,0.187573,-0.208846,-0.163404,0.317966,-27.174789,-40.074341,4.793701,,,,,,
1478384903.62,-2.924719,1.355233,0.575146,1.127592,0.870849,-0.092994,-0.046026,-0.976856,0.208887,-0.013895,-0.013638,0.049673,-27.252716,-40.072403,6.742920,,,,,,
1478384903.64,-2.937918,1.335417,0.604359,0.956979,0.624454,-0.030931,-0.047172,-0.972426,0.228391,0.182685,-0.139009,0.094103,-27.855377,-40.070602,8.536865,,,,,,
1478384903.66,-2.940186,1.317263,0.608117,0.910405,-0.347363,0.188546,-0.050177,-0.968032,0.245756,0.209738,0.058929,-0.034895,-27.329041,-39.695374,8.765991,,,,,,
1478384903.68,-2.952493,1.298112,0.606577,0.931027,-0.768168,0.240846,-0.050625,-0.963051,0.264516,0.121044,0.076333,0.088908,-27.404602,-39.544556,9.589844,,,,,,
1478384903.70,-2.958796,1.279368,0.597030,0.877968,-0.798484,0.310117,-0.052229,-0.957834,0.282533,-0.005449,0.004481,0.020949,-27.404602,-39.544556,9.589844,,,,,,
1478384903.72,-2.968928,1.261499,0.591469,0.864822,-0.739022,0.200211,-0.052297,-0.952548,0.299863,-0.059077,-0.021116,-0.051008,-27.555481,-39.318283,10.862610,,,,,,
1478384903.74,-2.980794,1.242839,0.590164,0.958058,-0.602589,0.158011,-0.051572,-0.946702,0.317955,-0.073245,0.017121,-0.075859,-27.405258,-38.566177,12.961914,,,,,,
1478384903.76,-2.994943,1.222533,0.593688,1.039666,-0.518036,0.064365,-0.049867,-0.939967,0.337603,-0.058119,0.043910,-0.064791,-27.404922,-38.190277,13.860718,,,,,,
1478384903.78,-3.011224,1.200995,0.599960,1.106793,-0.533135,0.028105,-0.046986,-0.932399,0.358363,-0.012584,0.031169,-0.045573,-27.179459,-37.814453,14.686890,,,,,,
1478384903.80,-3.029453,1.178394,0.606430,1.163730,-0.686756,0.013892,-0.042794,-0.923993,0.380007,0.009194,0.009808,-0.077853,-27.179459,-37.814453,14.686890,,,,,,
1478384903.82,-3.051200,1.154121,0.612447,1.252732,-0.875524,-0.004635,-0.036534,-0.914439,0.403070,-0.005794,-0.082982,-0.112787,-27.179337,-37.363174,15.960510,,,,,,
1478384903.84,-3.075540,1.127957,0.617967,1.366191,-1.040467,-0.001686,-0.028283,-0.903539,0.427572,0.018197,-0.147578,-0.223517,-26.730789,-36.685181,18.962952,,,,,,
1478384903.86,-3.102874,1.097288,0.619770,1.648829,-1.447470,0.052175,-0.017652,-0.889974,0.455670,-0.011142,-0.054011,-0.343899,-26.430786,-36.158600,20.539368,,,,,,
1478384903.88,-3.137867,1.059800,0.622597,2.037131,-1.687986,-0.103800,-0.001822,-0.872258,0.489043,-0.115594,0.023304,-0.318465,-25.905899,-35.556732,22.417786,,,,,,
1478384903.90,3.106418,1.014612,0.631564,2.352264,-1.428562,-0.370713,0.018566,-0.849276,0.527623,-0.135388,-0.210523,-0.272252,-25.905899,-35.556732,22.417786,,,,,,
1478384903.92,3.069853,0.964690,0.647952,2.539810,-0.953945,-0.717386,0.040833,-0.821873,0.568206,-0.200013,-0.367199,-0.278655,-25.530090,-34.579330,24.818665,,,,,,
1478384903.94,3.039864,0.910109,0.669013,2.758632,-0.526497,-0.913488,0.062319,-0.789570,0.610488,-0.092715,-0.425991,-0.377913,-24.628967,-33.752594,26.550171,,,,,,
1478384903.96,3.013446,0.849065,0.686604,3.111151,-0.814025,-0.884818,0.084433,-0.750663,0.655268,0.076135,-0.558282,-0.592264,-21.925156,-31.423141,30.995300,,,,,,
1478384903.98,2.975402,0.780225,0.695760,3.540830,-2.184356,-0.764972,0.117578,-0.703439,0.700963,0.213172,-1.081458,-0.930669,-20.871231,-29.846039,33.101013,,,,,,
1478384904.00,2.907122,0.706517,0.691105,3.621164,-4.404720,-0.320066,0.176715,-0.649189,0.739815,0.301983,-1.625195,-1.228798,-20.871231,-29.846039,33.101013,,,,,,
1478384904.02,2.815902,0.637120,0.664469,3.715627,-5.730881,0.117709,0.257190,-0.594883,0.761556,-0.298145,-0.915661,-0.059133,-19.594177,-28.342880,36.259338,,,,,,
1478384904.04,2.736882,0.566218,0.629298,3.838076,-4.113709,0.032623,0.332302,-0.536444,0.775759,-0.613247,-0.660501,0.625074,-15.083328,-24.889771,39.369019,,,,,,
1478384904.06,2.703471,0.501863,0.599610,3.091956,-1.510188,-0.288450,0.371925,-0.481060,0.793885,-0.768181,-0.743397,0.275878,-7.262115,-18.359314,44.827698,,,,,,
1478384904.08,2.703570,0.458470,0.586032,1.644830,0.236626,-0.375910,0.380348,-0.442577,0.812072,-0.935570,-0.674946,0.206376,-6.577332,-15.883408,45.727112,,,,,,
1478384904.10,2.713878,0.442047,0.585577,0.315280,0.612079,-0.332316,0.374922,-0.427790,0.822453,-0.700087,-0.168157,0.277477,-6.577332,-15.883408,45.727112,,,,,,
,,,,,,,,,,,,,,,,37.354401,-122.033454,44.281433,0.660000,253.476562,1478384904.00
1478384904.12,2.722806,0.442138,0.590960,-0.307945,0.418640,-0.073238,0.367548,-0.427873,0.825732,-0.411448,-0.041564,-0.290927,-6.646591,-14.533188,45.947357,,,,,,
1478384904.14,2.732648,0.457421,0.590041,-0.998196,0.721834,0.599501,0.356761,-0.441636,0.823213,-0.119334,-0.039596,-0.538163,-6.570358,-14.308350,45.797455,,,,,,
1478384904.16,2.765079,0.498490,0.586383,-2.325621,1.972497,1.103859,0.322936,-0.478100,0.816782,0.031190,-0.018177,-0.365045,-7.097595,-14.908646,45.493988,,,,,,
1478384904.18,2.807421,0.558935,0.583461,-2.991282,1.957898,1.161425,0.278074,-0.530284,0.800921,-0.140562,0.228099,-0.315722,-11.160965,-18.435333,43.813904,,,,,,
1478384904.20,2.845323,0.629793,0.581424,-3.623654,1.865624,1.227381,0.235943,-0.588978,0.772940,-0.141567,0.204395,-0.283606,-11.160965,-18.435333,43.813904,,,,,,
1478384904.22,2.890769,0.719052,0.577119,-4.641162,2.347805,1.442759,0.186755,-0.658672,0.728885,-0.044573,0.124141,-0.202137,-12.593811,-20.762054,42.081604,,,,,,
1478384904.24,2.950996,0.825989,0.567606,-5.419070,2.797362,1.532390,0.128411,-0.735219,0.665556,0.054725,0.185811,-0.041258,-14.702682,-23.464249,39.893585,,,,,,
1478384904.26,3.020975,0.945601,0.546870,-6.044668,2.585556,1.594824,0.070421,-0.810849,0.581003,0.158140,0.215573,-0.019388,-17.636902,-26.542343,36.798462,,,,,,
1478384904.28,3.102905,1.076301,0.505923,-6.675189,2.220389,1.594859,0.018356,-0.880209,0.474232,0.271851,0.147070,0.208767,-23.426834,-32.926529,27.609802,,,,,,
1478384904.30,-3.067240,1.217441,0.422372,-7.324868,1.514566,1.580035,-0.025706,-0.938217,0.345092,0.344065,-0.068665,0.489824,-23.426834,-32.926529,27.609802,,,,,,
1478384904.32,-2.852958,1.359871,0.218503,-7.503191,0.602169,1.455415,-0.059594,-0.977838,0.200704,0.444009,-0.133216,0.558909,-24.706024,-35.707092,22.055237,,,,,,
1478384904.34,-2.118329,1.461048,-0.509774,-6.992221,0.889177,1.827836,-0.093516,-0.993984,0.057018,0.349589,-0.270772,1.189258,-26.655365,-37.663406,15.741638,,,,,,
1478384904.36,-1.072730,1.417155,-1.536745,-5.967163,1.607327,2.131821,-0.134445,-0.988220,-0.073110,-0.060379,-0.496246,0.985906,-27.925964,-38.644257,9.881897,,,,,,
1478384904.38,-0.745223,1.330396,-1.818799,-4.029052,3.102685,1.377521,-0.161459,-0.971243,-0.174982,0.008550,-0.105433,1.190379,-27.925964,-38.644257,9.881897,,,,,,
1478384904.40,-0.604668,1.277582,-1.898089,-1.874889,2.974644,0.528315,-0.164311,-0.957320,-0.237783,0.198063,0.477355,1.204733,-31.430176,-37.605026,-0.881287,,,,,,
1478384904.42,-0.565048,1.272142,-1.895239,0.843141,1.620999,0.080583,-0.157550,-0.955733,-0.248499,0.373584,0.849715,0.915003,-31.495514,-36.934448,-5.308899,,,,,,
1478384904.44,-0.619782,1.317782,-1.804907,3.490954,1.773308,-0.590703,-0.145402,-0.968162,-0.203765,0.236818,0.936744,1.244185,-31.343048,-36.860870,-6.732605,,,,,,
1478384904.46,-0.746514,1.396078,-1.637499,4.047184,1.740806,-1.251178,-0.118045,-0.984776,-0.127602,0.175876,0.041416,0.343972,-31.421753,-37.309753,-5.607056,,,,,,
1478384904.48,-0.838973,1.444527,-1.511573,1.681555,1.550340,-0.735496,-0.093689,-0.992039,-0.084152,0.689545,-1.882671,-0.790039,-30.678619,-38.283096,-3.946716,,,,,,
1478384904.50,-1.145141,1.466723,-1.177112,2.663725,1.080312,0.344026,-0.094616,-0.994589,-0.042896,0.373501,-0.384531,1.395817,-30.678619,-38.283096,-3.946716,,,,,,
1478384904.52,-1.855886,1.476821,-0.449913,3.880256,0.637080,-0.602767,-0.090050,-0.995588,0.026391,0.537850,0.447446,0.700553,-28.585709,-39.181046,-1.898071,,,,,,
1478384904.54,-2.431272,1.456019,0.143253,2.517508,0.675754,-0.691574,-0.074680,-0.993420,0.086828,0.353458,-0.051212,0.175562,-28.590546,-39.478714,0.427795,,,,,,
1478384904.56,-2.613227,1.417615,0.330611,2.280291,-0.153279,0.551513,-0.076920,-0.988291,0.131775,-0.163528,0.003763,0.220016,-28.521057,-40.001617,2.529968,,,,,,
1478384904.58,-2.695666,1.374648,0.402676,2.091510,-0.627930,0.092595,-0.084056,-0.980824,0.175835,-0.175297,0.132878,0.583519,-27.772751,-39.774811,4.336853,,,,,,
1478384904.60,-2.798037,1.346030,0.499391,1.465462,-0.296536,-0.376620,-0.075074,-0.974846,0.209854,-0.059738,-0.084144,0.264878,-27.772751,-39.774811,4.336853,,,,,,
1478384904.62,-2.837331,1.319262,0.539447,1.455981,0.216895,0.085266,-0.074565,-0.968532,0.237458,0.028163,0.020259,0.178100,-28.373077,-39.172791,6.354004,,,,,,
1478384904.64,-2.866883,1.293242,0.577220,1.323181,0.286286,-0.227822,-0.074328,-0.961729,0.263730,-0.088391,-0.135119,0.016208,-28.601639,-39.170395,8.751709,,,,,,
1478384904.66,-2.898113,1.271155,0.610969,1.113664,-0.082070,-0.090305,-0.071162,-0.955443,0.286471,0.246882,-0.176042,0.123289,-28.526871,-38.944565,9.576782,,,,,,
1478384904.68,-2.919566,1.249900,0.626224,1.100277,-0.493609,0.033545,-0.069457,-0.948953,0.307675,0.166198,0.096811,0.093586,-27.778015,-38.793365,10.783813,,,,,,
1478384904.70,-2.941911,1.228694,0.638639,1.053420,-0.496948,0.036659,-0.066542,-0.942051,0.328803,0.054580,0.101552,0.127710,-27.778015,-38.793365,10.783813,,,,,,
1478384904.72,-2.956938,1.208266,0.644473,1.008838,-0.506790,0.119892,-0.065115,-0.935003,0.348612,0.042928,0.015432,0.041998,-28.079697,-38.792236,11.905762,,,,,,
1478384904.74,-2.970676,1.189161,0.646747,0.917644,-0.627501,0.137564,-0.063347,-0.928057,0.367012,0.044349,0.007937,0.037178,-28.156021,-38.415207,13.928894,,,,,,
1478384904.76,-2.984204,1.170424,0.645495,0.930034,-0.802728,0.204414,-0.061091,-0.920916,0.384944,0.053645,0.022143,-0.006099,-27.629684,-37.739090,15.057190,,,,,,
1478384904.78,-3.000095,1.150975,0.642551,0.971159,-1.005540,0.184689,-0.057482,-0.913162,0.403523,0.025164,0.039428,-0.043492,-27.404907,-37.438034,16.108459,,,,,,
1478384904.80,-3.019898,1.130876,0.641998,1.002922,-0.976320,0.119651,-0.051698,-0.904786,0.422718,-0.052504,0.041108,-0.019108,-27.404907,-37.438034,16.108459,,,,,,
1478384904.82,-3.036950,1.110646,0.642397,1.016031,-0.753366,0.109603,-0.046385,-0.895986,0.441653,-0.026460,0.024373,-0.025058,-27.254333,-36.987061,17.083679,,,,,,
1478384904.84,-3.052161,1.089475,0.642342,1.083318,-0.817398,0.088176,-0.041347,-0.886384,0.461100,0.035060,-0.031081,-0.038859,-26.878326,-36.009811,19.334473,,,,,,
1478384904.86,-3.071762,1.067205,0.643360,1.129697,-1.004242,0.065305,-0.033671,-0.875855,0.481398,0.135691,-0.144485,-0.116576,-26.502975,-35.483459,20.686646,,,,,,
1478384904.88,-3.094280,1.042804,0.643852,1.298439,-1.153443,0.028862,-0.023827,-0.863820,0.503236,0.057030,-0.073680,-0.257234,-26.278305,-35.031876,22.262512,,,,,,
1478384904.90,-3.122934,1.013090,0.649842,1.619911,-1.186986,-0.199313,-0.009874,-0.848471,0.529150,-0.147322,-0.005945,-0.308752,-26.278305,-35.031876,22.262512,,,,,,
1478384904.92,3.127831,0.976471,0.662326,1.946087,-1.019659,-0.407696,0.007705,-0.828526,0.559897,-0.195892,-0.220363,-0.260260,-25.601379,-34.205673,23.466858,,,,,,
1478384904.94,3.095036,0.934061,0.678761,2.204512,-0.986029,-0.620839,0.027672,-0.804041,0.593929,-0.162864,-0.364416,-0.407329,-25.527725,-33.903885,25.266724,,,,,,
1478384904.96,3.059510,0.884626,0.697698,2.582570,-1.034767,-0.798741,0.051948,-0.773678,0.631446,-0.149726,-0.400974,-0.488334,-23.275146,-32.100174,28.958740,,,,,,
1478384904.98,3.023819,0.826046,0.715020,3.064709,-1.275270,-0.893654,0.079641,-0.735257,0.673093,-0.092657,-0.640445,-0.713590,-22.223694,-31.048004,31.141113,,,,,,
1478384905.00,2.979141,0.756711,0.726639,3.472529,-2.178012,-0.839870,0.117599,-0.686534,0.717525,-0.132614,-1.220479,-1.056056,-22.223694,-31.048004,31.141113,,,,,,
1478384905.02,2.924399,0.686336,0.728943,3.459416,-2.975165,-0.659385,0.166697,-0.633707,0.755399,0.031545,-1.304052,-0.767972,-21.245560,-29.545593,33.546387,,,,,,
1478384905.04,2.860891,0.614210,0.715626,3.740077,-3.888329,-0.188098,0.226397,-0.576313,0.785244,-0.100070,-1.012295,-0.113247,-18.688461,-27.067886,36.264526,,,,,,
1478384905.06,2.795144,0.542361,0.688301,3.773789,-4.002029,0.019990,0.290830,-0.516160,0.805604,-0.347089,-0.680877,0.378005,-12.297867,-21.662048,42.087250,,,,,,
1478384905.08,2.737223,0.474749,0.660932,3.296495,-3.121107,-0.230564,0.349927,-0.457115,0.817677,-0.501096,-0.925484,-0.117742,-8.609848,-18.135147,43.988556,,,,,,
1478384905.10,2.713769,0.431047,0.641100,1.801804,-0.611217,0.150893,0.376941,-0.417822,0.826644,-0.730975,-0.900034,0.223908,-8.609848,-18.135147,43.988556,,,,,,
1478384905.12,2.725906,0.419678,0.621034,0.305200,0.333608,0.832542,0.368775,-0.407466,0.835450,-0.459183,-0.225743,0.398895,-7.026215,-15.733719,45.422180,,,,,,
,,,,,,,,,,,,,,,,37.354403,-122.033460,44.048706,0.350000,235.546875,1478384905.00
1478384905.14,2.732541,0.438283,0.602215,-0.850673,-0.398901,1.331743,0.360146,-0.424385,0.830778,-0.250664,-0.005165,-0.343168,-6.120010,-14.158112,46.026520,,,,,,
1478384905.16,2.732959,0.464133,0.575364,-0.539961,-0.389788,1.818440,0.355320,-0.447648,0.820585,0.122250,0.005280,-0.541425,-6.569016,-14.008347,45.796570,,,,,,
1478384905.18,2.764098,0.502131,0.542825,-1.912254,1.483132,2.169511,0.323093,-0.481294,0.814841,-0.019947,0.024233,-0.448218,-8.150604,-15.508423,45.710236,,,,,,
1478384905.20,2.818139,0.568541,0.515073,-2.943344,2.161418,2.279630,0.267842,-0.538403,0.798989,-0.356343,0.207897,-0.170983,-8.150604,-15.508423,45.710236,,,,,,
1478384905.22,2.881831,0.641441,0.484359,-3.322701,2.511781,2.248950,0.205797,-0.598351,0.774354,-0.132433,0.234780,-0.321717,-9.955566,-17.009644,44.496735,,,,,,
1478384905.24,2.963805,0.728837,0.451619,-4.407932,3.354735,2.136128,0.131923,-0.666003,0.734191,0.131245,-0.040739,-0.199493,-12.288406,-19.336395,42.755371,,,,,,
1478384905.26,3.057198,0.831561,0.412283,-5.218970,3.085726,2.023930,0.056791,-0.738984,0.671325,0.345125,-0.090438,-0.091171,-15.371582,-21.888580,40.557159,,,,,,
1478384905.28,-3.130861,0.946795,0.355851,-5.926805,2.211250,1.933751,-0.006270,-0.811547,0.584253,0.572447,0.132806,-0.039362,-23.037735,-27.895828,33.298523,,,,,,
1478384905.30,-3.032820,1.068381,0.276937,-6.370349,1.188627,1.597886,-0.052276,-0.876422,0.478698,0.519027,0.213443,0.139222,-23.037735,-27.895828,33.298523,,,,,,
1478384905.32,-2.906287,1.195461,0.156093,-6.906218,0.767825,1.377839,-0.085466,-0.930385,0.356483,0.401170,0.037089,0.415215,-24.545044,-31.050415,28.717957,,,,,,
1478384905.34,-2.646204,1.322069,-0.094322,-7.438663,1.346974,1.341111,-0.117023,-0.969227,0.216577,0.353305,-0.265301,0.773840,-25.974121,-33.379700,24.435669,,,,,,
1478384905.36,-1.983889,1.408230,-0.726458,-7.335200,2.581061,1.262417,-0.148237,-0.986815,0.064974,0.244016,-0.404191,0.971647,-27.326736,-35.785187,18.954346,,,,,,
1478384905.38,-1.141080,1.382890,-1.524486,-6.358164,2.748503,1.039140,-0.169819,-0.982397,-0.077824,0.178776,-0.290506,0.725636,-29.348480,-37.216660,12.488403,,,,,,
1478384905.40,-0.759762,1.305496,-1.859398,-4.633589,2.679824,0.826130,-0.180589,-0.965014,-0.190095,0.680162,-0.179716,1.009308,-29.348480,-37.216660,12.488403,,,,,,
1478384905.42,-0.604505,1.243644,-1.981215,-2.634791,1.405261,0.433990,-0.182640,-0.946961,-0.264400,0.655418,0.508332,0.876384,-31.130493,-37.529572,-0.428528,,,,,,
1478384905.44,-0.577245,1.228748,-1.990859,0.408176,0.781628,0.161916,-0.183043,-0.942070,-0.281069,0.120330,1.031776,0.907229,-31.571503,-36.858551,-4.409912,,,,,,
1478384905.46,-0.608854,1.268952,-1.944428,2.969434,0.442933,-1.029056,-0.170023,-0.954790,-0.243861,-0.266546,0.960146,0.887141,-31.793472,-36.484451,-5.313232,,,,,,
1478384905.48,-0.686331,1.344303,-1.854805,3.855196,0.508731,-1.246361,-0.142305,-0.974460,-0.173715,-0.026289,0.034244,0.968973,-31.649094,-37.383392,-4.259155,,,,,,
