timestamp(unix),attitude_roll(radians),attitude_pitch(radians),attitude_yaw(radians),rotation_rate_x(radians/s),rotation_rate_y(radians/s),rotation_rate_z(radians/s),gravity_x(G),gravity_y(G),gravity_z(G),user_acc_x(G),user_acc_y(G),user_acc_z(G),magnetic_field_x(microteslas),magnetic_field_y(microteslas),magnetic_field_z(microteslas),latitude(degree),longitude(degree),altitude(meter),speed(m/s),course(degree),timestamp(unix)
1478384764.33,-0.345423,1.500572,1.470095,-0.043971,-0.009151,-0.017334,-0.023758,-0.997535,-0.066022,0.018967,0.013862,-0.000964,18.890686,-39.978325,10.895691,,,,,,
,,,,,,,,,,,,,,,,37.354525,-122.033590,44.342712,0.190000,200.742188,1478384764.33
1478384764.35,-0.345519,1.500135,1.469139,-0.003142,-0.100363,0.016675,-0.023912,-0.997505,-0.066430,0.006212,0.000312,-0.023353,18.890686,-39.978325,10.895691,,,,,,
,,,,,,,,,,,,,,,,37.354525,-122.033590,44.342712,0.190000,200.742188,1478384764.00
1478384764.37,-0.350618,1.500199,1.471632,0.024607,-0.127206,-0.005787,-0.024228,-0.997509,-0.066247,0.000959,0.020535,-0.002143,19.641815,-39.828621,10.602661,,,,,,
1478384764.39,-0.350737,1.500544,1.469500,0.006439,-0.112411,-0.012189,-0.024118,-0.997533,-0.065921,-0.004019,0.020254,0.006335,19.716156,-39.978615,10.603882,,,,,,
1478384764.41,-0.351534,1.500844,1.468680,-0.004468,-0.036761,-0.018410,-0.024068,-0.997554,-0.065621,0.005269,0.003490,0.022835,19.040131,-40.128395,10.822632,,,,,,
1478384764.43,-0.342054,1.500764,1.459555,-0.030206,0.022762,-0.025909,-0.023471,-0.997549,-0.065921,0.002750,0.015066,0.007709,19.039795,-40.278618,10.598022,,,,,,
1478384764.45,-0.330638,1.500561,1.448371,-0.014213,0.019646,-0.023754,-0.022783,-0.997535,-0.066377,0.006807,0.015280,0.000840,19.039795,-40.278618,10.598022,,,,,,
1478384764.47,-0.320643,1.500707,1.439384,-0.015449,0.070826,-0.026821,-0.022072,-0.997545,-0.066463,0.000863,0.007341,0.008693,19.641479,-40.054070,10.153381,,,,,,
1478384764.49,-0.306949,1.500494,1.427044,-0.045266,0.060931,-0.041858,-0.021224,-0.997530,-0.066961,0.003707,0.019853,0.004034,19.640930,-40.128914,10.303589,,,,,,
1478384764.51,-0.285752,1.499860,1.406632,-0.027041,0.031286,-0.028021,-0.019979,-0.997485,-0.068003,0.011251,0.013095,-0.009924,18.967712,-39.603554,10.670288,,,,,,
1478384764.53,-0.275256,1.499664,1.396882,-0.006796,0.042353,-0.001247,-0.019317,-0.997471,-0.068397,0.012634,0.009388,-0.002327,19.865143,-40.278831,10.381287,,,,,,
1478384764.55,-0.269771,1.499569,1.391812,-0.034279,-0.011881,0.023128,-0.018967,-0.997464,-0.068593,0.011460,0.006253,0.005437,19.865143,-40.278831,10.381287,,,,,,
1478384764.57,-0.278213,1.498532,1.399292,-0.042610,-0.050898,0.064673,-0.019829,-0.997390,-0.069425,0.008233,0.010253,0.000089,19.790680,-40.128761,10.455139,,,,,,
1478384764.59,-0.289991,1.497269,1.410592,-0.017156,-0.009300,0.058261,-0.021006,-0.997298,-0.070394,0.001505,0.016097,-0.009852,19.642151,-39.828835,10.377686,,,,,,
1478384764.61,-0.301127,1.496681,1.421895,0.006199,0.013147,0.054089,-0.021962,-0.997255,-0.070716,0.005544,0.025239,-0.005166,18.966034,-40.053780,10.446655,,,,,,
1478384764.63,-0.317158,1.496367,1.438727,-0.000326,0.059137,0.064889,-0.023191,-0.997231,-0.070652,-0.003878,0.022134,0.000477,19.416473,-40.054070,10.151123,,,,,,
1478384764.65,-0.329421,1.496302,1.453413,0.007857,0.146226,0.027749,-0.024076,-0.997227,-0.070424,-0.003618,-0.001125,0.004368,19.416473,-40.054070,10.151123,,,,,,
1478384764.67,-0.334010,1.496353,1.460832,-0.000627,0.130073,0.018074,-0.024382,-0.997230,-0.070264,0.000411,-0.001152,0.006345,19.717285,-39.904137,10.078674,,,,,,
1478384764.69,-0.350025,1.493860,1.478569,0.136655,0.187554,0.052663,-0.026357,-0.997042,-0.072200,-0.039119,0.066775,0.076243,19.190460,-40.203850,10.374329,,,,,,
1478384764.71,-0.327806,1.496255,1.458169,-0.110041,-0.030965,-0.118246,-0.023978,-0.997223,-0.070507,-0.003397,-0.075577,-0.012196,18.740143,-40.203621,10.594788,,,,,,
1478384764.73,-0.292100,1.495986,1.421692,0.006427,-0.126187,-0.086255,-0.021522,-0.997203,-0.071574,0.019707,-0.067571,-0.070668,19.716156,-40.053841,10.379150,,,,,,
1478384764.75,-0.275259,1.498580,1.400714,0.131490,-0.257318,-0.112218,-0.019611,-0.997394,-0.069438,0.009266,0.034243,-0.024511,19.716156,-40.053841,10.379150,,,,,,
1478384764.77,-0.273839,1.502411,1.393224,0.118827,-0.296940,-0.119824,-0.018479,-0.997663,-0.065786,-0.035690,0.016568,0.042135,19.715149,-40.278831,10.379822,,,,,,
1478384764.79,-0.238290,1.504814,1.354597,0.084848,-0.037579,-0.193960,-0.015563,-0.997824,-0.064071,-0.052750,-0.027231,-0.010804,19.266815,-39.828621,10.598938,,,,,,
1478384764.81,-0.171061,1.507613,1.288677,0.168404,0.103591,-0.283172,-0.010748,-0.998005,-0.062220,-0.021356,0.011966,-0.045629,19.490479,-40.128624,10.602051,,,,,,
1478384764.83,-0.075993,1.511696,1.194992,0.153661,0.034830,-0.317576,-0.004484,-0.998254,-0.058895,0.040724,0.032159,-0.018009,20.317780,-39.528389,10.833618,,,,,,
1478384764.85,0.068079,1.513651,1.048303,0.136487,-0.250033,-0.307716,0.003885,-0.998368,-0.056982,0.126074,-0.027877,-0.053461,20.317780,-39.528389,10.833618,,,,,,
1478384764.87,0.191584,1.515142,0.913536,0.128445,-0.770885,-0.403184,0.010592,-0.998452,-0.054608,0.203931,-0.037971,-0.126682,20.844055,-39.303535,10.688171,,,,,,
1478384764.89,0.341359,1.515915,0.739080,0.180774,-1.501470,-0.476687,0.018363,-0.998494,-0.051689,0.240380,-0.013896,-0.150429,20.470062,-39.003304,10.908569,,,,,,
1478384764.91,0.475961,1.516006,0.566280,0.204230,-2.106435,-0.386615,0.025092,-0.998499,-0.048676,0.269204,-0.018758,-0.168181,21.370514,-39.154045,10.167969,,,,,,
1478384764.93,0.581021,1.516318,0.413772,0.224785,-2.513546,-0.349236,0.029887,-0.998516,-0.045516,0.327763,0.009091,-0.200608,22.497162,-38.929497,9.728577,,,,,,
1478384764.95,0.658612,1.516344,0.280007,0.205175,-2.980689,-0.233029,0.033310,-0.998518,-0.043042,0.323563,-0.009936,-0.209018,22.497162,-38.929497,9.728577,,,,,,
1478384764.97,0.670645,1.516465,0.204462,0.076176,-3.235133,-0.143138,0.033750,-0.998524,-0.042543,0.367923,0.031743,-0.187590,23.101196,-38.631279,7.933777,,,,,,
1478384764.99,0.640941,1.513976,0.169033,-0.083555,-3.247304,-0.129560,0.033958,-0.998386,-0.045519,0.350259,0.001652,-0.160291,23.555237,-38.182625,6.586914,,,,,,
1478384765.01,0.575986,1.510223,0.170480,-0.197861,-3.126597,-0.083485,0.032972,-0.998166,-0.050769,0.319781,-0.033786,-0.084500,24.982819,-38.184349,4.876221,,,,,,
1478384765.03,0.493099,1.505262,0.192238,-0.270594,-3.027408,-0.065176,0.030999,-0.997853,-0.057686,0.242103,-0.015422,-0.040809,25.135345,-38.261284,2.927917,,,,,,
1478384765.05,0.420412,1.498721,0.205769,-0.345607,-2.920662,-0.128050,0.029391,-0.997404,-0.065742,0.208661,0.040998,-0.040550,25.135345,-38.261284,2.927917,,,,,,
1478384765.07,0.369251,1.490525,0.199962,-0.373786,-2.811861,-0.212205,0.028940,-0.996780,-0.074780,0.186377,0.050964,-0.032687,24.390198,-38.114067,0.145020,,,,,,
,,,,,,,,,,,,,,,,37.354525,-122.033590,44.236633,0.000000,188.437500,1478384765.00
1478384765.09,0.342613,1.482089,0.171736,-0.345538,-2.688861,-0.286607,0.029762,-0.996068,-0.083442,0.149864,0.030553,0.038123,25.144928,-37.816322,-2.098328,,,,,,
1478384765.11,0.331201,1.473429,0.131893,-0.350576,-2.470653,-0.330889,0.031612,-0.995264,-0.091930,0.105031,0.016687,0.105572,25.446930,-37.892891,-3.670044,,,,,,
1478384765.13,0.326697,1.464782,0.089857,-0.332186,-2.232713,-0.338750,0.033958,-0.994386,-0.100219,0.063408,0.011155,0.133040,25.375977,-37.519463,-5.246826,,,,,,
1478384765.15,0.317215,1.457583,0.056289,-0.238693,-2.111744,-0.246370,0.035238,-0.993598,-0.107335,0.008280,-0.009148,0.161550,25.375977,-37.519463,-5.246826,,,,,,
1478384765.17,0.296383,1.453848,0.034330,-0.081722,-2.174922,-0.135155,0.034078,-0.993169,-0.111594,-0.042074,0.018789,0.156181,24.702545,-37.595741,-6.528381,,,,,,
1478384765.19,0.255947,1.454017,0.028080,0.080320,-2.454947,0.044920,0.029497,-0.993189,-0.112718,-0.092775,0.027613,0.146684,24.933838,-37.148598,-9.377380,,,,,,
1478384765.21,0.173547,1.458742,0.057813,0.259588,-2.741126,0.329714,0.019309,-0.993728,-0.110141,-0.126044,-0.017731,0.161776,24.410431,-37.149651,-10.432617,,,,,,
1478384765.23,0.024559,1.466863,0.151322,0.407342,-2.812327,0.665259,0.002548,-0.994604,-0.103715,-0.154601,-0.020777,0.188905,23.511200,-37.300636,-11.416138,,,,,,
1478384765.25,-0.198550,1.474221,0.320585,0.442392,-2.677263,0.883650,-0.019020,-0.995340,-0.094531,-0.187356,0.037317,0.181353,23.511200,-37.300636,-11.416138,,,,,,
1478384765.27,-0.474919,1.475338,0.547793,0.385292,-2.385906,1.083079,-0.043583,-0.995447,-0.084765,-0.238277,0.054560,0.186404,21.485229,-37.676109,-11.885315,,,,,,
1478384765.29,-0.738298,1.466295,0.770951,0.168520,-1.839965,1.204935,-0.070205,-0.994545,-0.077150,-0.260972,0.078025,0.169985,19.833221,-38.727913,-13.698669,,,,,,
1478384765.31,-0.898272,1.449160,0.903109,-0.163958,-1.217605,1.060763,-0.094916,-0.992611,-0.075588,-0.277795,0.120984,0.084332,17.656097,-39.403542,-14.318420,,,,,,
1478384765.33,-0.958000,1.431355,0.944179,-0.399036,-0.818914,0.743061,-0.113700,-0.990294,-0.079941,-0.313607,0.125700,-0.006302,15.855438,-39.628777,-14.560791,,,,,,
1478384765.35,-0.956738,1.419239,0.929744,-0.398517,-0.561372,0.238407,-0.123397,-0.988537,-0.086992,-0.288453,0.121350,-0.134276,15.855438,-39.628777,-14.560791,,,,,,
1478384765.37,-0.946941,1.415021,0.913056,-0.132672,-0.173053,0.057237,-0.125921,-0.987892,-0.090631,-0.084162,0.082282,-0.134451,14.731232,-39.704536,-15.321777,,,,,,
1478384765.39,-0.938513,1.414378,0.903497,-0.062970,-0.048441,-0.073715,-0.125665,-0.987792,-0.092065,-0.028143,0.087065,0.009332,14.882477,-39.780586,-16.370056,,,,,,
1478384765.41,-0.928866,1.416029,0.889509,-0.014331,-0.302116,-0.153391,-0.123465,-0.988047,-0.092296,0.016928,0.068248,0.074459,14.808807,-39.480583,-16.371643,,,,,,
1478384765.43,-0.926142,1.419918,0.880118,0.105994,-0.320675,-0.225885,-0.120142,-0.988639,-0.090323,0.078287,0.047019,0.156332,14.582794,-39.555138,-15.923706,,,,,,
1478384765.45,-0.937250,1.427106,0.884681,0.350971,-0.345208,-0.301385,-0.115407,-0.989694,-0.084773,0.107060,0.140878,0.207439,14.582794,-39.555138,-15.923706,,,,,,
1478384765.47,-0.988924,1.440537,0.929606,0.830252,-0.370389,-0.414941,-0.108516,-0.991528,-0.071387,0.110560,0.230618,0.276099,15.108246,-39.630653,-16.443237,,,,,,
1478384765.49,-1.123014,1.459546,1.055783,1.291787,-0.482504,-0.475347,-0.100076,-0.993818,-0.048069,0.131692,0.263975,0.338932,15.107788,-39.630363,-16.143188,,,,,,
1478384765.51,-1.380334,1.478841,1.304570,1.602770,-0.479740,-0.519672,-0.090165,-0.995775,-0.017384,0.138047,0.259050,0.442738,15.252563,-40.228630,-14.414978,,,,,,
1478384765.53,-1.752790,1.487631,1.668909,1.460419,-0.514346,-0.335178,-0.081698,-0.996544,0.015035,0.093752,0.170097,0.448344,15.475189,-40.377510,-13.287292,,,,,,
1478384765.55,-1.928497,1.485860,1.828278,0.033373,-1.114691,0.057073,-0.079465,-0.996395,0.029702,0.073819,-0.087772,0.103308,15.475189,-40.377510,-13.287292,,,,,,
1478384765.57,-1.633054,1.482540,1.497351,-2.029491,-1.943124,0.759569,-0.087971,-0.996108,0.005484,0.008183,-0.395082,-0.221243,15.998932,-40.376671,-12.457031,,,,,,
1478384765.59,-1.669547,1.471089,1.509612,2.150170,-0.784789,0.124700,-0.099057,-0.995033,0.009814,-0.341967,-0.319557,-1.790484,15.699829,-40.527733,-13.509583,,,,,,
1478384765.61,-2.078077,1.466562,1.932846,2.199873,1.922150,-0.630621,-0.090943,-0.994573,0.050546,0.088975,-0.190623,0.449393,13.671173,-41.202293,-13.077881,,,,,,
1478384765.63,-2.388169,1.450042,2.316205,2.029780,4.099216,-0.652707,-0.082413,-0.992718,0.087859,0.067428,-0.089786,0.124421,15.917664,-41.275169,-10.955200,,,,,,
1478384765.65,-2.573578,1.424448,2.575901,2.104026,2.944195,-0.531818,-0.078449,-0.989310,0.122927,-0.026776,0.194892,0.097608,15.917664,-41.275169,-10.955200,,,,,,
1478384765.67,-2.708778,1.395898,2.742313,1.666363,0.640838,-0.440621,-0.072984,-0.984744,0.157962,-0.047088,0.228061,0.344266,16.962128,-41.421944,-7.719360,,,,,,
1478384765.69,-2.795350,1.378483,2.831107,0.755862,-0.104048,-0.428227,-0.064863,-0.981565,0.179788,0.092619,-0.009448,0.453895,17.858063,-41.494453,-5.235107,,,,,,
1478384765.71,-2.852392,1.375328,2.886970,0.163538,-0.114225,-0.469886,-0.055391,-0.980957,0.186160,0.182725,-0.176453,0.228955,17.630157,-41.492516,-3.287415,,,,,,
1478384765.73,-2.896603,1.375527,2.928244,0.098075,-0.201305,-0.324143,-0.047061,-0.980996,0.188237,0.190921,-0.130348,0.053127,18.831604,-41.192574,-3.351257,,,,,,
1478384765.75,-2.919044,1.372526,2.948727,0.254700,-0.073467,-0.033976,-0.043475,-0.980409,0.192116,0.167026,-0.054808,-0.019081,18.831604,-41.192574,-3.351257,,,,,,
1478384765.77,-2.907745,1.363397,2.935257,0.525149,-0.161301,0.389348,-0.047715,-0.978570,0.200311,0.123994,0.024285,-0.064477,19.206696,-41.192635,-3.422546,,,,,,
1478384765.79,-2.882984,1.346990,2.901047,0.799737,-0.620395,0.640711,-0.056759,-0.975060,0.214562,0.075832,0.004097,-0.045296,19.056702,-41.042198,-2.974487,,,,,,
1478384765.81,-2.858586,1.327637,2.859719,0.749473,-0.838070,0.746867,-0.067233,-0.970582,0.231192,0.055225,-0.000853,0.057718,17.853943,-41.416451,-2.235352,,,,,,
1478384765.83,-2.832053,1.312616,2.870180,0.456372,-0.793281,0.744343,-0.077776,-0.966856,0.243187,-0.007627,0.027769,0.074897,17.325531,-42.015999,-1.788879,,,,,,
1478384765.85,-2.804208,1.300976,2.824945,0.331777,-0.806554,0.744089,-0.088236,-0.963819,0.251531,-0.064260,0.044813,-0.005666,17.325531,-42.015999,-1.788879,,,,,,
1478384765.87,-2.783910,1.289753,2.779921,0.379875,-0.906911,0.635983,-0.097104,-0.960767,0.259804,-0.114886,0.076352,-0.079415,16.499207,-42.316017,-1.796265,,,,,,
1478384765.89,-2.782990,1.276750,2.756679,0.588700,-1.015348,0.426634,-0.101720,-0.957079,0.271391,-0.159633,0.067827,-0.101957,15.223480,-42.315498,-1.283997,,,,,,
1478384765.91,-2.803754,1.261403,2.758179,0.796295,-0.798610,0.103856,-0.100920,-0.952519,0.287269,-0.195940,0.028767,-0.044395,14.473480,-42.390739,-1.516235,,,,,,
1478384765.93,-2.836672,1.246436,2.781995,0.845354,-0.338755,-0.274083,-0.095680,-0.947855,0.304001,-0.180672,0.049341,0.015152,15.222107,-42.615501,-1.283081,,,,,,
1478384765.95,-2.881088,1.232457,2.827210,0.883002,0.041392,-0.621278,-0.085492,-0.943307,0.320722,-0.143878,0.037195,0.034701,15.222107,-42.615501,-1.283081,,,,,,
1478384765.97,-2.927330,1.219516,2.879058,0.797304,0.135797,-0.731215,-0.073165,-0.938933,0.336232,-0.107377,0.022353,0.003917,15.520538,-42.539223,-0.005371,,,,,,
1478384765.99,-2.978034,1.206738,2.933395,0.825468,-0.074944,-0.872777,-0.057979,-0.934459,0.351318,-0.046330,0.032863,-0.028610,15.443024,-42.688026,1.194275,,,,,,
1478384766.01,-3.033439,1.192734,2.989614,0.838465,-0.164055,-0.922147,-0.039844,-0.929382,0.366963,-0.012112,-0.013093,-0.016286,16.720184,-42.087639,1.580261,,,,,,
1478384766.03,-3.083504,1.176460,3.042272,0.921035,-0.003687,-0.922631,-0.022305,-0.923252,0.383548,0.013226,-0.036618,0.011548,17.470184,-41.786736,2.486877,,,,,,
1478384766.05,-3.128390,1.158664,3.089476,0.913160,-0.175904,-0.865423,-0.005288,-0.916269,0.400529,0.000390,-0.028387,-0.047913,17.470184,-41.786736,2.486877,,,,,,
1478384766.07,3.111683,1.139921,3.129078,0.953480,-0.421419,-0.795513,0.012491,-0.908600,0.417480,0.014533,-0.034973,-0.043456,18.968475,-41.559914,4.301147,,,,,,
1478384766.09,3.072985,1.119205,-3.122653,1.049020,-0.583816,-0.663309,0.029917,-0.899754,0.435372,-0.004694,-0.124615,-0.067848,19.422058,-40.659615,4.603027,,,,,,
,,,,,,,,,,,,,,,,37.354519,-122.033594,44.080750,0.190000,128.671875,1478384766.00
1478384766.11,3.038487,1.095576,-3.101137,1.156748,-0.895682,-0.541111,0.047091,-0.889192,0.455105,-0.021441,-0.142852,-0.130947,20.472748,-40.283928,5.287415,,,,,,
1478384766.13,3.004903,1.069224,-3.086523,1.337510,-1.094975,-0.486855,0.065517,-0.876827,0.476320,-0.049708,-0.142994,-0.166140,21.372833,-39.983101,6.120422,,,,,,
1478384766.15,2.971546,1.038494,-3.073585,1.558914,-1.092221,-0.593304,0.085887,-0.861641,0.500198,-0.084696,-0.216728,-0.200226,21.372833,-39.983101,6.120422,,,,,,
1478384766.17,2.942801,1.003920,-3.066545,1.744717,-1.158020,-0.442515,0.106049,-0.843582,0.526424,-0.121415,-0.431671,-0.203044,21.748749,-39.682793,6.423340,,,,,,
1478384766.19,2.916686,0.964095,-3.059219,1.922704,-0.976858,-0.697060,0.127155,-0.821533,0.555801,-0.175571,-0.577271,-0.244186,22.724640,-38.855919,8.305664,,,,,,
1478384766.21,2.885203,0.922172,-3.047236,2.046304,-1.121774,-0.985717,0.153191,-0.796916,0.584344,-0.246194,-0.604986,-0.244744,23.551880,-38.029930,9.286377,,,,,,
1478384766.23,2.848193,0.872628,-3.029796,2.384682,-1.167305,-1.329286,0.185908,-0.766021,0.615346,-0.356791,-0.614900,-0.349263,24.603760,-37.278954,10.269653,,,,,,
1478384766.25,2.811108,0.810020,-3.006857,2.944229,-0.884374,-1.937603,0.223739,-0.724301,0.652173,-0.374221,-0.608707,-0.401028,24.603760,-37.278954,10.269653,,,,,,
1478384766.27,2.776855,0.736055,-2.978168,3.212209,-0.604390,-2.344504,0.264362,-0.671369,0.692370,-0.390125,-0.783556,-0.417910,24.757385,-35.927299,11.917175,,,,,,
1478384766.29,2.755221,0.655211,-2.952543,3.531826,0.011782,-2.406358,0.298796,-0.609327,0.734467,-0.373732,-0.822115,-0.235505,29.194031,-32.249046,15.175476,,,,,,
1478384766.31,2.751144,0.571691,-2.931651,3.393959,0.484175,-2.391409,0.320083,-0.541055,0.777693,-0.331802,-0.547309,-0.184889,31.002136,-29.696785,17.435913,,,,,,
1478384766.33,2.727565,0.518654,-2.903022,0.596968,-1.327784,-1.787985,0.349392,-0.495712,0.795107,-0.359433,-0.741334,-0.889406,32.361786,-26.769447,19.765686,,,,,,
1478384766.35,2.680487,0.527817,-2.874647,-1.417952,-1.582058,-0.560299,0.384386,-0.503648,0.773683,-0.230944,-0.579115,-0.822954,32.361786,-26.769447,19.765686,,,,,,
1478384766.37,2.629305,0.568441,-2.850289,-2.774925,-2.133884,0.476466,0.413089,-0.538319,0.734555,-0.314273,-0.718365,-1.103314,33.043488,-25.269371,19.843018,,,,,,
1478384766.39,2.602222,0.619145,-2.845549,-1.425359,-0.300499,1.491379,0.418259,-0.580339,0.698760,-0.199525,-0.453291,-2.113433,34.919952,-26.699669,14.541077,,,,,,
1478384766.41,2.602606,0.662175,-2.859934,-1.538587,-0.491948,1.579334,0.404791,-0.614834,0.676848,-0.237006,-0.299015,-0.695296,34.165283,-28.125801,13.412842,,,,,,
1478384766.43,2.604236,0.709030,-2.878331,-1.829046,-0.429962,1.945468,0.388504,-0.651098,0.652025,-0.157700,-0.455744,-0.517198,33.034607,-29.701790,12.431274,,,,,,
1478384766.45,2.615924,0.766653,-2.897867,-2.338515,0.094994,2.188558,0.361409,-0.693729,0.622996,-0.080220,-0.455609,-0.158000,33.034607,-29.701790,12.431274,,,,,,
1478384766.47,2.629777,0.840584,-2.914033,-3.385164,0.041463,2.410959,0.326684,-0.745032,0.581553,-0.014154,-0.309075,0.240621,31.680267,-31.278603,10.622498,,,,,,
1478384766.49,2.631239,0.940329,-2.921118,-4.725754,-0.299664,2.768815,0.287973,-0.807752,0.514401,0.025854,-0.277728,0.405170,30.625549,-32.855171,9.041626,,,,,,
1478384766.51,2.627923,1.060283,-2.919870,-5.456402,0.085287,2.973740,0.240099,-0.872494,0.425566,0.076933,-0.315311,0.300889,26.717438,-36.836723,2.489441,,,,,,
1478384766.53,2.632502,1.184797,-2.915663,-5.399475,0.591160,2.961341,0.183492,-0.926423,0.328742,0.130289,-0.346710,0.282006,23.941437,-38.415794,-1.583496,,,,,,
1478384766.54,2.663259,1.301261,-2.928315,-4.769774,1.201575,2.945952,0.122571,-0.963895,0.236397,0.210575,-0.427768,0.490608,23.941437,-38.415794,-1.583496,,,,,,
1478384766.56,2.779384,1.402811,-3.006811,-4.014881,2.527074,2.723338,0.059244,-0.985924,0.156348,0.397970,-0.347038,0.876000,22.367554,-39.544945,-5.720886,,,,,,
1478384766.58,3.013024,1.489358,3.108392,-3.920368,3.772179,1.694832,0.010430,-0.996686,0.080677,0.493949,-0.033115,1.316372,19.820862,-39.923271,-9.045166,,,,,,
1478384766.60,-1.868046,1.553426,1.786435,-3.686709,3.924265,0.865492,-0.016607,-0.999849,0.005087,0.481329,0.222978,1.670786,18.553833,-39.477257,-13.034241,,,,,,
1478384766.62,-0.302075,1.499093,0.275836,-3.533941,2.065056,-0.011189,-0.021314,-0.997430,-0.068399,0.463040,0.502603,1.539559,19.385468,-38.654198,-14.978333,,,,,,
1478384766.64,-0.087935,1.442349,0.084496,-2.494121,0.798119,-0.537460,-0.011249,-0.991762,-0.127599,0.456211,0.672182,1.378820,19.385468,-38.654198,-14.978333,,,,,,
1478384766.66,-0.000820,1.410680,0.003184,-1.072467,0.009567,-0.442067,-0.000131,-0.987209,-0.159433,0.495034,0.816616,1.337243,19.320007,-37.306526,-17.308044,,,,,,
1478384766.68,0.016323,1.406351,-0.027282,0.288416,-0.996630,-0.145446,0.002672,-0.986509,-0.163683,0.549605,0.928816,1.274614,20.001740,-36.333092,-18.879150,,,,,,
1478384766.70,0.021702,1.428258,-0.054014,1.586376,-0.891438,-0.320256,0.003083,-0.989859,-0.142022,0.571136,0.843969,1.129571,20.304352,-35.958702,-19.477234,,,,,,
1478384766.72,0.180369,1.472291,-0.220781,2.474615,-0.134086,-0.977153,0.017643,-0.995152,-0.096750,0.334668,0.368794,0.502726,19.923859,-36.707268,-18.053833,,,,,,
1478384766.74,0.132114,1.454216,-0.210134,-2.904016,-3.264045,0.688714,0.015322,-0.993212,-0.115303,-0.042514,-0.896879,-0.225701,19.923859,-36.707268,-18.053833,,,,,,
1478384766.76,0.018886,1.471999,-0.118476,3.561713,0.295726,0.270633,0.001863,-0.995124,-0.098619,-0.173616,-1.053323,-0.482222,20.148041,-36.857185,-17.976135,,,,,,
1478384766.78,-0.452795,1.550638,0.331910,4.549434,-1.294075,0.513715,-0.008818,-0.999797,-0.018126,0.066954,-0.900334,0.592635,18.573639,-37.158485,-19.265991,,,,,,
1478384766.80,-2.963934,1.485791,2.859495,4.970402,2.357666,0.034087,-0.015005,-0.996389,0.083567,0.175970,-0.531412,0.902151,17.438507,-38.355339,-16.123718,,,,,,
1478384766.82,-3.045688,1.415641,3.009048,2.647720,3.118290,-0.687978,-0.014798,-0.987988,0.153823,0.261899,0.314816,0.831391,18.991364,-40.522072,-7.851685,,,,,,
1478384766.84,-3.124405,1.390942,3.114094,0.589648,0.129535,-0.742517,-0.003074,-0.983870,0.178859,0.096214,0.588072,0.538334,18.991364,-40.522072,-7.851685,,,,,,
1478384766.86,3.085588,1.389555,-3.107144,-0.112539,-0.678835,-0.482062,0.010090,-0.983621,0.179968,0.042248,0.170190,0.383188,19.437744,-40.594887,-5.671997,,,,,,
1478384766.88,3.034355,1.393441,-3.061898,-0.222567,-0.177832,-0.314201,0.018883,-0.984314,0.175413,0.088600,-0.324951,0.140413,20.112976,-40.519798,-5.590454,,,,,,
1478384766.90,3.013611,1.389155,-3.044275,0.501180,-0.220929,-0.128224,0.023056,-0.983549,0.179167,0.059814,-0.269412,-0.034742,19.664124,-40.294884,-5.670654,,,,,,
1478384766.92,3.008116,1.373689,-3.046293,0.872787,-0.451048,-0.034189,0.026062,-0.980637,0.194091,0.061631,0.014832,-0.138076,20.565002,-40.220253,-6.036865,,,,,,
1478384766.94,3.022865,1.352943,-3.068843,1.137603,-0.217048,0.176326,0.025601,-0.976364,0.214613,0.055088,0.071258,-0.036466,20.565002,-40.220253,-6.036865,,,,,,
1478384766.96,3.060435,1.332064,-3.104384,1.024402,0.288505,0.368767,0.019170,-0.971639,0.235692,0.091227,-0.035533,0.071177,20.187653,-40.218681,-4.465637,,,,,,
1478384766.98,3.099678,1.314735,3.138821,0.810013,-0.241556,0.459889,0.010613,-0.967395,0.253050,0.083168,-0.016400,0.034395,19.358734,-40.742638,-3.422363,,,,,,
1478384767.00,3.125892,1.302004,3.099043,0.573166,-0.759267,0.520021,0.004169,-0.964092,0.265534,0.037396,0.030239,0.017638,18.982605,-40.817116,-2.900940,,,,,,
1478384767.02,-3.133851,1.291307,3.057984,0.538205,-0.793988,0.572218,-0.002136,-0.961196,0.275856,-0.002991,0.015335,0.019859,19.430817,-41.116814,-2.595520,,,,,,
1478384767.04,-3.109702,1.279362,3.018404,0.624909,-0.602861,0.554731,-0.009162,-0.957833,0.287181,-0.034280,0.034005,-0.008006,19.430817,-41.116814,-2.595520,,,,,,
1478384767.06,-3.088025,1.264653,2.988123,0.771569,-0.234792,0.412830,-0.016137,-0.953503,0.300951,-0.065818,0.049404,-0.000399,18.528900,-41.416451,-2.228638,,,,,,
1478384767.08,-3.078377,1.247969,2.974078,0.832916,-0.208509,0.182230,-0.020042,-0.948342,0.316615,-0.070748,0.012063,-0.029613,17.175201,-41.865334,-1.115845,,,,,,
,,,,,,,,,,,,,,,,37.354521,-122.033588,44.032776,0.190000,88.593750,1478384767.00
1478384767.10,-3.082787,1.231992,2.972614,0.761662,-0.322781,0.018323,-0.019533,-0.943153,0.331785,-0.054746,-0.000497,0.003405,17.623871,-42.090111,-0.885681,,,,,,
1478384767.12,-3.094881,1.218532,2.977337,0.635118,-0.435337,-0.074091,-0.016111,-0.938594,0.344648,-0.030810,0.008647,0.009600,17.624542,-41.789650,-0.436584,,,,,,
1478384767.14,-3.113460,1.206316,2.984939,0.622952,-0.654888,-0.136684,-0.010027,-0.934309,0.356323,-0.028517,-0.010424,-0.052429,17.624542,-41.789650,-0.436584,,,,,,
1478384767.16,-3.138482,1.192482,2.996176,0.748846,-0.751404,-0.215794,-0.001149,-0.929289,0.369352,-0.024257,-0.033754,-0.091627,16.871185,-42.088310,0.906799,,,,,,
1478384767.18,3.118565,1.175270,3.007822,0.931091,-0.785074,-0.232664,0.008871,-0.922794,0.385192,-0.031409,-0.054211,-0.114409,17.472321,-41.863380,0.837097,,,,,,
1478384767.20,3.093874,1.153321,3.015963,1.197942,-0.921032,-0.173811,0.019340,-0.914116,0.404992,-0.061805,-0.060616,-0.145928,18.520599,-42.087914,1.298279,,,,,,
1478384767.22,3.072214,1.125511,3.018816,1.493187,-0.949242,-0.126364,0.029859,-0.902488,0.429679,-0.086804,-0.061562,-0.127616,18.596710,-41.637321,1.897766,,,,,,
1478384767.24,3.051600,1.092844,3.020725,1.684731,-0.939207,-0.239256,0.041337,-0.887939,0.458100,-0.108842,-0.109345,-0.121553,18.596710,-41.637321,1.897766,,,,,,
1478384767.26,3.026357,1.057585,3.030358,1.760443,-0.766166,-0.516438,0.056453,-0.871172,0.487721,-0.119258,-0.137983,-0.103734,18.595154,-41.711494,2.722839,,,,,,
1478384767.28,2.996609,1.019625,3.049344,1.861750,-0.630029,-0.853509,0.075660,-0.851912,0.518191,-0.146842,-0.161775,-0.124636,19.119385,-40.958717,5.500916,,,,,,
1478384767.30,2.961718,0.978101,3.076419,1.977253,-0.593970,-1.175872,0.099937,-0.829438,0.549587,-0.168464,-0.202575,-0.181758,20.245605,-40.282509,6.710144,,,,,,
1478384767.32,2.925212,0.932498,3.106081,2.127397,-0.650802,-1.334963,0.127922,-0.803111,0.581936,-0.200920,-0.381856,-0.235592,21.219482,-40.056068,8.144165,,,,,,
1478384767.34,2.887827,0.882303,3.132871,2.335921,-0.944723,-1.439045,0.159511,-0.772204,0.615026,-0.244640,-0.619855,-0.314168,21.219482,-40.056068,8.144165,,,,,,
1478384767.36,2.844180,0.824601,-3.121824,2.639573,-1.165415,-1.873972,0.198935,-0.734277,0.649047,-0.240485,-0.790534,-0.368743,21.595856,-39.079048,10.170044,,,,,,
1478384767.38,2.795648,0.757679,-3.087201,2.853010,-1.219331,-2.433602,0.246323,-0.687237,0.683396,-0.261506,-0.965442,-0.432999,25.053558,-36.526543,12.671875,,,,,,
1478384767.40,2.741851,0.682911,-3.042877,2.876258,-1.215030,-3.241277,0.301902,-0.631054,0.714581,-0.188270,-1.054569,-0.518399,27.611542,-34.350319,13.890991,,,,,,
1478384767.42,2.689249,0.601809,-2.990270,2.794692,-0.919960,-3.705371,0.360286,-0.566135,0.741408,-0.100871,-1.099454,-0.512923,30.021332,-31.799187,15.032471,,,,,,
1478384767.44,2.655455,0.519948,-2.953340,3.053802,-0.562259,-2.786162,0.405470,-0.496835,0.767300,-0.133742,-1.109244,-0.383846,30.021332,-31.799187,15.032471,,,,,,
1478384767.46,2.646030,0.451998,-2.941715,2.253702,-0.054664,-1.762609,0.427772,-0.436764,0.791358,-0.015098,-0.755344,-0.356437,31.983124,-28.572380,16.842346,,,,,,
1478384767.48,2.632155,0.439530,-2.929489,-0.737120,-0.673139,0.010479,0.441333,-0.425514,0.790040,-0.085010,-0.694740,-0.839356,34.919434,-25.796593,17.613403,,,,,,
1478384767.50,2.609906,0.479459,-2.925405,-2.516686,-1.290802,1.116843,0.449822,-0.461299,0.764764,-0.161339,-0.418660,-0.951379,35.752289,-23.996452,17.766357,,,,,,
1478384767.52,2.582431,0.540383,-2.917257,-2.375324,-0.460266,1.278568,0.454889,-0.514464,0.726913,-0.289819,-0.238099,-1.041778,34.620972,-26.023323,15.886108,,,,,,
1478384767.54,2.573646,0.586981,-2.915761,-2.032825,-1.325456,1.191310,0.447866,-0.553850,0.701902,-0.496267,-0.107222,-1.664106,34.620972,-26.023323,15.886108,,,,,,
1478384767.56,2.523790,0.631785,-2.921826,-1.561678,-2.821311,1.688037,0.467436,-0.590587,0.657808,-0.343169,-0.174108,-0.779710,34.768524,-27.300499,13.716370,,,,,,
1478384767.58,2.507569,0.683097,-2.940345,-1.754050,-0.346892,2.355862,0.459472,-0.631198,0.624880,-0.227935,-0.283414,-0.215776,34.241272,-28.502602,11.614746,,,,,,
1478384767.60,2.540383,0.750044,-2.969726,-2.382483,0.987743,3.150141,0.413856,-0.681671,0.603364,-0.179618,-0.441254,0.074126,32.354980,-32.256355,7.857117,,,,,,
1478384767.62,2.585054,0.845461,-2.997424,-4.301901,1.400513,3.464190,0.350434,-0.748277,0.563274,-0.126038,-0.244552,0.685261,29.196686,-34.432365,6.857117,,,,,,
1478384767.64,2.607591,0.971855,-3.000005,-5.855841,0.868988,3.226041,0.286948,-0.825933,0.485279,-0.250739,-0.083170,0.697155,29.196686,-34.432365,6.857117,,,,,,
1478384767.66,2.608622,1.104485,-2.976928,-5.924110,1.282324,2.653316,0.228437,-0.893233,0.387237,-0.290433,-0.011537,0.575089,27.016205,-36.685448,3.767029,,,,,,
1478384767.68,2.615959,1.224545,-2.946210,-5.215056,2.023362,2.560430,0.170284,-0.940652,0.293560,-0.349896,-0.077338,0.536151,24.465851,-38.340202,-0.978577,,,,,,
1478384767.70,2.689314,1.337323,-2.981672,-4.465963,1.761345,3.527935,0.101107,-0.972869,0.208096,-0.445391,-0.304521,0.627109,22.893036,-39.169106,-4.891724,,,,,,
1478384767.72,3.048868,1.441348,2.961591,-4.024369,0.851365,4.750612,0.011952,-0.991633,0.128533,-0.495473,-0.382589,1.058861,17.948700,-40.075615,-11.388489,,,,,,
1478384767.74,-2.117871,1.476277,1.844606,-3.844464,0.058436,4.333988,-0.080604,-0.995536,0.049095,-0.211693,-0.230538,1.355873,17.948700,-40.075615,-11.388489,,,,,,
1478384767.76,-1.457003,1.420837,1.183382,-3.083800,0.276019,2.749303,-0.148431,-0.988777,-0.016964,0.148660,-0.184807,1.352093,13.677002,-40.453941,-14.730103,,,,,,
1478384767.78,-1.179658,1.374212,0.912304,-2.548339,0.927473,1.108793,-0.180569,-0.980740,-0.074464,0.453457,-0.206532,1.340730,10.532562,-40.231987,-17.762207,,,,,,
1478384767.80,-1.021370,1.351586,0.786531,-1.165261,1.942927,0.016723,-0.185455,-0.976069,-0.113557,0.482787,0.192347,1.570283,8.814514,-39.409172,-19.956787,,,,,,
1478384767.82,-0.919577,1.355265,0.708529,-0.321698,0.871666,-0.950610,-0.170098,-0.976863,-0.129637,0.489297,0.696360,1.588591,9.721710,-38.436043,-21.825623,,,,,,
1478384767.84,-0.814781,1.369983,0.617114,-0.304121,0.911275,-1.213302,-0.145127,-0.979905,-0.136839,0.655793,0.987443,1.798644,9.721710,-38.436043,-21.825623,,,,,,
1478384767.86,-0.685449,1.384470,0.515272,0.206187,1.853641,-1.273928,-0.117267,-0.982691,-0.143409,0.945896,1.025355,1.820151,11.374268,-37.986397,-22.185425,,,,,,
1478384767.88,-0.477571,1.410791,0.359399,-0.940457,3.699020,-2.493121,-0.073229,-0.987226,-0.141497,0.925524,0.764372,0.934359,12.573822,-38.061317,-22.098267,,,,,,
1478384767.90,0.186618,1.374877,-0.103306,0.838599,15.268801,-3.654833,0.036118,-0.980869,-0.191289,1.110870,-0.472958,0.129124,13.998077,-37.609505,-20.285339,,,,,,
1478384767.92,0.669412,1.364396,-0.480835,2.202013,0.535595,-3.695126,0.127169,-0.978775,-0.160709,0.473875,-1.118362,-0.918468,26.683777,-33.780113,-15.895020,,,,,,
1478384767.94,0.987268,1.343331,-0.840946,1.465111,-1.396940,-2.751897,0.188193,-0.974241,-0.124249,0.909876,-1.082140,0.293240,26.683777,-33.780113,-15.895020,,,,,,
1478384767.96,1.111624,1.341087,-0.938457,0.633543,3.007630,0.593319,0.204110,-0.973733,-0.100916,0.965125,-0.042594,0.976190,28.786591,-32.804039,-14.826904,,,,,,
1478384767.98,1.208188,1.371855,-0.978807,1.476592,2.194535,1.226123,0.184781,-0.980276,-0.070103,0.594242,0.267767,0.160328,29.760864,-32.427467,-13.243286,,,,,,
1478384768.00,1.411252,1.400785,-1.183264,2.416765,-1.420053,0.907973,0.167044,-0.985583,-0.026879,0.023721,-0.142667,-0.536170,28.778015,-33.400139,-10.925232,,,,,,
1478384768.02,1.707918,1.421672,-1.535165,2.888459,-2.600122,1.041237,0.147178,-0.988902,0.020309,0.205316,-0.157217,-0.047759,29.147278,-34.148552,-9.344238,,,,,,
1478384768.04,2.092090,1.427386,-1.952823,2.694293,-0.694757,1.417952,0.123936,-0.989734,0.071174,0.320599,0.020832,0.333245,29.147278,-34.148552,-9.344238,,,,,,
1478384768.06,2.498107,1.421697,-2.367573,2.275012,-0.249224,1.951591,0.089127,-0.988905,0.118839,0.208527,-0.005373,0.186916,26.959259,-36.321404,-7.184631,,,,,,
,,,,,,,,,,,,,,,,37.354516,-122.033580,45.161316,1.220000,98.437500,1478384768.00
1478384768.08,2.831430,1.403308,-2.722483,1.973896,-1.270809,2.104246,0.050881,-0.986007,0.158752,0.110069,0.018370,0.038788,24.400421,-37.594322,-5.106384,,,,,,
1478384768.10,3.061583,1.374922,-2.989158,1.784438,-1.669008,2.060084,0.015555,-0.980878,0.194001,0.051309,0.088208,0.074386,23.493713,-38.718208,-3.987122,,,,,,
1478384768.12,-3.067505,1.341340,3.108558,1.609828,-1.130870,1.873219,-0.016836,-0.973790,0.226824,0.017355,0.084874,0.162748,21.911865,-40.067696,-3.473877,,,,,,
1478384768.14,-2.967422,1.308298,2.987524,1.345047,-0.787137,1.520056,-0.044968,-0.965745,0.255568,-0.026046,0.070466,0.135118,21.911865,-40.067696,-3.473877,,,,,,
1478384768.16,-2.915239,1.280602,2.915683,1.057122,-0.911071,1.061929,-0.064217,-0.958188,0.278840,-0.078483,0.079740,0.097640,18.677124,-41.415245,-1.027222,,,,,,
1478384768.18,-2.896990,1.259214,2.875657,0.803386,-1.018748,0.703270,-0.074241,-0.951850,0.297440,-0.125710,0.078330,0.112167,16.798096,-42.089592,-0.368958,,,,,,
1478384768.20,-2.892366,1.243231,2.849902,0.615513,-0.976562,0.541728,-0.079358,-0.946828,0.311799,-0.185534,0.080434,0.103134,16.273193,-42.089668,-0.449219,,,,,,
1478384768.22,-2.894950,1.229701,2.831812,0.567294,-0.960390,0.392109,-0.081673,-0.942389,0.324397,-0.194496,0.065649,0.065008,16.122314,-42.239510,-0.300293,,,,,,
1478384768.24,-2.908551,1.218534,2.829099,0.504042,-0.692077,0.004900,-0.079679,-0.938594,0.335696,-0.172839,0.038234,0.052259,16.122314,-42.239510,-0.300293,,,,,,
1478384768.26,-2.938237,1.210119,2.849272,0.494248,-0.482218,-0.379172,-0.071272,-0.935658,0.345637,-0.142519,0.003178,-0.014139,15.820740,-42.464149,0.072388,,,,,,
1478384768.28,-2.980124,1.200909,2.883706,0.617552,-0.501411,-0.594831,-0.058119,-0.932368,0.356808,-0.125642,0.001933,-0.069851,15.669983,-42.463631,0.595886,,,,,,
1478384768.30,-3.028169,1.188401,2.924861,0.798368,-0.460265,-0.690562,-0.042232,-0.927774,0.370746,-0.091984,-0.003257,-0.074680,16.419830,-42.237862,1.352722,,,,,,
1478384768.32,-3.074447,1.171319,2.966070,0.998400,-0.397914,-0.714616,-0.026096,-0.921265,0.388060,-0.069485,-0.007721,-0.089247,16.720062,-42.087563,1.655273,,,,,,
1478384768.34,-3.118875,1.149450,3.004645,1.199023,-0.506010,-0.714564,-0.009290,-0.912539,0.408884,-0.073855,-0.037839,-0.123286,16.720062,-42.087563,1.655273,,,,,,
1478384768.36,3.121310,1.123103,3.038886,1.398605,-0.633613,-0.739142,0.008779,-0.901448,0.432798,-0.098760,-0.088435,-0.158643,17.244385,-41.861427,2.784790,,,,,,
1478384768.38,3.078635,1.091484,3.072586,1.642254,-0.607707,-0.879678,0.029015,-0.887312,0.460256,-0.117257,-0.170275,-0.170980,18.968903,-41.484993,4.225952,,,,,,
1478384768.40,3.035396,1.054268,3.108312,1.851714,-0.590383,-1.102566,0.052348,-0.869539,0.491082,-0.117854,-0.246229,-0.190789,19.645172,-40.733559,5.655457,,,,,,
1478384768.42,2.990938,1.012433,-3.135456,2.003350,-0.491375,-1.347767,0.079515,-0.848124,0.523797,-0.109041,-0.214865,-0.192789,20.546478,-40.057426,6.787476,,,,,,
1478384768.44,2.951222,0.966940,-3.099969,2.134545,-0.533338,-1.328423,0.107445,-0.823152,0.557563,-0.166588,-0.326231,-0.238074,20.546478,-40.057426,6.787476,,,,,,
1478384768.46,2.916473,0.917595,-3.073118,2.321856,-0.767478,-1.245404,0.135660,-0.794142,0.592398,-0.207315,-0.483995,-0.293936,21.146362,-39.455544,8.666687,,,,,,
1478384768.48,2.877964,0.864309,-3.053207,2.540064,-1.402414,-1.314082,0.169163,-0.760647,0.626737,-0.250187,-0.648899,-0.416517,23.174988,-38.179115,10.108093,,,,,,
1478384768.50,2.830494,0.800855,-3.033273,3.043329,-1.716540,-1.682676,0.213078,-0.717952,0.662679,-0.258457,-0.769689,-0.411870,25.279999,-36.226616,12.598267,,,,,,
1478384768.52,2.783253,0.725272,-3.012518,3.503290,-1.527029,-2.130092,0.262451,-0.663339,0.700786,-0.243469,-0.933509,-0.376201,27.083832,-34.799889,14.337097,,,,,,
1478384768.54,2.747668,0.639002,-2.993938,3.823069,-0.987287,-2.247714,0.308085,-0.596395,0.741213,-0.211375,-0.961253,-0.265780,27.083832,-34.799889,14.337097,,,,,,
1478384768.56,2.730258,0.558569,-2.984209,3.297788,-0.384419,-1.730922,0.339064,-0.529974,0.777280,-0.203536,-0.824793,-0.230695,28.518036,-32.248375,15.843750,,,,,,
1478384768.58,2.721749,0.492086,-2.980436,2.762619,-0.447944,-1.432869,0.359253,-0.472465,0.804807,-0.125443,-0.531929,-0.179730,30.927704,-29.471489,17.734558,,,,,,
1478384768.60,2.693661,0.457726,-2.968884,-0.029630,-1.678588,-0.673985,0.388519,-0.441909,0.808560,-0.153457,-0.508378,-0.639218,33.417206,-25.418999,20.222229,,,,,,
1478384768.62,2.655642,0.486519,-2.964652,-1.807211,-1.719106,0.864545,0.412855,-0.467551,0.781631,-0.318495,-0.685555,-0.677947,33.567993,-25.720406,18.799683,,,,,,
1478384768.64,2.618086,0.538430,-2.955062,-2.797105,-1.595733,0.960388,0.429189,-0.512789,0.743535,-0.280568,-0.454374,-0.996053,33.567993,-25.720406,18.799683,,,,,,
1478384768.66,2.583766,0.603086,-2.943879,-3.076589,-1.262645,1.417035,0.435961,-0.567187,0.698740,-0.422030,-0.300932,-0.971628,34.242401,-26.547508,16.708862,,,,,,
1478384768.68,2.576099,0.661069,-2.941991,-2.174433,0.131140,1.504707,0.422953,-0.613961,0.666456,-0.350168,-0.009544,-1.067075,33.789490,-28.200508,13.709290,,,,,,
1478384768.70,2.568846,0.712924,-2.944826,-2.028525,-0.853540,1.480883,0.409954,-0.654048,0.635735,-0.267422,-0.208592,-0.865700,33.034637,-30.002678,11.532166,,,,,,
1478384768.72,2.558676,0.762982,-2.952475,-1.977230,-0.458768,1.727796,0.397862,-0.691080,0.603419,-0.136570,-0.446783,-0.465556,30.776062,-32.930779,8.443359,,,,,,
1478384768.74,2.577372,0.821122,-2.965904,-2.371958,0.909293,2.123873,0.364384,-0.731911,0.575787,0.008724,-0.405723,-0.028653,30.776062,-32.930779,8.443359,,,,,,
1478384768.76,2.604478,0.897386,-2.980123,-3.529342,0.617948,2.571932,0.319099,-0.781699,0.535838,0.098611,-0.261452,0.237951,29.799042,-34.057808,6.411987,,,,,,
1478384768.78,2.617653,1.007006,-2.985630,-5.286572,0.385948,3.083216,0.267355,-0.845236,0.462707,0.140864,-0.277689,0.661377,28.516998,-36.008934,5.280029,,,,,,
1478384768.80,2.625248,1.140698,-2.982977,-6.020934,0.619811,3.326182,0.205855,-0.908925,0.362601,0.065308,-0.331600,0.489541,26.491669,-37.137108,2.113159,,,,,,
1478384768.82,2.637812,1.275623,-2.979091,-5.768555,0.901659,3.169270,0.140432,-0.956752,0.254764,0.048045,-0.287328,0.401058,20.943237,-39.846306,-7.084229,,,,,,
1478384768.84,2.679079,1.397406,-3.000370,-4.943855,1.100256,3.010988,0.076980,-0.985005,0.154397,0.115098,-0.462489,0.484748,20.943237,-39.846306,-7.084229,,,,,,
1478384768.86,2.930871,1.500310,3.055364,-4.035232,1.429788,2.978217,0.014731,-0.997517,0.068870,0.204965,-0.486339,0.720513,18.549011,-40.000603,-11.382751,,,,,,
1478384768.88,-1.534989,1.526098,1.274378,-3.195370,2.236348,2.880397,-0.044655,-0.999001,-0.001600,0.306175,-0.304710,1.132245,16.005219,-39.703850,-14.634033,,,,,,
1478384768.90,-0.963503,1.453702,0.755449,-3.261632,2.737383,2.412623,-0.095938,-0.993152,-0.066667,0.434363,-0.113781,1.536714,14.359802,-39.481270,-17.051147,,,,,,
1478384768.92,-0.708672,1.382657,0.534397,-3.553045,1.259357,0.979569,-0.121725,-0.982354,-0.141999,0.596059,0.167794,1.551865,12.347229,-38.210716,-21.500122,,,,,,
1478384768.94,-0.577476,1.335928,0.415280,-1.969795,0.424172,0.069730,-0.127041,-0.972545,-0.194978,0.509427,0.433528,1.395738,12.347229,-38.210716,-21.500122,,,,,,
1478384768.96,-0.516668,1.321766,0.342629,-0.604453,-1.092802,-0.585942,-0.121750,-0.969152,-0.214293,0.515488,0.775487,1.164000,12.579895,-37.162666,-23.450928,,,,,,
1478384768.98,-0.494697,1.326359,0.289524,0.144070,-1.355860,-0.686863,-0.114898,-0.970274,-0.212996,0.601318,0.961012,1.408355,12.435486,-36.263725,-24.505066,,,,,,
1478384769.00,-0.478299,1.345686,0.266761,1.175727,0.446622,-0.729258,-0.102739,-0.974769,-0.198165,0.694185,0.995750,1.643706,11.836182,-36.188957,-24.736328,,,,,,
1478384769.02,-0.455562,1.393887,0.272216,2.808667,1.866493,-1.275954,-0.077429,-0.984392,-0.158040,0.568579,0.815050,1.202626,12.661530,-36.113945,-24.728271,,,,,,
1478384769.04,-0.376451,1.440572,0.233245,-1.013943,1.290642,-0.676256,-0.047738,-0.991533,-0.120764,0.174859,0.225801,-0.010965,12.661530,-36.113945,-24.728271,,,,,,
1478384769.06,-0.362922,1.361069,0.206704,-1.670260,0.085653,1.561906,-0.073910,-0.978088,-0.194632,0.033764,-1.690995,0.558218,16.473969,-37.384407,-20.186340,,,,,,
,,,,,,,,,,,,,,,,37.354508,-122.033569,43.663696,1.530000,118.828125,1478384769.00
1478384769.08,-0.428022,1.418913,0.312510,3.086535,0.727718,-1.020045,-0.062800,-0.988488,-0.137651,0.306498,-1.673866,-1.513106,14.155762,-36.937584,-23.360779,,,,,,
1478384769.10,-0.465480,1.501040,0.355567,3.899413,0.367940,-1.733326,-0.031285,-0.997568,-0.062284,0.222050,-0.264242,0.295637,15.422211,-37.834557,-20.345459,,,,,,
1478384769.12,2.262173,1.565998,-2.350063,2.961133,1.642595,-1.664142,0.003697,-0.999988,0.003059,0.199398,0.259037,0.299309,16.989624,-38.506538,-17.327759,,,,,,
1478384769.14,2.691725,1.500830,-2.734495,3.096611,2.453082,-1.214008,0.030400,-0.997553,0.062954,0.197597,0.376063,0.445011,16.989624,-38.506538,-17.327759,,,,,,
1478384769.16,2.867785,1.437854,-2.863252,2.909801,2.198935,0.078828,0.035842,-0.991176,0.127613,0.149232,0.200237,0.507274,21.025330,-39.474907,-10.684570,,,,,,
1478384769.18,3.037847,1.406069,-3.016247,1.152094,0.011551,0.999280,0.016982,-0.986463,0.163101,0.267442,-0.036547,0.599258,21.169586,-39.621529,-7.307678,,,,,,
1478384769.20,3.124480,1.395149,-3.133934,0.407910,-2.128488,0.922651,0.002990,-0.984614,0.174720,0.194260,-0.182424,0.248742,20.790771,-39.919884,-5.660522,,,,,,
1478384769.22,-3.110790,1.391911,3.052315,0.025007,-2.346342,0.849801,-0.005480,-0.984043,0.177849,0.119173,-0.144299,0.090096,19.738129,-40.670341,-6.118774,,,,,,
1478384769.24,-3.051807,1.390197,2.954600,0.099907,-1.446027,0.888735,-0.016106,-0.983736,0.178896,0.009514,0.045992,0.059279,19.738129,-40.670341,-6.118774,,,,,,
1478384769.26,-2.973955,1.382355,2.864727,0.420103,-0.017604,0.841937,-0.031256,-0.982297,0.184702,-0.032312,0.062299,0.041036,18.536865,-41.120872,-6.654480,,,,,,
1478384769.28,-2.911897,1.365219,2.806346,0.914501,0.178100,0.633925,-0.046477,-0.978943,0.198771,-0.075532,0.006928,-0.115870,16.209167,-41.796120,-6.900696,,,,,,
1478384769.30,-2.901498,1.341308,2.792569,1.205214,-0.274050,0.300907,-0.054093,-0.973783,0.220954,-0.067641,-0.004046,-0.089225,16.282074,-42.020363,-6.149292,,,,,,
1478384769.32,-2.918221,1.318089,2.804039,1.101573,-0.295532,0.053862,-0.055385,-0.968239,0.243814,-0.033695,0.030022,0.055044,15.904388,-42.319466,-5.252136,,,,,,
1478384769.34,-2.939465,1.300286,2.817633,0.767596,-0.471111,0.020746,-0.053646,-0.963635,0.261783,-0.048710,0.034085,0.100263,15.904388,-42.319466,-5.252136,,,,,,
1478384769.36,-2.955452,1.289259,2.823500,0.442959,-0.551195,0.028508,-0.051418,-0.960629,0.273033,-0.052067,0.051129,0.066948,15.903503,-42.243645,-4.427490,,,,,,
1478384769.38,-2.974207,1.281198,2.829605,0.441201,-0.699310,-0.042418,-0.047577,-0.958359,0.281576,-0.040787,0.028503,-0.046240,16.052338,-42.242897,-3.675964,,,,,,
1478384769.40,-3.000562,1.270030,2.841519,0.683107,-0.764457,-0.122308,-0.041642,-0.955110,0.293311,-0.042342,0.023286,-0.133338,15.600616,-42.467369,-3.154785,,,,,,
1478384769.42,-3.035026,1.252728,2.862922,1.031894,-0.643296,-0.272016,-0.033264,-0.949841,0.310958,-0.021805,-0.019061,-0.142379,15.749908,-42.542152,-2.928101,,,,,,
1478384769.44,-3.070564,1.228778,2.889523,1.344297,-0.439285,-0.353180,-0.023802,-0.942080,0.334543,-0.030168,-0.025907,-0.108484,15.749908,-42.542152,-2.928101,,,,,,
1478384769.46,-3.102185,1.199784,2.917378,1.531909,-0.189905,-0.438709,-0.014284,-0.931961,0.362278,-0.023283,0.009704,-0.045459,15.523468,-42.541176,-1.955322,,,,,,
1478384769.48,-3.129565,1.169104,2.943737,1.530739,-0.166662,-0.457879,-0.004703,-0.920401,0.390948,-0.032117,0.002462,-0.000094,15.596191,-42.690132,-0.904175,,,,,,
1478384769.50,3.125704,1.140442,2.966977,1.365461,-0.458944,-0.486750,0.006628,-0.908818,0.417140,-0.043173,-0.014308,0.023488,16.945160,-42.162865,1.357788,,,,,,
1478384769.52,3.091548,1.114841,2.990141,1.222516,-0.765679,-0.571179,0.022026,-0.897841,0.439769,-0.052513,-0.058580,-0.014125,17.543701,-42.086647,2.563477,,,,,,
1478384769.54,3.053576,1.088685,3.013717,1.333482,-0.865657,-0.667419,0.040756,-0.886018,0.461856,-0.072678,-0.109145,-0.122226,17.543701,-42.086647,2.563477,,,,,,
1478384769.56,3.014696,1.056773,3.040106,1.639433,-0.708138,-0.886548,0.062226,-0.870773,0.487731,-0.076142,-0.129104,-0.182265,17.618042,-41.935753,3.463745,,,,,,
1478384769.58,2.979316,1.016930,3.069650,1.998025,-0.365984,-1.120036,0.084980,-0.850497,0.519069,-0.093128,-0.154859,-0.168071,18.594727,-41.259850,4.371521,,,,,,
1478384769.60,2.947563,0.970077,3.100546,2.235127,-0.316159,-1.310734,0.108985,-0.824929,0.554630,-0.111747,-0.222602,-0.154544,20.469116,-40.431984,7.237793,,,,,,
1478384769.62,2.914164,0.919750,3.129623,2.299924,-0.613233,-1.365928,0.136641,-0.795450,0.590414,-0.139449,-0.352804,-0.136602,21.445679,-39.455101,9.119568,,,,,,
1478384769.64,2.879796,0.869211,-3.131897,2.287762,-1.057427,-1.206908,0.167048,-0.763820,0.623437,-0.194163,-0.554677,-0.181451,21.445679,-39.455101,9.119568,,,,,,
1478384769.66,2.841410,0.817555,-3.116371,2.409389,-1.468472,-1.262317,0.202257,-0.729475,0.653420,-0.227816,-0.708543,-0.251915,22.423035,-38.403511,10.701233,,,,,,
1478384769.68,2.800069,0.757244,-3.100021,2.874282,-1.464076,-1.664291,0.243399,-0.686921,0.684760,-0.250769,-0.857558,-0.249350,24.526733,-37.277596,11.618958,,,,,,
1478384769.70,2.759681,0.685494,-3.081286,3.210968,-1.359165,-2.098265,0.288506,-0.633055,0.718335,-0.255318,-1.044939,-0.325635,25.128448,-36.451241,12.972412,,,,,,
1478384769.72,2.721679,0.606456,-3.059114,3.294956,-1.161786,-2.484344,0.334981,-0.569959,0.750290,-0.198155,-1.114825,-0.339981,28.741943,-32.398064,16.146423,,,,,,
1478384769.74,2.689430,0.528192,-3.039787,3.153397,-1.081425,-2.234359,0.377370,-0.503972,0.776920,-0.228032,-1.019831,-0.280811,28.741943,-32.398064,16.146423,,,,,,
1478384769.76,2.659391,0.463511,-3.029266,2.113772,-1.480968,-1.676498,0.414802,-0.447091,0.792496,-0.212394,-0.679450,-0.446091,31.452484,-29.621773,17.440186,,,,,,
1478384769.78,2.617338,0.447192,-3.022768,-0.162454,-2.020600,0.131170,0.451344,-0.432436,0.780569,-0.417119,-0.846526,-0.696813,33.487122,-27.145790,18.428162,,,,,,
1478384769.80,2.587104,0.469328,-3.028685,-1.252364,-1.512366,1.120031,0.469579,-0.452287,0.758243,-0.330174,-0.578063,-0.833789,34.618164,-26.021446,17.761108,,,,,,
1478384769.82,2.561608,0.523401,-3.036928,-2.494396,-1.395213,2.112894,0.474646,-0.499829,0.724488,-0.481177,-0.492817,-0.989655,33.638824,-28.124825,14.382629,,,,,,
1478384769.84,2.542975,0.597859,-3.045917,-3.058454,-1.056719,2.485723,0.465758,-0.562874,0.682820,-0.496321,-0.130272,-0.919285,33.638824,-28.124825,14.382629,,,,,,
1478384769.86,2.530057,0.678215,-3.051758,-3.200484,-0.640485,2.446021,0.447068,-0.627404,0.637569,-0.534196,0.049844,-0.819088,33.183167,-30.302605,11.609558,,,,,,
1478384769.88,2.527637,0.756150,-3.054942,-3.027177,0.048830,2.299708,0.419107,-0.686126,0.594627,-0.502587,-0.005616,-0.642738,31.601074,-32.780312,8.901184,,,,,,
1478384769.90,2.545236,0.828664,-3.063941,-2.665432,0.880275,2.379551,0.379585,-0.737029,0.559199,-0.403648,-0.276033,-0.386638,30.171356,-34.657799,6.417480,,,,,,
1478384769.92,2.595396,0.897155,-3.088590,-2.367320,2.020531,2.603302,0.324046,-0.781555,0.533072,-0.305430,-0.378830,0.112375,26.263153,-37.510902,3.311951,,,,,,
1478384769.94,2.655618,0.971849,-3.114373,-3.414112,1.835576,2.454598,0.263322,-0.825929,0.498500,-0.162202,-0.264280,0.601003,26.263153,-37.510902,3.311951,,,,,,
1478384769.96,2.701139,1.078769,-3.127511,-5.377493,1.754930,2.926408,0.201413,-0.881377,0.427326,-0.185880,-0.390703,1.212109,24.159241,-38.711891,2.319519,,,,,,
1478384769.98,2.779040,1.215930,3.114806,-6.134035,2.203716,3.747943,0.123233,-0.937693,0.324878,-0.215686,-0.473821,0.994092,21.983398,-39.914909,-0.698608,,,,,,
1478384770.00,2.973541,1.349039,2.963547,-5.543916,2.559498,3.778796,0.036788,-0.975512,0.216846,-0.083679,-0.300595,0.689770,18.234863,-40.969078,-4.857910,,,,,,
1478384770.02,-2.804625,1.439598,2.501493,-4.221484,2.320536,3.550729,-0.043253,-0.991406,0.123465,-0.015768,-0.284473,0.691095,15.387482,-41.873528,-9.308716,,,,,,
1478384770.04,-2.025694,1.447558,1.757764,-2.840583,1.922087,2.906708,-0.110426,-0.992416,0.054010,0.152067,-0.301407,1.136633,15.387482,-41.873528,-9.308716,,,,,,
1478384770.06,-1.563386,1.413343,1.325155,-2.715783,1.409295,1.926839,-0.156799,-0.987630,-0.001162,0.324844,-0.207789,1.645831,11.424774,-41.129494,-15.275513,,,,,,
1478384770.08,-1.192287,1.377895,0.961917,-3.579502,0.412308,0.653309,-0.178138,-0.981452,-0.070843,0.630851,0.040336,1.532711,10.228699,-40.831230,-17.013428,,,,,,
,,,,,,,,,,,,,,,,37.354497,-122.033553,44.095337,1.530000,129.726562,1478384770.00
1478384770.10,-0.966465,1.347160,0.744896,-2.016609,0.781139,0.133515,-0.182497,-0.975097,-0.126017,0.591585,0.366241,1.406504,8.212952,-39.633797,-19.587097,,,,,,
1478384770.12,-0.889727,1.335791,0.668016,-0.602404,-0.522186,-0.161426,-0.180899,-0.972513,-0.146607,0.654349,0.731028,1.214356,8.973969,-38.061424,-22.209229,,,,,,
1478384770.14,-0.879244,1.332500,0.634523,-0.341467,-1.114404,-0.062169,-0.181818,-0.971741,-0.150536,0.897913,0.988068,1.498665,8.973969,-38.061424,-22.209229,,,,,,
1478384770.16,-0.879858,1.337632,0.631315,0.515374,0.545289,-0.479208,-0.178064,-0.972940,-0.147244,1.090296,0.998300,1.540951,8.901123,-38.062859,-23.635010,,,,,,
1478384770.18,-0.799792,1.370154,0.588526,0.549116,2.762928,-2.258383,-0.142939,-0.979939,-0.138882,0.922343,0.805500,0.778271,8.300446,-38.062401,-23.190979,,,,,,
1478384770.20,-0.371799,1.370503,0.243511,-3.525596,5.719703,-2.965702,-0.072279,-0.980008,-0.185363,0.306685,-0.168246,-0.495026,10.773743,-38.136482,-22.265991,,,,,,
1478384770.22,0.005628,1.382296,0.041081,0.871134,5.677474,-1.443146,0.001055,-0.982286,-0.187383,0.195830,-2.147779,-1.928416,15.954956,-36.937035,-22.817871,,,,,,
1478384770.24,0.345654,1.430877,-0.305542,3.649712,-1.988940,-2.871856,0.047252,-0.990227,-0.131215,0.572713,-0.900871,0.106648,15.954956,-36.937035,-22.817871,,,,,,
1478384770.26,0.907701,1.451584,-0.899193,2.522545,-0.202007,-1.935100,0.093728,-0.992903,-0.073209,0.511100,-0.017809,0.594907,21.354340,-35.958687,-19.466736,,,,,,
1478384770.28,1.314676,1.458374,-1.269671,1.848132,2.735715,0.058005,0.108526,-0.993687,-0.028420,0.559641,0.237904,0.646080,23.297241,-36.104393,-15.171875,,,,,,
1478384770.30,1.731863,1.476826,-1.646319,2.150034,1.472383,1.134161,0.092617,-0.995588,0.015048,0.368534,0.160475,0.208539,25.092010,-36.401817,-12.603088,,,,,,
1478384770.32,2.302944,1.480914,-2.213066,2.259304,-0.267562,1.320813,0.066759,-0.995963,0.060002,0.268065,-0.164971,0.025798,24.934143,-37.449715,-10.501526,,,,,,
1478384770.34,2.750635,1.457511,-2.685563,2.290181,-1.594363,1.278754,0.043078,-0.993590,0.104514,0.156522,-0.171113,-0.015021,24.934143,-37.449715,-10.501526,,,,,,
1478384770.36,2.981277,1.422509,-2.954020,2.017481,-1.656641,1.153102,0.023584,-0.989026,0.145850,0.155798,0.043393,0.169564,23.501312,-38.497627,-8.412659,,,,,,
1478384770.38,3.124794,1.389909,-3.118913,1.569770,-0.527942,1.267613,0.003022,-0.983684,0.179877,0.081908,0.004848,0.300775,20.415558,-40.145409,-6.188599,,,,,,
1478384770.40,-3.028875,1.362628,3.030100,1.158004,0.029996,1.382752,-0.023246,-0.978411,0.205356,0.009498,0.037341,0.191113,20.036163,-40.744286,-5.065613,,,,,,
1478384770.42,-2.930500,1.338639,2.926569,0.923534,-0.331117,1.241388,-0.048208,-0.973172,0.224970,-0.054347,0.059522,0.047003,18.532166,-41.343391,-4.178833,,,,,,
1478384770.44,-2.879594,1.317733,2.858612,0.761082,-0.979122,0.912385,-0.064849,-0.968150,0.241827,-0.093903,0.062190,0.001338,18.532166,-41.343391,-4.178833,,,,,,
1478384770.46,-2.863820,1.301058,2.821153,0.624024,-0.930521,0.557564,-0.073072,-0.963841,0.256265,-0.111284,0.036564,0.073920,17.178467,-41.867516,-3.290833,,,,,,
1478384770.48,-2.865207,1.288192,2.809357,0.562366,-0.482564,0.200768,-0.076095,-0.960332,0.268275,-0.130677,0.028768,0.063345,16.276337,-42.166985,-2.773926,,,,,,
1478384770.50,-2.881661,1.276825,2.819466,0.603816,-0.265063,-0.095583,-0.074471,-0.957101,0.280022,-0.130653,0.062524,0.025185,15.674133,-42.391167,-1.954224,,,,,,
1478384770.52,-2.910425,1.266075,2.846363,0.618963,-0.126040,-0.343048,-0.068741,-0.953931,0.292046,-0.101166,0.075162,0.011268,15.823547,-42.541252,-2.027344,,,,,,
1478384770.54,-2.950744,1.256058,2.885055,0.609267,-0.183880,-0.536608,-0.058722,-0.950877,0.303947,-0.059030,0.024410,0.000405,15.823547,-42.541252,-2.027344,,,,,,
1478384770.56,-2.996366,1.246254,2.929175,0.599637,-0.214908,-0.629663,-0.046146,-0.947797,0.315518,-0.024776,-0.010913,-0.037457,17.171478,-42.765556,-1.338135,,,,,,
1478384770.58,-3.044264,1.235318,2.972488,0.662109,-0.423770,-0.624787,-0.031992,-0.944253,0.327663,-0.022436,0.004433,-0.104381,16.046478,-42.615120,-0.899902,,,,,,
1478384770.60,-3.090933,1.220556,3.011500,0.884048,-0.516373,-0.585124,-0.017375,-0.939290,0.342683,-0.016210,0.013463,-0.121690,17.473206,-41.939201,0.012390,,,,,,
1478384770.62,-3.131107,1.198952,3.045319,1.231903,-0.353636,-0.559497,-0.003810,-0.931659,0.363314,-0.009237,-0.023541,-0.087222,18.448364,-41.638435,0.771240,,,,,,
1478384770.64,3.118605,1.171210,3.075160,1.444728,-0.293347,-0.581398,0.008942,-0.921222,0.388935,-0.015198,-0.064938,-0.064640,18.448364,-41.638435,0.771240,,,,,,
1478384770.66,3.086237,1.142043,3.100547,1.412711,-0.589787,-0.553422,0.023002,-0.909485,0.415101,-0.031699,-0.091156,-0.061585,17.921631,-41.637245,1.965942,,,,,,
1478384770.68,3.051920,1.113965,3.121384,1.356037,-0.849238,-0.547824,0.039502,-0.897455,0.439334,-0.058835,-0.080481,-0.066715,19.047516,-41.186501,2.725769,,,,,,
1478384770.70,3.017102,1.084780,3.140548,1.470026,-0.895848,-0.643912,0.058001,-0.884201,0.463493,-0.101351,-0.147767,-0.138129,19.946259,-41.035210,4.009399,,,,,,
1478384770.72,2.978639,1.049840,-3.118995,1.771006,-0.884398,-0.940378,0.080745,-0.867344,0.491116,-0.136486,-0.174343,-0.215497,20.471130,-40.433327,5.887817,,,,,,
1478384770.74,2.935821,1.007089,-3.090163,2.054258,-0.965218,-1.183708,0.109175,-0.845280,0.523052,-0.178114,-0.293011,-0.288204,20.471130,-40.433327,5.887817,,,,,,
1478384770.76,2.894424,0.957555,-3.066350,2.453086,-1.104290,-1.244427,0.140807,-0.817787,0.558031,-0.191619,-0.477059,-0.250627,21.373962,-39.532494,6.719177,,,,,,
1478384770.78,2.857883,0.899353,-3.049636,2.784828,-1.231965,-1.227106,0.174142,-0.782924,0.597247,-0.285715,-0.636631,-0.335452,22.801178,-38.556068,8.155518,,,,,,
1478384770.80,2.821538,0.836917,-3.041246,2.966368,-1.675746,-1.183138,0.210717,-0.742582,0.635744,-0.375024,-0.856219,-0.394289,24.378418,-37.579628,9.593323,,,,,,
1478384770.82,2.779025,0.767444,-3.032995,3.368877,-1.852889,-1.665851,0.255256,-0.694298,0.672900,-0.367164,-0.949043,-0.322803,26.334686,-35.101387,12.830444,,,,,,
1478384770.84,2.736579,0.681161,-3.016788,3.993389,-1.344068,-2.501008,0.306100,-0.629696,0.713993,-0.311944,-0.942707,-0.175480,26.334686,-35.101387,12.830444,,,,,,
1478384770.86,2.706111,0.584173,-2.996021,4.025015,-0.707836,-2.758830,0.351892,-0.551510,0.756313,-0.274438,-0.966297,-0.064128,28.965668,-33.224724,14.501160,,,,,,
1478384770.88,2.685789,0.501441,-2.981073,3.003084,-0.608451,-2.071202,0.385994,-0.480689,0.787367,-0.284294,-0.749444,-0.041624,31.002716,-29.922829,16.386597,,,,,,
1478384770.90,2.664335,0.456472,-2.968502,0.728621,-1.050051,-0.989788,0.412314,-0.440784,0.797312,-0.315817,-0.735837,-0.424403,32.812927,-27.071098,18.121216,,,,,,
1478384770.92,2.634398,0.483550,-2.962160,-2.102420,-1.252810,0.963147,0.430038,-0.464926,0.773894,-0.444229,-0.770594,-0.750716,33.946350,-25.421761,17.452515,,,,,,
1478384770.94,2.609900,0.539736,-2.951933,-2.974852,-0.893298,1.048092,0.434921,-0.513909,0.739419,-0.449524,-0.224067,-1.018548,33.946350,-25.421761,17.452515,,,,,,
1478384770.96,2.586497,0.610703,-2.938492,-3.444499,-0.711148,1.524293,0.431762,-0.573444,0.696235,-0.560470,-0.040326,-1.023063,34.315918,-27.298775,15.436890,,,,,,
1478384770.98,2.588592,0.672808,-2.934097,-2.182084,0.861007,1.423971,0.410780,-0.623185,0.665508,-0.377104,0.143326,-1.091366,33.786774,-29.026176,13.036743,,,,,,
1478384771.00,2.591831,0.722997,-2.934125,-2.127666,-0.542598,1.287721,0.391772,-0.661635,0.639339,-0.352328,-0.197206,-0.964504,32.281342,-30.903221,11.002380,,,,,,
1478384771.02,2.575958,0.772576,-2.937801,-2.040198,-0.791202,1.530789,0.383803,-0.697982,0.604579,-0.192717,-0.414399,-0.469631,31.002441,-32.104210,10.018127,,,,,,
1478384771.04,2.581092,0.827494,-2.949417,-2.149096,0.163819,2.007607,0.359753,-0.736238,0.573177,-0.061993,-0.349639,-0.046413,31.002441,-32.104210,10.018127,,,,,,
1478384771.06,2.607992,0.895749,-2.972432,-2.948398,0.588258,2.680490,0.317865,-0.780677,0.538057,0.069876,-0.240548,0.346068,29.797150,-34.507881,6.338257,,,,,,
1478384771.08,2.635291,0.998170,-2.995780,-4.784487,0.158418,3.448582,0.262764,-0.840481,0.473864,0.082344,-0.244755,0.673536,28.067902,-36.084770,4.450745,,,,,,
1478384771.10,2.672264,1.128195,-3.035655,-5.432539,0.267742,4.136888,0.193711,-0.903641,0.381981,-0.021225,-0.314575,0.618584,24.763306,-38.037575,1.648560,,,,,,
,,,,,,,,,,,,,,,,37.354484,-122.033541,45.485291,1.590000,125.859375,1478384771.00
1478384771.12,2.780250,1.259815,-3.134014,-5.098406,1.147929,4.374943,0.108178,-0.952034,0.286233,-0.026833,-0.310738,0.540671,21.686188,-39.916801,-2.576538,,,,,,
1478384771.14,3.064061,1.368749,2.890689,-4.209437,1.965364,4.368054,0.015543,-0.979658,0.200072,0.032171,-0.424044,0.659715,21.686188,-39.916801,-2.576538,,,,,,
1478384771.16,-2.603448,1.423456,2.316654,-3.369995,2.798129,4.052347,-0.075245,-0.989165,0.126058,0.176869,-0.397126,0.980677,15.539948,-41.649498,-10.282837,,,,,,
1478384771.18,-1.964365,1.407118,1.737570,-2.535797,3.578127,2.984317,-0.150491,-0.986634,0.062489,0.377877,-0.013030,1.532360,12.018555,-41.727150,-12.942810,,,,,,
1478384771.20,-1.569289,1.383343,1.401293,-2.855033,2.848570,0.970984,-0.186357,-0.982482,-0.000281,0.513201,0.218520,1.544425,9.395294,-41.878761,-14.543640,,,,,,
1478384771.22,-1.217337,1.372814,1.086749,-2.829496,1.850803,-0.466608,-0.184532,-0.980466,-0.068084,0.555625,0.321255,1.528487,10.077576,-40.905708,-16.489746,,,,,,
1478384771.24,-0.979409,1.373649,0.871845,-1.276770,0.950580,-1.273042,-0.162607,-0.980629,-0.109202,0.620295,0.649315,1.313242,10.077576,-40.905708,-16.489746,,,,,,
1478384771.26,-0.830519,1.388639,0.722914,-0.368727,-0.236600,-1.424307,-0.133741,-0.983455,-0.122185,0.760358,0.894649,1.443078,10.910675,-39.857948,-18.734497,,,,,,
1478384771.28,-0.748251,1.403434,0.637509,0.291172,0.224469,-0.820369,-0.113336,-0.986028,-0.122085,0.930764,0.961201,1.668395,12.567383,-38.734062,-19.846313,,,,,,
1478384771.30,-0.751597,1.430443,0.661095,1.429744,1.553970,-0.917299,-0.095520,-0.990167,-0.102206,0.760147,0.844155,1.031085,14.144165,-38.359123,-19.906616,,,,,,
1478384771.32,-0.365303,1.404473,0.334517,-4.485960,3.187385,-1.776767,-0.059143,-0.986200,-0.154634,0.324310,-0.290076,-0.643981,15.042480,-38.282768,-18.547913,,,,,,
1478384771.34,0.003059,1.429125,0.076555,2.068559,4.107827,-1.986132,0.000432,-0.989981,-0.141197,0.274531,-2.159417,-1.744011,15.042480,-38.282768,-18.547913,,,,,,
1478384771.36,0.434129,1.480793,-0.384879,3.809239,-2.751667,-1.915431,0.037806,-0.995952,-0.081544,0.344625,-0.895741,0.292726,17.748383,-37.459236,-20.023315,,,,,,
1478384771.38,1.338496,1.508719,-1.319494,3.236187,0.075193,-0.747277,0.060371,-0.998074,-0.014282,0.490426,0.060635,0.746292,21.641510,-37.304176,-14.959839,,,,,,
1478384771.40,2.252178,1.490955,-2.190289,2.947110,2.921406,0.166072,0.061947,-0.996814,0.050236,0.610935,0.416614,0.604366,22.611298,-37.601616,-12.399231,,,,,,
1478384771.42,2.682088,1.461292,-2.596053,1.916156,-0.100428,0.862193,0.048469,-0.994010,0.097950,0.381860,0.218894,0.003491,23.202301,-38.347862,-8.641113,,,,,,
1478384771.44,2.928730,1.439774,-2.871364,1.385985,-1.603074,1.371048,0.027600,-0.991429,0.127699,0.260333,-0.228572,0.198778,23.202301,-38.347862,-8.641113,,,,,,
1478384771.46,-3.141062,1.417549,-3.111011,1.259349,-0.848780,1.665650,-0.000081,-0.988281,0.152648,0.119862,-0.212174,0.200288,22.296509,-39.171440,-7.222717,,,,,,
1478384771.48,-2.965433,1.390174,2.983449,1.223997,-0.471451,1.640985,-0.031482,-0.983732,0.176862,0.026935,0.090238,0.039020,20.640900,-40.070412,-6.186584,,,,,,
1478384771.50,-2.861453,1.358307,2.862509,1.300749,-0.914384,1.431557,-0.058310,-0.977509,0.202672,-0.031793,0.081818,-0.019674,17.931946,-41.644142,-4.933899,,,,,,
1478384771.52,-2.806289,1.326342,2.785789,1.223876,-0.952188,1.239004,-0.079640,-0.970270,0.228549,-0.051921,0.020074,0.068021,16.728821,-42.093407,-4.194641,,,,,,
1478384771.54,-2.776838,1.298143,2.737901,1.045969,-0.766558,0.933636,-0.096060,-0.963060,0.251571,-0.061716,0.033464,0.087296,16.728821,-42.093407,-4.194641,,,,,,
1478384771.56,-2.768767,1.275634,2.716939,0.885821,-0.522354,0.523755,-0.105958,-0.956755,0.270911,-0.071929,0.059141,0.086373,15.600830,-42.542747,-3.529541,,,,,,
1478384771.58,-2.777469,1.258479,2.715151,0.748093,-0.554903,0.254184,-0.109426,-0.951624,0.287119,-0.124277,0.047510,0.018102,14.322174,-42.991707,-2.490967,,,,,,
1478384771.60,-2.796684,1.243069,2.720636,0.777460,-0.790816,0.148880,-0.108835,-0.946776,0.302934,-0.157995,0.037856,-0.025179,14.094177,-43.290581,-1.367371,,,,,,
1478384771.62,-2.824831,1.226527,2.733729,0.898527,-0.744079,0.003914,-0.105131,-0.941322,0.320718,-0.164598,0.065040,-0.008645,14.093964,-43.139977,-0.767822,,,,,,
1478384771.64,-2.860615,1.208809,2.758446,1.012642,-0.574843,-0.246501,-0.098200,-0.935195,0.340246,-0.163596,0.089293,-0.034476,14.093964,-43.139977,-0.767822,,,,,,
1478384771.66,-2.905853,1.190018,2.796284,1.138545,-0.448799,-0.542957,-0.086802,-0.928376,0.361364,-0.133596,0.045258,-0.049276,13.567291,-43.289314,-0.097656,,,,,,
1478384771.68,-2.959187,1.168944,2.847695,1.280996,-0.175581,-0.851800,-0.070948,-0.920338,0.384635,-0.089421,-0.010326,-0.004463,14.618042,-42.988930,0.286987,,,,,,
1478384771.70,-3.012648,1.146163,2.905632,1.313020,0.048652,-1.028485,-0.052976,-0.911190,0.408566,-0.052065,-0.017384,0.018085,15.741028,-42.611443,2.772034,,,,,,
1478384771.72,-3.062902,1.122707,2.961876,1.264120,-0.002172,-1.069310,-0.034057,-0.901277,0.431903,-0.017182,-0.009414,0.011441,16.640228,-42.460457,3.755615,,,,,,
1478384771.74,-3.109697,1.099634,3.011939,1.193323,-0.152202,-1.011083,-0.014475,-0.891041,0.453692,0.003764,-0.018108,-0.008700,16.640228,-42.460457,3.755615,,,,,,
1478384771.76,3.133447,1.075798,3.051665,1.231334,-0.297331,-0.844742,0.003869,-0.879969,0.475015,-0.003869,-0.111745,-0.055368,16.791687,-41.709190,5.029846,,,,,,
1478384771.78,3.098783,1.049219,3.081410,1.363325,-0.521713,-0.727713,0.021323,-0.867034,0.497792,0.009667,-0.154282,-0.115757,18.293121,-41.108345,5.868042,,,,,,
1478384771.80,3.065263,1.019307,3.105641,1.507776,-0.701071,-0.690560,0.039955,-0.851745,0.522431,-0.001625,-0.187348,-0.154023,19.042694,-40.957588,6.625122,,,,,,
1478384771.82,3.032829,0.987516,3.127918,1.546828,-0.634857,-0.787537,0.059785,-0.834660,0.547511,-0.001710,-0.191737,-0.182322,20.018127,-40.055183,9.032166,,,,,,
1478384771.84,3.003272,0.952545,-3.132726,1.756071,-0.493369,-0.889352,0.079917,-0.814893,0.574075,-0.065268,-0.176424,-0.245843,20.018127,-40.055183,9.032166,,,,,,
1478384771.86,2.978471,0.910303,-3.112662,2.168190,-0.443662,-0.876746,0.099633,-0.789690,0.605362,-0.150094,-0.327086,-0.321640,21.296051,-39.229652,9.567444,,,,,,
1478384771.88,2.958092,0.858710,-3.102658,2.670241,-0.783303,-0.701585,0.119230,-0.757001,0.642444,-0.198606,-0.548801,-0.359027,22.121155,-38.627922,11.298950,,,,,,
1478384771.90,2.933759,0.799758,-3.098409,2.997445,-1.206856,-0.796202,0.143795,-0.717188,0.681883,-0.191860,-0.655615,-0.295485,23.246735,-37.951256,12.958069,,,,,,
1478384771.92,2.897281,0.732440,-3.085206,3.231520,-1.455674,-1.509117,0.179855,-0.668686,0.721465,-0.154633,-0.748536,-0.178847,24.603027,-35.247353,16.863586,,,,,,
1478384771.94,2.848473,0.660658,-3.058506,3.148064,-1.657074,-2.173307,0.228144,-0.613637,0.755910,-0.123469,-0.843120,-0.110647,24.603027,-35.247353,16.863586,,,,,,
1478384771.96,2.798461,0.589619,-3.026350,2.794380,-1.421801,-2.377343,0.279631,-0.556044,0.782701,-0.113539,-0.966493,-0.133501,26.935303,-33.296364,17.856018,,,,,,
1478384771.98,2.762307,0.529347,-2.997654,2.163338,-0.821732,-2.061606,0.319583,-0.504970,0.801793,-0.081500,-0.956730,-0.220220,28.970428,-30.594994,19.218323,,,,,,
1478384772.00,2.739779,0.479717,-2.975838,1.767803,-0.571792,-1.740011,0.346945,-0.461528,0.816469,-0.010244,-0.643514,-0.391298,30.929413,-28.344231,19.981140,,,,,,
1478384772.02,2.706083,0.468344,-2.953937,-1.244383,-1.694676,-0.378623,0.376444,-0.451409,0.809024,-0.252787,-0.990165,-1.116260,31.688324,-26.093407,20.806946,,,,,,
1478384772.04,2.664803,0.510636,-2.939468,-2.588623,-1.652983,0.493122,0.400385,-0.488732,0.775134,-0.129862,-0.451896,-0.986850,31.688324,-26.093407,20.806946,,,,,,
1478384772.06,2.621781,0.581116,-2.913873,-3.112283,-0.713192,0.718097,0.415181,-0.548957,0.725445,-0.291860,-0.347863,-1.119824,33.566986,-26.321541,17.676453,,,,,,
1478384772.08,2.644286,0.622072,-2.912375,-1.767516,0.575890,0.924846,0.387694,-0.582720,0.714234,-0.300078,-0.258405,-1.817491,33.863129,-28.124382,14.834778,,,,,,
1478384772.10,2.604069,0.655837,-2.912465,-1.304175,-3.026289,0.900785,0.405788,-0.609823,0.680773,-0.239101,-0.269740,-0.906802,32.809082,-28.949165,15.051758,,,,,,
,,,,,,,,,,,,,,,,37.354477,-122.033530,45.650208,1.590000,110.742188,1478384772.00
1478384772.12,2.557433,0.691792,-2.919277,-1.395796,-1.817287,1.372988,0.424711,-0.637918,0.642402,-0.138838,-0.317038,-0.381767,32.507721,-30.076637,12.577087,,,,,,
1478384772.14,2.565285,0.734003,-2.938274,-1.434486,0.572388,2.045122,0.404611,-0.669847,0.622571,-0.091943,-0.502943,-0.115125,32.507721,-30.076637,12.577087,,,,,,
1478384772.16,2.611969,0.791979,-2.970047,-2.284548,1.554081,2.752571,0.354878,-0.711745,0.606202,0.006206,-0.348497,0.455291,31.527313,-32.555473,8.749817,,,,,,
1478384772.18,2.664029,0.888894,-2.997822,-4.718025,1.314547,3.380184,0.289683,-0.776375,0.559755,-0.152049,-0.188164,0.715010,29.569672,-34.431007,8.210815,,,,,,
1478384772.20,2.703869,1.021268,-3.026114,-5.876626,0.715196,3.771836,0.221386,-0.852771,0.473043,-0.341076,-0.178189,0.517603,26.186707,-36.908134,6.084412,,,,,,
1478384772.22,2.764072,1.158023,-3.075202,-5.688913,0.945674,3.711897,0.147871,-0.916012,0.372902,-0.380339,-0.134495,0.433265,24.009949,-38.712349,1.868103,,,,,,
1478384772.24,2.887013,1.278928,3.103673,-4.826846,1.444202,3.548094,0.072465,-0.957708,0.278468,-0.375168,-0.236033,0.567815,24.009949,-38.712349,1.868103,,,,,,
1478384772.26,-3.122890,1.373927,2.858141,-4.119817,1.830027,3.467048,-0.003658,-0.980684,0.195566,-0.287419,-0.351821,0.847494,20.709167,-40.366798,-2.584961,,,,,,
1478384772.28,-2.584923,1.433066,2.349471,-3.843338,1.758174,2.994020,-0.072542,-0.990530,0.116567,-0.109175,-0.212900,1.236232,14.863617,-41.648598,-9.389587,,,,,,
1478384772.30,-1.878906,1.437625,1.673007,-3.539838,1.816780,2.356862,-0.126525,-0.991146,0.040266,0.047546,-0.133473,1.456713,12.243134,-41.651634,-12.415771,,,,,,
1478384772.32,-1.373097,1.405721,1.197622,-3.417556,1.645994,1.154630,-0.161126,-0.986406,-0.032276,0.450737,-0.042021,1.454594,11.200775,-40.979713,-15.503235,,,,,,
1478384772.34,-1.012316,1.381923,0.858826,-2.821516,1.340041,-0.522598,-0.159225,-0.982216,-0.099489,0.568741,0.147500,1.635592,11.200775,-40.979713,-15.503235,,,,,,
1478384772.36,-0.780508,1.374736,0.652948,-1.219502,1.409740,-1.172425,-0.137074,-0.980842,-0.138421,0.642231,0.658881,1.633370,10.458313,-40.157280,-18.063110,,,,,,
1478384772.38,-0.606916,1.375881,0.485474,-1.028164,-0.126775,-1.222261,-0.110465,-0.981064,-0.159094,0.726538,1.003342,1.502660,12.346680,-38.135124,-20.900330,,,,,,
1478384772.40,-0.496277,1.367721,0.366958,-0.723739,-0.046782,-0.517421,-0.096032,-0.979451,-0.177352,0.846200,0.986760,1.620559,13.927551,-37.161079,-21.862366,,,,,,
1478384772.42,-0.452864,1.379544,0.339619,1.213753,1.263592,-0.678188,-0.083172,-0.981767,-0.170927,0.893215,0.898835,1.388242,14.379852,-36.861748,-22.533752,,,,,,
1478384772.44,-0.302275,1.409495,0.235521,-1.119758,4.075051,-2.033547,-0.047810,-0.987019,-0.153321,0.550679,0.183369,-0.571365,14.379852,-36.861748,-22.533752,,,,,,
1478384772.46,0.159280,1.375120,-0.085763,1.864895,9.851992,-2.460132,0.030838,-0.980917,-0.191968,0.454071,-1.822245,-0.938235,15.427185,-37.010384,-21.172913,,,,,,
1478384772.48,0.446492,1.405024,-0.356815,3.277924,-3.125384,-1.854456,0.071254,-0.986291,-0.148838,0.321111,-1.147574,0.046558,18.655151,-36.260139,-20.917908,,,,,,
1478384772.50,0.880765,1.450884,-0.866394,3.703290,-2.497992,-1.011142,0.092258,-0.992819,-0.076149,0.418759,-0.202844,0.598655,23.827393,-35.430809,-16.593628,,,,,,
1478384772.52,1.468789,1.478690,-1.434830,3.239217,3.076308,0.628455,0.091498,-0.995761,-0.009366,0.555353,0.228900,0.941892,23.896484,-36.103859,-14.640930,,,,,,
1478384772.54,2.292123,1.477363,-2.193604,3.148292,2.753874,1.088968,0.070060,-0.995638,0.061612,0.423288,0.317217,0.114383,23.896484,-36.103859,-14.640930,,,,,,
1478384772.56,2.758334,1.448396,-2.649050,2.256100,-0.605709,1.250190,0.045657,-0.992518,0.113237,0.247633,-0.089391,0.040816,24.409485,-37.449959,-10.731812,,,,,,
1478384772.58,2.991316,1.416580,-2.921823,1.904934,-2.261728,1.459777,0.022997,-0.988132,0.151874,0.121794,-0.147259,0.159298,23.048950,-38.496056,-6.842224,,,,,,
1478384772.60,3.131417,1.384058,-3.103638,1.640441,-1.553064,1.372587,0.001889,-0.982615,0.185646,0.062640,-0.026907,0.296685,21.239227,-40.069283,-5.055603,,,,,,
1478384772.62,-3.037868,1.353174,3.049608,1.386846,-0.225526,1.367251,-0.022355,-0.976413,0.214748,-0.002364,0.065738,0.268467,19.585388,-40.593315,-4.095581,,,,,,
1478384772.64,-2.944338,1.326203,2.953402,1.028042,-0.022562,1.229358,-0.047459,-0.970236,0.237466,-0.074886,0.092810,0.123847,19.585388,-40.593315,-4.095581,,,,,,
1478384772.66,-2.885699,1.305278,2.884637,0.720788,-0.657384,0.977067,-0.066418,-0.964957,0.253864,-0.131519,0.041083,0.051235,17.629730,-41.416985,-2.762634,,,,,,
1478384772.68,-2.865844,1.290033,2.845490,0.524988,-0.936724,0.522946,-0.075442,-0.960844,0.266621,-0.118451,0.028715,0.081874,16.800995,-41.941093,-1.869324,,,,,,
1478384772.70,-2.876282,1.279757,2.839393,0.457485,-0.711042,0.052276,-0.075240,-0.957946,0.276908,-0.103410,0.067932,0.078164,16.049316,-42.240868,-1.650940,,,,,,
1478384772.72,-2.901714,1.271180,2.856823,0.501392,-0.256383,-0.223119,-0.070124,-0.955450,0.286703,-0.091711,0.073461,0.083857,15.898346,-42.390648,-1.427002,,,,,,
1478384772.74,-2.928593,1.261916,2.884595,0.567232,0.080755,-0.338535,-0.064262,-0.952674,0.297123,-0.063622,0.040626,0.047085,15.898346,-42.390648,-1.427002,,,,,,
1478384772.76,-2.958672,1.252468,2.917433,0.551417,-0.019813,-0.444613,-0.056932,-0.949760,0.307757,-0.024596,0.027046,-0.014834,15.597565,-42.314903,-0.680298,,,,,,
1478384772.78,-2.997021,1.243661,2.953410,0.512942,-0.326029,-0.513992,-0.046294,-0.946967,0.317980,0.020613,-0.003244,-0.040270,16.647186,-42.314659,-0.444763,,,,,,
1478384772.80,-3.036228,1.234601,2.987366,0.536510,-0.341309,-0.460572,-0.034695,-0.944017,0.328068,0.031903,-0.015670,-0.034093,17.397980,-42.014275,-0.063171,,,,,,
1478384772.82,-3.068783,1.223295,3.014000,0.660447,-0.405793,-0.359034,-0.024773,-0.940227,0.339647,0.016305,-0.010045,-0.084734,17.171967,-41.938393,0.834351,,,,,,
1478384772.84,-3.097562,1.207777,3.034403,0.880389,-0.524699,-0.287394,-0.015630,-0.934829,0.354754,-0.017970,-0.022050,-0.114505,17.171967,-41.938393,0.834351,,,,,,
1478384772.86,-3.124858,1.187207,3.050764,1.135437,-0.652624,-0.267002,-0.006263,-0.927327,0.374199,-0.029168,-0.007640,-0.129020,17.621643,-41.862938,1.288635,,,,,,
1478384772.88,3.132422,1.161187,3.064005,1.403050,-0.708888,-0.236776,0.003652,-0.917276,0.398235,-0.070730,-0.091208,-0.145442,18.748322,-41.337471,1.748352,,,,,,
1478384772.90,3.108098,1.130064,3.074186,1.641828,-0.769126,-0.262168,0.014286,-0.904440,0.426363,-0.103184,-0.143275,-0.145036,18.372406,-41.261650,2.569336,,,,,,
1478384772.92,3.081815,1.094018,3.087121,1.863951,-0.702360,-0.459256,0.027417,-0.888478,0.458100,-0.108273,-0.178569,-0.112412,18.444824,-40.959023,5.194153,,,,,,
1478384772.94,3.047392,1.055134,3.110760,1.896204,-0.671169,-0.895030,0.046383,-0.869966,0.490925,-0.096554,-0.175429,-0.122227,18.444824,-40.959023,5.194153,,,,,,
1478384772.96,3.003261,1.014211,-3.134175,1.947024,-0.475077,-1.378398,0.072847,-0.849064,0.523244,-0.118593,-0.246197,-0.143223,19.869812,-40.582878,6.332275,,,,,,
1478384772.98,2.959826,0.970757,-3.093051,1.946077,-0.528872,-1.414874,0.102075,-0.825313,0.555373,-0.206384,-0.547550,-0.274321,21.297058,-39.681679,7.543884,,,,,,
1478384773.00,2.918640,0.926782,-3.061458,2.015563,-0.908993,-1.366651,0.132757,-0.799692,0.585549,-0.186605,-0.647696,-0.315881,22.499298,-38.630013,9.202637,,,,,,
1478384773.02,2.872512,0.877414,-3.029389,2.267115,-1.107208,-1.690491,0.169913,-0.769088,0.616143,-0.265570,-0.673783,-0.408013,22.725098,-38.028740,10.478149,,,,,,
1478384773.04,2.825754,0.817331,-2.997778,2.788789,-1.156966,-1.998494,0.212512,-0.729322,0.650329,-0.307926,-0.876986,-0.418441,22.725098,-38.028740,10.478149,,,,,,
1478384773.06,2.782094,0.744266,-2.964113,3.189536,-0.840201,-2.583489,0.258783,-0.677432,0.688562,-0.244546,-1.056760,-0.404687,26.708466,-35.326225,12.984863,,,,,,
1478384773.08,2.746905,0.659916,-2.925269,3.443870,-0.335069,-3.076337,0.303788,-0.613050,0.729303,-0.147599,-1.050875,-0.391748,28.591339,-33.074715,14.496948,,,,,,
1478384773.10,2.724579,0.574995,-2.893735,3.362076,-0.183530,-2.603820,0.339900,-0.543831,0.767278,-0.129833,-0.805519,-0.360082,30.626465,-30.147682,16.533508,,,,,,
,,,,,,,,,,,,,,,,37.354475,-122.033524,48.107483,0.630000,133.593750,1478384773.00
1478384773.12,2.709085,0.505979,-2.880624,2.348204,-0.696164,-1.430661,0.366630,-0.484664,0.794156,-0.137672,-0.598909,-0.681271,32.284668,-27.595497,18.717468,,,,,,
1478384773.14,2.683248,0.497672,-2.884247,-0.438403,-1.680357,0.749913,0.388792,-0.477381,0.788003,-0.212309,-0.643285,-0.753365,32.284668,-27.595497,18.717468,,,,,,
1478384773.16,2.651695,0.534066,-2.893378,-2.065619,-1.893940,1.333058,0.405011,-0.509037,0.759505,-0.301480,-0.515682,-1.059996,34.396362,-24.895180,19.030457,,,,,,
1478384773.18,2.612036,0.595572,-2.897179,-2.799136,-2.141860,1.800138,0.418178,-0.560982,0.714441,-0.436839,-0.368049,-0.999903,34.317383,-26.547493,16.709595,,,,,,
1478384773.20,2.572742,0.663825,-2.896318,-2.944552,-1.717312,1.653610,0.424274,-0.616134,0.663604,-0.443698,-0.054093,-0.913512,33.337799,-28.500282,13.930725,,,,,,
1478384773.22,2.540239,0.725598,-2.887735,-2.697152,-1.283565,1.350734,0.423246,-0.663583,0.616864,-0.425077,0.061440,-0.818753,32.885193,-30.153511,10.706116,,,,,,
1478384773.24,2.505833,0.784426,-2.877500,-2.524194,-1.333481,1.495134,0.420280,-0.706419,0.569505,-0.315574,-0.180208,-0.469332,32.885193,-30.153511,10.706116,,,,,,
1478384773.26,2.489096,0.845381,-2.879106,-2.374403,-0.561927,2.165281,0.402826,-0.748224,0.527155,-0.190805,-0.458060,-0.082224,32.582703,-31.656364,7.857605,,,,,,
1478384773.28,2.506064,0.917110,-2.898846,-2.615291,0.505101,2.947746,0.360980,-0.793848,0.489387,0.024136,-0.397681,0.458138,30.553741,-34.136177,3.044739,,,,,,
1478384773.30,2.555258,1.009811,-2.931215,-3.820882,1.427394,3.706765,0.294373,-0.846731,0.443160,0.125732,-0.248514,0.889940,27.846466,-36.237617,1.599060,,,,,,
1478384773.32,2.619271,1.134243,-2.972076,-5.166286,1.381802,4.329326,0.210942,-0.906214,0.366441,-0.044743,-0.262090,0.777235,25.667328,-37.814583,-0.368103,,,,,,
1478384773.34,2.748259,1.269507,-3.074927,-5.158476,1.833774,4.822057,0.113736,-0.954955,0.274090,-0.071545,-0.274248,0.703769,25.667328,-37.814583,-0.368103,,,,,,
1478384773.36,3.076071,1.385543,2.915534,-4.560739,2.325777,4.552003,0.012060,-0.982890,0.183800,-0.026586,-0.307241,0.645728,22.065186,-39.543373,-4.148926,,,,,,
1478384773.38,-2.487027,1.445117,2.238645,-3.943760,2.604904,3.875396,-0.076314,-0.992113,0.099441,0.067373,-0.406691,0.827988,14.117340,-41.350197,-10.972961,,,,,,
1478384773.40,-1.738344,1.420783,1.535767,-3.171378,2.558203,3.120168,-0.147358,-0.988769,0.024923,0.170506,-0.369065,1.063563,11.497559,-41.203224,-13.999634,,,,,,
1478384773.42,-1.363974,1.373081,1.200239,-2.841101,1.890859,1.734232,-0.192243,-0.980518,-0.040337,0.383497,-0.126400,1.435616,10.604126,-40.605858,-16.635315,,,,,,
1478384773.44,-1.111420,1.338338,0.977945,-2.723659,1.785503,0.293913,-0.206488,-0.973103,-0.102144,0.518103,0.146397,1.621721,10.604126,-40.605858,-16.635315,,,,,,
1478384773.46,-0.897122,1.326324,0.796597,-1.687592,1.905723,-1.130297,-0.189167,-0.970265,-0.151002,0.715457,0.426198,1.817613,9.483582,-40.157448,-18.222900,,,,,,
1478384773.48,-0.712763,1.335323,0.637102,-0.760381,1.117562,-1.829601,-0.152563,-0.972404,-0.176507,0.729101,0.790886,1.577661,10.090973,-39.259682,-20.469482,,,,,,
1478384773.50,-0.554406,1.346603,0.485119,-0.456863,0.281965,-1.571745,-0.117038,-0.974974,-0.189019,0.832812,1.057509,1.625756,13.324829,-37.685860,-21.641907,,,,,,
1478384773.52,-0.442248,1.362749,0.384223,0.713699,1.131830,-1.274623,-0.088397,-0.978436,-0.186678,0.844455,1.025967,1.531297,14.527863,-37.161293,-22.081421,,,,,,
1478384773.54,-0.311768,1.394084,0.291235,0.359963,2.691285,-1.486770,-0.053923,-0.984427,-0.167319,0.483611,0.723563,0.711188,14.527863,-37.161293,-22.081421,,,,,,
1478384773.56,-0.004340,1.359735,0.099106,1.974872,9.493340,-1.696028,-0.000909,-0.977809,-0.209496,0.142862,-1.100087,-0.844169,15.951935,-37.010231,-21.017639,,,,,,
1478384773.58,0.239083,1.413598,-0.115057,4.125239,-2.195535,-1.724441,0.037073,-0.987670,-0.152098,0.233984,-2.285447,-1.189485,17.680176,-36.260155,-20.927673,,,,,,
1478384773.60,0.771221,1.490785,-0.708328,4.752260,-2.286801,-0.806895,0.055710,-0.996801,-0.057312,0.223297,-0.463862,0.328522,22.996857,-36.254616,-15.399414,,,,,,
1478384773.62,1.926659,1.508851,-1.849623,3.581896,2.648357,0.165156,0.058027,-0.998082,0.021568,0.494067,0.249898,0.844567,23.361542,-37.526543,-12.316956,,,,,,
1478384773.64,2.666600,1.467658,-2.531903,3.051676,2.386720,0.492588,0.047085,-0.994686,0.091558,0.541813,0.543133,0.499781,23.361542,-37.526543,-12.316956,,,,,,
1478384773.66,2.909599,1.431686,-2.768542,1.740167,-0.675419,0.850489,0.031881,-0.990340,0.134948,0.370768,0.261443,0.150651,23.278137,-38.122704,-8.491028,,,,,,
1478384773.68,3.049631,1.406644,-2.939919,1.320976,-1.640263,1.233874,0.015007,-0.986557,0.162726,0.219460,-0.338836,0.262308,22.592682,-39.244118,-4.894470,,,,,,
1478384773.70,-3.101630,1.384402,-3.097851,1.052161,-0.808383,1.368179,-0.007404,-0.982679,0.185169,0.121601,-0.282824,0.255261,21.386200,-40.368141,-3.928284,,,,,,
1478384773.72,-2.985813,1.362237,3.060229,0.940244,-0.172742,1.284259,-0.032124,-0.978330,0.204543,0.027241,0.129606,0.183976,19.957153,-40.967262,-3.040710,,,,,,
1478384773.74,-2.905014,1.340492,2.969222,0.853117,-0.647754,1.120401,-0.053502,-0.973597,0.221915,-0.044703,0.097804,0.012765,19.957153,-40.967262,-3.040710,,,,,,
1478384773.76,-2.862726,1.319961,2.907353,0.755616,-0.925467,0.860909,-0.068325,-0.968705,0.238624,-0.073887,0.011522,0.039879,18.378815,-41.416374,-2.155151,,,,,,
1478384773.78,-2.847338,1.303687,2.875090,0.617927,-0.689231,0.491646,-0.076551,-0.964538,0.252600,-0.066302,0.028136,0.096414,17.251129,-41.941154,-1.939819,,,,,,
1478384773.80,-2.847201,1.291052,2.864341,0.533677,-0.436502,0.239972,-0.080115,-0.961126,0.264231,-0.083550,0.039312,0.090063,16.948761,-42.315712,-1.491699,,,,,,
1478384773.82,-2.857165,1.280338,2.864689,0.520938,-0.523786,0.083720,-0.080364,-0.958113,0.274885,-0.106358,0.046873,0.011278,16.797760,-42.390266,-1.043091,,,,,,
1478384773.84,-2.879430,1.269638,2.877665,0.603523,-0.454163,-0.098645,-0.076877,-0.954994,0.286491,-0.086392,0.060142,-0.002708,16.797760,-42.390266,-1.043091,,,,,,
1478384773.86,-2.909031,1.257302,2.900041,0.726743,-0.406146,-0.226510,-0.071074,-0.951262,0.300082,-0.077196,0.044569,-0.021930,15.896454,-42.539818,-0.601624,,,,,,
1478384773.88,-2.946540,1.243071,2.930511,0.835305,-0.444813,-0.370664,-0.062388,-0.946777,0.315787,-0.054952,0.041641,-0.043783,16.571167,-42.389214,0.004700,,,,,,
1478384773.90,-2.989170,1.227062,2.966365,0.926689,-0.425498,-0.479431,-0.051169,-0.941503,0.333099,-0.040018,0.027333,-0.048751,16.796509,-42.238991,0.231506,,,,,,
1478384773.92,-3.030405,1.208398,3.002534,1.061636,-0.331378,-0.503511,-0.039337,-0.935049,0.352328,-0.027787,-0.014856,-0.050860,16.869720,-42.087334,1.881836,,,,,,
1478384773.94,-3.067864,1.186456,3.035823,1.199072,-0.334012,-0.499005,-0.027619,-0.927046,0.373929,-0.018737,-0.034243,-0.058164,16.869720,-42.087334,1.881836,,,,,,
1478384773.96,-3.102376,1.161951,3.064960,1.285656,-0.417800,-0.483059,-0.015587,-0.917581,0.397244,-0.011253,-0.021171,-0.055127,17.469391,-41.936653,2.562317,,,,,,
1478384773.98,-3.133663,1.135507,3.088177,1.360820,-0.574791,-0.427802,-0.003344,-0.906748,0.421659,-0.014418,-0.060278,-0.057127,18.444000,-41.710747,3.471375,,,,,,
1478384774.00,3.117530,1.107495,3.107892,1.422155,-0.780941,-0.463520,0.010752,-0.894582,0.446774,-0.033427,-0.130351,-0.095639,18.969940,-41.184776,4.450073,,,,,,
1478384774.02,3.081850,1.077089,3.130951,1.563263,-0.710542,-0.688518,0.028295,-0.880582,0.473048,-0.051198,-0.137942,-0.127391,19.494385,-40.958717,5.504639,,,,,,
1478384774.04,3.044414,1.041536,-3.122945,1.823249,-0.535846,-0.973923,0.048988,-0.863181,0.502513,-0.079002,-0.170541,-0.188700,19.494385,-40.958717,5.504639,,,,,,
1478384774.06,3.005437,0.999453,-3.089322,2.049927,-0.552108,-1.155205,0.073401,-0.841175,0.535758,-0.103827,-0.226376,-0.261939,20.844391,-40.206459,7.765869,,,,,,
1478384774.08,2.968932,0.953239,-3.061754,2.258456,-0.770441,-1.095611,0.099482,-0.815295,0.570436,-0.140330,-0.389066,-0.276963,21.895477,-39.530174,9.049377,,,,,,
1478384774.10,2.934781,0.900386,-3.040838,2.634880,-0.906084,-1.133792,0.127580,-0.783567,0.608068,-0.155366,-0.532916,-0.291525,22.723633,-38.253441,10.778809,,,,,,
1478384774.12,2.900697,0.839650,-3.025419,2.968396,-1.295221,-1.208004,0.159301,-0.744409,0.648443,-0.260375,-0.677145,-0.398977,23.324402,-37.576942,12.282837,,,,,,
,,,,,,,,,,,,,,,,37.354474,-122.033520,49.025146,0.640000,132.890625,1478384774.00
1478384774.14,2.857187,0.769262,-3.007295,3.418066,-1.603439,-1.779675,0.201581,-0.695605,0.689564,-0.266949,-0.903714,-0.376057,23.324402,-37.576942,12.282837,,,,,,
1478384774.16,2.810373,0.687544,-2.980633,3.677072,-1.286599,-2.403380,0.251314,-0.634641,0.730802,-0.240999,-1.070315,-0.302595,26.409607,-34.273842,15.378784,,,,,,
1478384774.18,2.774874,0.598732,-2.953054,3.798705,-0.772834,-2.579113,0.296184,-0.563595,0.771126,-0.166362,-0.998951,-0.207375,28.742828,-31.947319,16.895081,,,,,,
1478384774.20,2.751496,0.516760,-2.933629,3.285761,-0.652415,-1.986700,0.330623,-0.494066,0.804107,-0.106868,-0.902785,-0.202392,31.077026,-29.170128,19.085144,,,,,,
1478384774.22,2.733737,0.455204,-2.929723,2.351649,-0.924725,-1.087326,0.356253,-0.439645,0.824498,-0.063436,-0.633490,-0.200032,31.911285,-26.618629,20.585754,,,,,,
1478384774.24,2.699600,0.447962,-2.925420,-1.285091,-2.141336,0.572945,0.385537,-0.433129,0.814715,-0.095391,-0.805717,-0.830828,31.911285,-26.618629,20.585754,,,,,,
1478384774.26,2.657365,0.502159,-2.931628,-2.724894,-2.143505,1.554451,0.408054,-0.481319,0.775773,-0.230671,-0.713139,-0.824021,33.945618,-24.292870,21.349121,,,,,,
1478384774.28,2.616816,0.570122,-2.922380,-3.328027,-1.573139,1.251539,0.421776,-0.539735,0.728554,-0.320549,-0.232879,-0.996300,34.391266,-26.546745,17.460327,,,,,,
1478384774.30,2.602529,0.632054,-2.915594,-2.201877,0.389206,1.341165,0.414165,-0.590803,0.692401,-0.517849,-0.013963,-0.990161,33.186096,-28.724831,14.379883,,,,,,
1478384774.32,2.602777,0.678753,-2.914738,-2.047625,-0.658180,1.068241,0.399390,-0.627823,0.668077,-0.408133,0.026764,-1.159379,32.208618,-29.926796,12.423706,,,,,,
1478384774.34,2.579891,0.724030,-2.914567,-1.895836,-1.032491,1.308939,0.399013,-0.662409,0.634036,-0.279201,-0.212224,-0.645648,32.208618,-29.926796,12.423706,,,,,,
1478384774.36,2.581276,0.774278,-2.922161,-2.065770,0.333860,1.756865,0.379951,-0.699200,0.605604,-0.099220,-0.326587,-0.215529,32.281006,-31.053444,10.777771,,,,,,
1478384774.38,2.604253,0.839356,-2.936659,-2.949859,0.598325,2.374671,0.341888,-0.744213,0.573812,0.047501,-0.305576,0.111857,30.698151,-33.831520,7.695251,,,,,,
1478384774.40,2.617489,0.940020,-2.948233,-4.892670,-0.092093,3.158956,0.295144,-0.807570,0.510608,0.096061,-0.122865,0.512143,28.441284,-35.858040,6.178772,,,,,,
1478384774.42,2.617969,1.071755,-2.962289,-5.694921,-0.706499,3.875987,0.239302,-0.878042,0.414460,-0.073042,-0.142054,0.480758,26.565399,-37.286736,2.489258,,,,,,
1478384774.44,2.656393,1.208476,-3.010994,-5.281250,0.082218,4.382103,0.165307,-0.935077,0.313535,-0.129068,-0.319424,0.519671,26.565399,-37.286736,2.489258,,,,,,
1478384774.46,2.826237,1.332686,3.114528,-4.513002,1.465986,4.655420,0.073155,-0.971785,0.224236,-0.062978,-0.492799,0.727791,23.414886,-39.167000,-2.786560,,,,,,
1478384774.48,-2.967407,1.426676,2.661190,-4.165209,2.544216,4.495523,-0.024891,-0.989633,0.141448,0.088398,-0.459327,1.037598,19.740356,-40.446159,-6.944458,,,,,,
1478384774.50,-2.037898,1.443065,1.781553,-3.937274,2.979948,4.007781,-0.113739,-0.991853,0.057361,0.179397,-0.297881,1.341809,12.095703,-41.427681,-13.467957,,,,,,
1478384774.52,-1.453406,1.386793,1.251509,-3.261382,2.926860,2.837820,-0.181707,-0.983119,-0.021429,0.259893,-0.112141,1.512350,10.301697,-41.055550,-16.336975,,,,,,
1478384774.54,-1.152105,1.341400,0.991567,-3.142254,1.958029,0.667533,-0.207748,-0.973804,-0.092449,0.477631,0.114612,1.416988,10.301697,-41.055550,-16.336975,,,,,,
1478384774.56,-0.938160,1.321739,0.805727,-1.796729,1.591841,-0.747861,-0.198788,-0.969145,-0.145743,0.521664,0.304442,1.592627,8.808258,-40.382896,-18.678955,,,,,,
1478384774.58,-0.787911,1.330404,0.669237,-0.608311,0.281742,-1.717389,-0.168773,-0.971245,-0.167927,0.587947,0.756401,1.416141,9.041473,-39.260002,-20.779968,,,,,,
1478384774.60,-0.666223,1.347172,0.528899,-0.423625,-1.116748,-1.645056,-0.137055,-0.975100,-0.174343,0.667405,1.030444,1.430874,11.601410,-37.611702,-22.484375,,,,,,
1478384774.62,-0.580842,1.361866,0.429398,0.405533,-0.009558,-1.139478,-0.113814,-0.978253,-0.173398,0.767836,0.996762,1.555829,12.654449,-37.162361,-23.150146,,,,,,
1478384774.64,-0.530415,1.400745,0.399321,2.170431,1.568469,-1.440841,-0.085614,-0.985576,-0.145980,0.696759,0.776210,1.159499,12.654449,-37.162361,-23.150146,,,,,,
1478384774.66,-0.251693,1.395302,0.177704,-5.630299,3.636917,-1.741469,-0.043482,-0.984640,-0.169094,0.347834,-0.198129,-0.890583,13.702515,-37.311531,-22.314209,,,,,,
1478384774.68,0.109913,1.394197,-0.050699,2.084522,6.525820,-1.806643,0.019271,-0.984447,-0.174622,0.471894,-1.729924,0.002732,16.172058,-37.759254,-20.038208,,,,,,
1478384774.70,0.492700,1.438156,-0.441586,3.952860,-2.228737,-2.390534,0.062556,-0.991216,-0.116521,0.396154,-1.017344,0.002431,22.627838,-35.732018,-17.804749,,,,,,
1478384774.72,1.161712,1.469261,-1.150226,3.839266,-0.716663,-1.017923,0.092997,-0.994850,-0.040318,0.371587,-0.061623,0.484395,23.447784,-36.179985,-15.770142,,,,,,
1478384774.74,1.898405,1.473264,-1.855802,3.173355,2.974890,0.475112,0.092198,-0.995248,0.031334,0.675410,0.221413,0.827781,23.447784,-36.179985,-15.770142,,,,,,
1478384774.76,2.472083,1.455757,-2.380938,2.396927,1.617672,1.175186,0.071236,-0.993390,0.090007,0.565238,0.275937,0.246801,24.038940,-37.001534,-12.311768,,,,,,
1478384774.78,2.830815,1.432976,-2.753054,2.060834,-1.586299,1.682905,0.042012,-0.990518,0.130803,0.260356,-0.018821,-0.027989,23.203674,-37.897408,-8.192383,,,,,,
1478384774.80,3.057937,1.398501,-3.026385,2.053167,-2.133049,1.746501,0.014326,-0.985194,0.170845,0.170641,-0.149801,0.096962,23.196045,-39.095909,-6.688904,,,,,,
1478384774.82,-3.071522,1.360755,3.071558,1.812607,-0.891037,1.723857,-0.014598,-0.978022,0.207989,0.110942,-0.060003,0.240650,19.585724,-40.743980,-4.770081,,,,,,
1478384774.84,-2.949778,1.324206,2.943778,1.467025,0.182208,1.631118,-0.046535,-0.969750,0.239622,0.035869,0.058251,0.274813,19.585724,-40.743980,-4.770081,,,,,,
1478384774.86,-2.862074,1.294392,2.850615,1.010878,-0.493910,1.452175,-0.075291,-0.962043,0.262307,-0.067226,0.103812,0.105674,17.628601,-41.792351,-3.136536,,,,,,
1478384774.88,-2.814937,1.271448,2.777884,0.651244,-1.382436,1.238626,-0.094626,-0.955529,0.279304,-0.148447,0.059716,0.059121,16.200317,-42.166313,-2.099670,,,,,,
1478384774.90,-2.797855,1.255870,2.730645,0.430856,-1.334971,0.725531,-0.104387,-0.950819,0.291627,-0.131330,0.043043,0.114623,15.371857,-42.765800,-1.581116,,,,,,
1478384774.91,-2.803844,1.245860,2.714219,0.374294,-0.882266,0.228793,-0.105787,-0.947671,0.301212,-0.155123,0.038583,0.099682,14.243744,-43.440727,-1.515381,,,,,,
1478384774.93,-2.823331,1.238234,2.724619,0.462263,-0.280694,-0.178605,-0.102156,-0.945209,0.310071,-0.144181,0.073688,0.055591,14.243744,-43.440727,-1.515381,,,,,,
1478384774.95,-2.856259,1.229209,2.756228,0.666829,-0.100946,-0.470502,-0.094290,-0.942224,0.321439,-0.135782,0.095178,-0.043195,13.494537,-43.215584,-1.373596,,,,,,
1478384774.97,-2.902254,1.217682,2.803332,0.811404,-0.121420,-0.710702,-0.081980,-0.938300,0.335964,-0.094289,0.061210,-0.060344,14.242950,-43.364983,-0.765686,,,,,,
1478384774.99,-2.954080,1.204031,2.856335,0.884801,-0.120895,-0.778952,-0.066848,-0.933492,0.352312,-0.019089,-0.006266,-0.035372,14.694611,-42.839531,-0.312744,,,,,,
1478384775.01,-3.000706,1.189203,2.904871,0.875097,-0.069313,-0.745706,-0.052293,-0.928073,0.368710,0.030641,0.001696,-0.025631,15.518707,-42.688469,0.745117,,,,,,
1478384775.03,-3.043355,1.172518,2.948979,0.971144,-0.109172,-0.717870,-0.038038,-0.921730,0.385962,0.023619,-0.018867,-0.039450,15.518707,-42.688469,0.745117,,,,,,
1478384775.05,-3.082721,1.152863,2.987831,1.079250,-0.246984,-0.675324,-0.023880,-0.913930,0.405169,0.000061,-0.065791,-0.066332,16.418488,-42.312187,2.027954,,,,,,
1478384775.07,-3.118750,1.130652,3.020621,1.169209,-0.366543,-0.617801,-0.009732,-0.904690,0.425959,0.003338,0.009808,-0.058039,17.693024,-42.161430,2.790222,,,,,,
1478384775.09,3.131182,1.106800,3.046449,1.212711,-0.593547,-0.517918,0.004659,-0.894271,0.447501,-0.005147,-0.093751,-0.094016,18.218353,-41.785515,3.694336,,,,,,
,,,,,,,,,,,,,,,,37.354475,-122.033518,47.495056,0.630000,57.304688,1478384775.00
1478384775.11,3.098981,1.080376,3.066617,1.399695,-0.761327,-0.507370,0.020064,-0.882135,0.470569,-0.029921,-0.170477,-0.179752,18.442108,-41.709465,4.746399,,,,,,
1478384775.13,3.064945,1.046990,3.088282,1.806191,-0.728248,-0.723462,0.038300,-0.865922,0.498711,-0.059067,-0.187331,-0.228920,18.442108,-41.709465,4.746399,,,,,,
1478384775.15,3.027931,1.004654,3.116302,2.160048,-0.621158,-1.069789,0.060834,-0.843976,0.532919,-0.097471,-0.210238,-0.254767,19.793030,-40.957817,6.407593,,,,,,
1478384775.17,2.987772,0.954919,-3.132115,2.434125,-0.538630,-1.392817,0.088508,-0.816267,0.570854,-0.136986,-0.254366,-0.235817,20.693787,-40.130852,8.364136,,,,,,
1478384775.19,2.949055,0.899519,-3.099154,2.632665,-0.698902,-1.471976,0.119017,-0.783028,0.610494,-0.215056,-0.455696,-0.273625,21.670715,-39.229424,9.796204,,,,,,
1478384775.21,2.911470,0.840436,-3.075586,2.764699,-1.225965,-1.238143,0.152172,-0.744934,0.649552,-0.312237,-0.723267,-0.320633,22.347534,-38.102242,11.974609,,,,,,
1478384775.23,2.866536,0.782204,-3.063864,2.749554,-2.124159,-1.207519,0.192664,-0.704845,0.682697,-0.314490,-0.989461,-0.361255,22.347534,-38.102242,11.974609,,,,,,
1478384775.25,2.807883,0.713805,-3.042857,3.197935,-2.187597,-2.101183,0.247588,-0.654715,0.714177,-0.231047,-0.985315,-0.222813,24.376984,-36.675957,13.265564,,,,,,
1478384775.27,2.751508,0.631693,-3.011935,3.560088,-1.547530,-2.855235,0.306886,-0.590512,0.746403,-0.185685,-1.077716,-0.175831,27.838776,-33.298683,15.540100,,,,,,
1478384775.29,2.718048,0.542707,-2.982930,3.461031,-0.510276,-2.732891,0.351940,-0.516456,0.780648,-0.137051,-1.034509,-0.057839,30.322510,-30.897316,16.907715,,,,,,
1478384775.31,2.703389,0.477433,-2.964590,2.120618,-0.234468,-1.648947,0.376865,-0.459501,0.804258,-0.167957,-0.760455,-0.248518,31.683777,-27.745354,18.861938,,,,,,
1478384775.33,2.692464,0.442028,-2.954772,0.856841,-0.449589,-0.950852,0.392450,-0.427773,0.814244,-0.074594,-0.366813,-0.340886,31.683777,-27.745354,18.861938,,,,,,
1478384775.35,2.671442,0.455420,-2.946852,-1.681422,-1.109398,0.615635,0.406848,-0.439839,0.800635,-0.362734,-0.604716,-0.875251,33.417114,-25.569374,19.847656,,,,,,
1478384775.37,2.645067,0.508722,-2.938096,-2.921223,-1.054690,0.847613,0.416049,-0.487061,0.767903,-0.276568,-0.349288,-0.913334,34.394440,-25.420479,18.732056,,,,,,
1478384775.39,2.613879,0.570165,-2.915682,-3.190195,-0.986538,0.651811,0.423902,-0.539771,0.727293,-0.368299,-0.080896,-0.949781,33.489838,-27.222816,16.403320,,,,,,
1478384775.41,2.581975,0.632433,-2.895281,-3.031780,-1.022605,1.066535,0.428189,-0.591109,0.683553,-0.450253,0.045165,-0.893239,34.163818,-28.350502,13.713440,,,,,,
1478384775.43,2.557616,0.693975,-2.884460,-2.667801,-0.750264,1.418360,0.423825,-0.639598,0.641317,-0.403836,0.100901,-0.727361,34.163818,-28.350502,13.713440,,,,,,
1478384775.45,2.547756,0.751378,-2.882257,-2.321928,-0.223716,1.617000,0.408887,-0.682646,0.605645,-0.294736,-0.069795,-0.531808,33.485718,-29.852989,11.236206,,,,,,
1478384775.47,2.556035,0.810358,-2.891397,-2.287659,0.288281,2.123832,0.380918,-0.724534,0.574415,-0.208311,-0.401061,-0.288648,33.257141,-31.430305,8.913696,,,,,,
1478384775.49,2.582940,0.878782,-2.912757,-2.674815,0.670679,2.632779,0.338215,-0.769962,0.541081,-0.059041,-0.407177,0.125744,29.722137,-34.583107,6.112793,,,,,,
1478384775.51,2.617598,0.968857,-2.935639,-4.197743,0.764511,3.101562,0.283315,-0.824239,0.490268,0.043574,-0.102168,0.714734,28.444214,-35.859993,4.228882,,,,,,
1478384775.53,2.644769,1.092298,-2.960768,-5.399206,0.104734,3.896837,0.219465,-0.887687,0.404780,-0.130430,-0.208352,0.690878,28.444214,-35.859993,4.228882,,,,,,
1478384775.55,2.727082,1.226651,-3.039495,-5.175795,0.864359,4.617295,0.135882,-0.941364,0.308820,-0.199481,-0.364041,0.702029,25.739868,-37.888161,1.057861,,,,,,
1478384775.57,2.978038,1.344000,3.018047,-4.367174,2.194870,4.707836,0.036613,-0.974392,0.221856,-0.131507,-0.392216,0.810142,22.213165,-39.692467,-3.247009,,,,,,
1478384775.59,-2.731303,1.414231,2.490692,-3.781190,2.995533,4.374505,-0.062195,-0.987769,0.142985,-0.078109,-0.355722,0.945729,14.789948,-41.499062,-9.840759,,,,,,
1478384775.61,-2.006426,1.409506,1.818369,-3.290182,2.955382,3.540810,-0.145594,-0.987021,0.067767,0.002832,-0.224084,1.136685,11.793365,-41.727013,-12.795044,,,,,,
1478384775.63,-1.582246,1.369657,1.441520,-2.640990,2.465663,2.096086,-0.199773,-0.979840,0.002287,0.127858,-0.041111,1.326143,11.793365,-41.727013,-12.795044,,,,,,
1478384775.65,-1.317465,1.339815,1.210620,-2.704568,1.620739,0.528412,-0.221626,-0.973442,-0.057378,0.308632,0.045372,1.337224,9.771667,-41.729210,-14.990295,,,,,,
1478384775.67,-1.095865,1.331679,1.007290,-1.920024,1.106856,-0.926828,-0.210632,-0.971547,-0.108304,0.515808,0.253682,1.553922,8.652954,-41.056389,-17.178528,,,,,,
1478384775.69,-0.929852,1.343828,0.855288,-0.823466,0.628073,-1.685885,-0.180364,-0.974353,-0.134554,0.613638,0.688968,1.456072,10.914154,-39.484154,-19.935547,,,,,,
1478384775.71,-0.787852,1.359599,0.703427,-0.798281,-0.813593,-1.515654,-0.148594,-0.977781,-0.147867,0.730168,0.995756,1.355951,12.419098,-38.659966,-20.748047,,,,,,
1478384775.73,-0.689793,1.363426,0.587374,-0.386048,-0.449853,-0.763904,-0.131022,-0.978576,-0.158817,0.942286,1.015044,1.510837,12.419098,-38.659966,-20.748047,,,,,,
1478384775.75,-0.615800,1.380678,0.529905,0.483016,1.942706,-1.382975,-0.109154,-0.981982,-0.154263,0.964486,0.865908,1.148052,12.872131,-38.210640,-21.419861,,,,,,
1478384775.77,-0.127961,1.350442,0.170825,-3.093569,10.549702,-3.593181,-0.027893,-0.975820,-0.216788,0.637390,-0.079111,-0.558893,12.796326,-38.285332,-21.120361,,,,,,
1478384775.79,0.314371,1.348517,-0.103509,0.401128,2.715216,-2.434456,0.068168,-0.975398,-0.209649,0.063652,-1.845937,-2.138144,17.078705,-36.785744,-21.532104,,,,,,
1478384775.81,0.595590,1.377766,-0.436150,3.750675,-3.455734,-2.125124,0.107618,-0.981427,-0.158804,0.430086,-1.476260,0.223043,25.931091,-34.530571,-16.350281,,,,,,
1478384775.83,0.891984,1.419605,-0.776761,3.197385,-0.373399,-0.034184,0.117227,-0.988592,-0.094567,0.528800,-0.285272,0.595650,25.931091,-34.530571,-16.350281,,,,,,
1478384775.85,1.284007,1.459549,-1.135570,3.018248,2.441027,0.952989,0.106484,-0.993818,-0.031404,0.615608,0.410215,0.557878,25.927734,-34.753990,-14.774658,,,,,,
1478384775.87,1.908564,1.483279,-1.734190,2.703486,0.461225,1.292096,0.082467,-0.996173,0.028965,0.349585,0.440204,-0.097934,25.243042,-36.026375,-12.152649,,,,,,
1478384775.89,2.490060,1.472623,-2.341778,2.595018,-1.928262,1.216955,0.059437,-0.995185,0.077938,0.159954,-0.055306,-0.133846,25.683411,-37.073067,-8.845154,,,,,,
1478384775.91,2.868468,1.434077,-2.759356,2.821310,-1.335368,1.379243,0.036764,-0.990668,0.131242,0.095057,-0.295663,0.190352,22.970245,-39.095390,-6.166199,,,,,,
1478384775.93,3.084371,1.384925,-2.981235,2.620788,0.358955,1.332271,0.010569,-0.982776,0.184500,0.142233,0.041751,0.342844,22.970245,-39.095390,-6.166199,,,,,,
1478384775.95,-3.062558,1.340494,-3.112065,1.839370,0.247144,1.417146,-0.018023,-0.973598,0.227559,0.105700,0.121715,0.274257,21.161194,-40.292915,-3.705688,,,,,,
1478384775.97,-2.965288,1.313772,3.060907,0.823969,-0.950431,1.531748,-0.044585,-0.967151,0.250264,-0.007462,0.063678,0.217571,20.405792,-40.891121,-1.911438,,,,,,
1478384775.99,-2.897292,1.297570,2.962266,0.377938,-1.479719,1.313695,-0.065268,-0.962905,0.261827,-0.053857,-0.002396,0.155806,19.426636,-41.490166,-0.944519,,,,,,
1478384776.01,-2.859175,1.286607,2.894570,0.281582,-1.207798,0.881565,-0.078136,-0.959889,0.269272,-0.081853,0.031102,0.104065,17.998291,-42.164955,-0.731689,,,,,,
1478384776.03,-2.843751,1.276283,2.859342,0.402008,-0.755388,0.483429,-0.085183,-0.956944,0.277494,-0.098914,0.077732,0.050677,17.998291,-42.164955,-0.731689,,,,,,
1478384776.05,-2.846483,1.265164,2.850270,0.552000,-0.498986,0.193784,-0.087514,-0.953657,0.287889,-0.119776,0.069608,-0.000459,15.969940,-42.990196,-0.974548,,,,,,
1478384776.07,-2.861863,1.252547,2.857499,0.677016,-0.376990,0.005226,-0.086392,-0.949785,0.300742,-0.119114,0.049409,-0.001212,16.045044,-42.839821,-0.599243,,,,,,
1478384776.09,-2.884454,1.239394,2.875231,0.719005,-0.263562,-0.159994,-0.082746,-0.945587,0.314671,-0.088091,0.051956,0.019435,15.896790,-42.389595,-0.377014,,,,,,
,,,,,,,,,,,,,,,,37.354475,-122.033518,48.346924,0.640000,156.445312,1478384776.00
1478384776.11,-2.915276,1.227295,2.901013,0.671174,-0.381139,-0.339895,-0.075571,-0.941581,0.328197,-0.064718,0.044334,-0.011761,16.343689,-42.914131,0.078979,,,,,,
1478384776.13,-2.954437,1.215919,2.934161,0.684827,-0.390308,-0.486271,-0.064653,-0.937689,0.341408,-0.038481,0.012732,-0.001350,16.343689,-42.914131,0.078979,,,,,,
1478384776.15,-2.996028,1.203548,2.970127,0.739169,-0.417370,-0.535398,-0.052080,-0.933319,0.355251,-0.027845,-0.010452,-0.038967,16.794037,-42.463005,1.207153,,,,,,
1478384776.17,-3.037749,1.189095,3.004367,0.839684,-0.534379,-0.535545,-0.038612,-0.928032,0.370493,-0.011528,-0.010337,-0.073648,17.470062,-42.087547,1.662781,,,,,,
1478384776.19,-3.077459,1.171169,3.035618,1.015498,-0.526793,-0.491413,-0.024936,-0.921206,0.388275,-0.003400,-0.015088,-0.073669,17.918274,-42.236809,2.417664,,,,,,
1478384776.21,-3.110536,1.148810,3.060310,1.213815,-0.549801,-0.424889,-0.012718,-0.912277,0.409376,-0.001213,-0.076737,-0.086775,17.994019,-41.861198,3.017334,,,,,,
1478384776.23,3.139572,1.123093,3.081706,1.323193,-0.779018,-0.441356,0.000875,-0.901444,0.432895,-0.015111,-0.119979,-0.107852,17.994019,-41.861198,3.017334,,,,,,
1478384776.25,3.103484,1.095332,3.102883,1.426668,-0.872724,-0.546139,0.017440,-0.889080,0.457419,-0.036864,-0.128498,-0.124045,18.143127,-41.710152,4.068359,,,,,,
1478384776.27,3.065491,1.063670,3.127412,1.644383,-0.768828,-0.760227,0.036924,-0.874144,0.484261,-0.063765,-0.151933,-0.171853,19.343719,-41.033485,5.728271,,,,,,
1478384776.29,3.026032,1.025101,-3.125252,1.976779,-0.594091,-1.064737,0.059844,-0.854767,0.515551,-0.088866,-0.133347,-0.225634,20.018433,-40.807655,6.559387,,,,,,
1478384776.31,2.986699,0.978191,-3.092068,2.336504,-0.578996,-1.253180,0.086166,-0.829488,0.551838,-0.134567,-0.249125,-0.270221,20.769379,-40.056007,8.214722,,,,,,
1478384776.33,2.951167,0.925426,-3.066946,2.542360,-0.905926,-1.082774,0.113849,-0.798877,0.590621,-0.217105,-0.538693,-0.333923,20.769379,-40.056007,8.214722,,,,,,
1478384776.35,2.917131,0.871308,-3.056043,2.604425,-1.521416,-0.815117,0.143304,-0.765172,0.627675,-0.261895,-0.782619,-0.350728,22.572266,-38.929573,9.654297,,,,,,
1478384776.37,2.875072,0.812551,-3.046789,2.919126,-1.834153,-1.187240,0.181111,-0.726044,0.663370,-0.237065,-0.725754,-0.285318,24.601776,-36.976692,12.518677,,,,,,
1478384776.39,2.827634,0.741503,-3.029805,3.405417,-1.674327,-1.894319,0.227745,-0.675397,0.701406,-0.228157,-0.728350,-0.193883,26.704559,-35.850182,14.036377,,,,,,
1478384776.41,2.784921,0.659150,-3.002136,3.573570,-0.959329,-2.568371,0.276014,-0.612445,0.740762,-0.127530,-0.731473,-0.054818,27.310608,-33.973610,15.611877,,,,,,
1478384776.43,2.757949,0.579106,-2.975250,3.092758,-0.368326,-2.254534,0.313273,-0.547276,0.776112,-0.118937,-0.772899,-0.034794,27.310608,-33.973610,15.611877,,,,,,
1478384776.45,2.747777,0.518552,-2.961958,2.318818,-0.107698,-1.367304,0.333270,-0.495623,0.802053,-0.086887,-0.537931,0.003306,29.720306,-31.271950,17.277832,,,,,,
1478384776.47,2.731917,0.491016,-2.950127,-0.148853,-0.928946,-0.651603,0.351253,-0.471522,0.808881,-0.072719,-0.476354,-0.572934,31.754303,-28.645042,19.165344,,,,,,
1478384776.49,2.699046,0.532958,-2.943293,-2.718773,-1.578797,1.132815,0.368849,-0.508083,0.778333,-0.400190,-0.749134,-0.867810,32.360565,-26.994301,19.916382,,,,,,
1478384776.51,2.663561,0.602405,-2.927848,-3.702847,-1.161943,0.782875,0.379055,-0.566626,0.731610,-0.336499,-0.202311,-1.034008,32.810120,-28.122368,16.849243,,,,,,
1478384776.53,2.649655,0.667832,-2.907340,-2.351155,1.225031,0.884746,0.370861,-0.619286,0.692060,-0.539638,-0.012123,-1.075224,32.810120,-28.122368,16.849243,,,,,,
1478384776.55,2.672340,0.707045,-2.903538,-1.906916,0.097400,0.592874,0.343816,-0.649590,0.678103,-0.368596,-0.085625,-1.486041,32.730347,-30.075066,14.154297,,,,,,
1478384776.57,2.629866,0.742872,-2.893357,-1.728770,-2.287262,0.564187,0.360666,-0.676406,0.642180,-0.275980,-0.404893,-0.831755,31.677216,-31.126122,13.096924,,,,,,
1478384776.59,2.598574,0.780578,-2.888076,-1.704750,-0.643443,0.953383,0.367135,-0.703690,0.608303,-0.111901,-0.455841,-0.276485,30.774261,-33.004799,9.418579,,,,,,
1478384776.61,2.606051,0.825907,-2.894695,-1.954094,0.351819,1.626656,0.345932,-0.735163,0.582980,-0.011231,-0.410680,-0.038806,30.923950,-33.606377,7.846863,,,,,,
1478384776.63,2.625233,0.892228,-2.912255,-3.152036,0.298377,2.528310,0.309896,-0.778472,0.545844,0.081873,-0.342378,0.419793,30.923950,-33.606377,7.846863,,,,,,
1478384776.65,2.650497,0.996793,-2.936645,-4.726974,0.233437,3.478425,0.256074,-0.839734,0.478825,-0.052277,-0.320575,0.624630,29.718964,-35.258018,6.189758,,,,,,
1478384776.67,2.701022,1.119269,-2.981390,-4.987390,0.875818,3.825908,0.186080,-0.899782,0.394674,-0.179335,-0.298995,0.529933,27.314972,-36.985527,3.695923,,,,,,
1478384776.69,2.818242,1.235198,-3.076933,-4.461778,1.754577,3.884797,0.104644,-0.944213,0.312267,-0.238952,-0.255066,0.501957,21.535858,-40.292686,-3.476990,,,,,,
1478384776.71,3.061098,1.331650,2.999222,-3.933597,2.425547,3.789267,0.019046,-0.971541,0.236106,-0.202304,-0.298815,0.602807,18.310181,-41.345421,-6.206055,,,,,,
1478384776.73,-2.785559,1.397450,2.605200,-3.665041,2.498833,3.319830,-0.060119,-0.985013,0.161663,-0.111695,-0.272189,0.781346,18.310181,-41.345421,-6.206055,,,,,,
1478384776.75,-2.205499,1.421531,2.063807,-3.400026,2.107090,2.335196,-0.119750,-0.988881,0.088177,0.030409,-0.095424,1.015919,15.685669,-42.173225,-9.004761,,,,,,
1478384776.77,-1.709382,1.415478,1.599049,-2.975359,1.636019,1.092064,-0.153211,-0.987962,0.021370,0.198698,0.050340,1.228035,12.464386,-42.100502,-11.287231,,,,,,
1478384776.79,-1.341602,1.406637,1.250455,-2.627487,0.882276,-0.117789,-0.159149,-0.986556,-0.037128,0.413208,0.160613,1.449512,11.345154,-41.803444,-14.224365,,,,,,
1478384776.81,-1.057817,1.402082,0.971975,-1.969423,0.310449,-0.841575,-0.146302,-0.985801,-0.082409,0.619187,0.385887,1.780834,12.784210,-40.007408,-18.190369,,,,,,
1478384776.83,-0.841188,1.397258,0.751541,-1.525321,-0.307844,-0.838229,-0.128714,-0.984980,-0.115097,0.667837,0.739115,1.488724,12.784210,-40.007408,-18.190369,,,,,,
1478384776.85,-0.725610,1.387244,0.618749,-0.905322,-0.998051,-0.210817,-0.121121,-0.983201,-0.136545,0.745023,0.871934,1.341287,13.239594,-39.333977,-19.762817,,,,,,
1478384776.87,-0.752584,1.383995,0.625766,0.525343,-0.780166,0.251693,-0.126943,-0.982603,-0.135560,0.967000,0.919234,1.518220,12.794434,-38.584969,-20.744507,,,,,,
1478384776.89,-0.842973,1.407839,0.725830,1.725897,1.361178,-0.775629,-0.121130,-0.986752,-0.107928,0.934546,0.854153,1.138445,13.247345,-38.135551,-21.341370,,,,,,
1478384776.91,-0.419266,1.389141,0.383005,-5.244833,4.768944,-2.308362,-0.073544,-0.983546,-0.165011,0.325268,-0.344625,-0.893629,15.647675,-37.759636,-20.418457,,,,,,
1478384776.93,-0.010266,1.395806,0.117073,1.327291,6.008154,-1.477245,-0.001787,-0.984728,-0.174089,-0.182630,-1.805463,-1.607375,15.647675,-37.759636,-20.418457,,,,,,
1478384776.95,0.136276,1.450919,-0.040074,4.161353,-2.481839,-1.119585,0.016247,-0.992823,-0.118482,0.306476,-1.390645,0.295224,20.150635,-36.482796,-18.577209,,,,,,
1478384776.97,0.779692,1.520139,-0.720876,3.716202,-0.521297,-1.047656,0.035600,-0.998717,-0.036009,0.429427,-0.113908,0.505506,21.270569,-36.855537,-16.314941,,,,,,
1478384776.99,2.104013,1.511654,-2.008088,3.122629,2.724139,-0.564313,0.050902,-0.998252,0.030045,0.594056,0.384238,0.757873,21.938599,-37.678352,-14.130798,,,,,,
1478384777.01,2.595706,1.475838,-2.471698,1.902475,0.376533,0.443176,0.049226,-0.995495,0.081036,0.468261,0.413982,0.168568,23.206726,-38.125114,-10.891785,,,,,,
1478384777.03,2.858862,1.461933,-2.754771,0.946497,-1.390509,1.283911,0.030311,-0.994080,0.104335,0.348672,-0.069839,0.250371,23.206726,-38.125114,-10.891785,,,,,,
1478384777.05,3.117530,1.449725,-3.045189,0.863071,-1.430965,1.674697,0.002906,-0.992680,0.120741,0.140618,-0.353161,0.122347,22.069794,-39.471214,-6.999146,,,,,,
1478384777.07,-2.945689,1.427919,2.994411,0.996451,-0.852330,1.655153,-0.027717,-0.989810,0.139668,0.047370,-0.013150,0.062343,20.942810,-39.996452,-7.233765,,,,,,
1478384777.09,-2.803919,1.398101,2.838634,1.168922,-0.551177,1.531276,-0.056929,-0.985125,0.162134,-0.014208,0.128405,0.034094,19.512329,-41.045937,-6.719910,,,,,,
1478384777.11,-2.721351,1.364850,2.739836,1.213445,-0.852979,1.443981,-0.083430,-0.978868,0.186701,-0.062551,0.061525,-0.005137,18.083130,-41.720192,-5.982178,,,,,,
,,,,,,,,,,,,,,,,37.354470,-122.033514,47.924011,0.930000,127.265625,1478384777.00
1478384777.13,-2.680465,1.331995,2.679172,1.167382,-0.890239,1.198061,-0.105250,-0.971622,0.211832,-0.053838,0.035587,0.083639,18.083130,-41.720192,-5.982178,,,,,,
1478384777.15,-2.665535,1.305267,2.648065,0.912539,-0.678327,0.794337,-0.120261,-0.964954,0.233241,-0.047723,0.047718,0.128408,14.773651,-43.218346,-4.135803,,,,,,
1478384777.17,-2.666032,1.287171,2.635930,0.625151,-0.592991,0.435082,-0.128120,-0.960047,0.248786,-0.080223,0.075312,0.106592,14.548889,-43.068062,-3.838501,,,,,,
1478384777.19,-2.675368,1.275533,2.633247,0.452310,-0.602355,0.241371,-0.130806,-0.956726,0.259934,-0.113381,0.060821,0.044661,14.096771,-43.367531,-3.317139,,,,,,
1478384777.21,-2.690355,1.265220,2.635428,0.512112,-0.675399,0.182511,-0.131192,-0.953674,0.270731,-0.142643,0.042434,-0.030786,13.645447,-43.517082,-2.871216,,,,,,
1478384777.23,-2.716867,1.253571,2.650311,0.702016,-0.553914,-0.068972,-0.128538,-0.950105,0.284217,-0.104677,0.068849,-0.038031,13.645447,-43.517082,-2.871216,,,,,,
1478384777.25,-2.758395,1.240148,2.684957,0.911908,-0.366484,-0.344813,-0.121385,-0.945832,0.301110,-0.097304,0.058869,-0.049218,12.669769,-43.516655,-2.430908,,,,,,
1478384777.27,-2.812002,1.224569,2.736136,1.084551,-0.194237,-0.629307,-0.109833,-0.940660,0.321086,-0.059417,0.025270,-0.013896,13.644104,-43.290520,-1.296875,,,,,,
1478384777.29,-2.868628,1.207651,2.795218,1.102940,-0.017617,-0.767684,-0.095762,-0.934784,0.342064,-0.033556,-0.009292,0.022895,14.093750,-43.139839,-0.617859,,,,,,
1478384777.31,-2.923036,1.191592,2.850903,0.978934,-0.218870,-0.782343,-0.080263,-0.928959,0.361376,-0.019178,-0.006023,-0.012087,13.942017,-43.063484,0.730469,,,,,,
1478384777.33,-2.975709,1.176302,2.900608,0.917675,-0.373644,-0.766849,-0.063464,-0.923191,0.379066,0.007617,-0.010235,-0.035163,13.942017,-43.063484,0.730469,,,,,,
1478384777.35,-3.024325,1.159112,2.944233,1.024624,-0.471682,-0.699622,-0.046818,-0.916448,0.397405,0.008900,-0.065211,-0.094655,14.691803,-42.837654,1.562256,,,,,,
1478384777.37,-3.070436,1.137169,2.982196,1.274491,-0.633494,-0.655827,-0.029872,-0.907448,0.419102,0.003520,-0.098702,-0.153217,16.716003,-42.611443,2.781799,,,,,,
1478384777.39,-3.113484,1.108154,3.014264,1.611528,-0.741685,-0.617075,-0.012544,-0.894876,0.446138,-0.009338,-0.119619,-0.182038,17.242249,-42.085686,3.535461,,,,,,
1478384777.41,3.128676,1.071636,3.044415,1.977574,-0.674578,-0.741259,0.006183,-0.877985,0.478648,-0.015247,-0.132711,-0.161235,17.316010,-41.934410,4.810791,,,,,,
1478384777.43,3.089728,1.027611,3.076128,2.276113,-0.523297,-0.944392,0.026795,-0.856067,0.516171,-0.034775,-0.133298,-0.140255,17.316010,-41.934410,4.810791,,,,,,
1478384777.45,3.051367,0.978591,3.110106,2.430105,-0.479414,-1.159825,0.050295,-0.829712,0.555922,-0.058565,-0.224930,-0.128599,18.815735,-41.482887,6.324402,,,,,,
1478384777.47,3.013599,0.926950,-3.140693,2.463657,-0.672127,-1.223334,0.076622,-0.799793,0.595366,-0.106636,-0.464184,-0.158888,20.393005,-39.829430,9.785217,,,,,,
1478384777.49,2.971327,0.877037,-3.113886,2.240106,-1.351003,-1.170032,0.108348,-0.768848,0.630185,-0.175486,-0.671551,-0.312314,21.068481,-39.077477,11.739746,,,,,,
1478384777.51,2.917678,0.827385,-3.087139,2.405936,-1.761792,-1.574737,0.150283,-0.736164,0.659907,-0.122436,-0.867413,-0.274562,22.347076,-37.876259,12.948853,,,,,,
1478384777.53,2.862431,0.762642,-3.053655,3.123122,-1.430268,-2.095036,0.199226,-0.690834,0.695023,-0.206581,-0.845604,-0.288285,22.347076,-37.876259,12.948853,,,,,,
1478384777.55,2.818242,0.681868,-3.023135,3.668934,-1.024950,-2.369693,0.246696,-0.630244,0.736161,-0.169365,-0.830815,-0.226273,24.526764,-36.525352,13.866638,,,,,,
1478384777.57,2.793347,0.601551,-3.002960,3.353404,-0.384923,-1.844954,0.281346,-0.565922,0.774969,-0.190068,-0.760082,-0.149419,26.559174,-34.348763,15.455505,,,,,,
1478384777.59,2.787667,0.534932,-2.994191,2.785988,0.056266,-1.360733,0.298166,-0.509783,0.806981,-0.100931,-0.368422,-0.092992,29.499512,-29.544548,19.670410,,,,,,
1478384777.61,2.772113,0.492058,-2.978045,0.571297,-0.911879,-1.318101,0.318287,-0.472440,0.821884,-0.022953,-0.402575,-0.616882,31.231232,-27.517952,21.256653,,,,,,
1478384777.63,2.723202,0.536240,-2.959947,-3.209141,-2.282743,0.783822,0.349262,-0.510908,0.785487,-0.301075,-0.908739,-0.866114,31.231232,-27.517952,21.256653,,,,,,
1478384777.65,2.655941,0.636086,-2.929070,-4.044602,-2.013573,0.530962,0.375494,-0.594051,0.711412,-0.265066,-0.250721,-1.072542,31.759491,-27.219231,19.986084,,,,,,
1478384777.67,2.650881,0.697993,-2.912601,-1.757671,2.277128,1.145060,0.361043,-0.642681,0.675728,-0.479116,-0.056324,-1.666008,32.282074,-28.872597,16.621277,,,,,,
1478384777.69,2.658980,0.738890,-2.912292,-1.687979,-1.308065,0.790218,0.343067,-0.673468,0.654787,-0.326389,-0.278253,-1.170260,30.623627,-31.951210,13.013855,,,,,,
1478384777.71,2.611439,0.777046,-2.910347,-1.746685,-2.184703,0.941558,0.360534,-0.701176,0.615115,-0.219939,-0.350887,-0.602023,31.000427,-32.403755,10.468994,,,,,,
1478384777.73,2.602210,0.817642,-2.914552,-1.671194,0.348456,1.351452,0.351278,-0.729535,0.586841,-0.124334,-0.505908,-0.139637,31.000427,-32.403755,10.468994,,,,,,
1478384777.75,2.635570,0.866981,-2.929818,-2.117419,1.202194,1.851978,0.313666,-0.762379,0.566032,-0.010291,-0.454509,0.124078,30.623627,-33.530922,8.293640,,,,,,
1478384777.77,2.664596,0.946960,-2.943177,-4.211141,0.680714,2.532828,0.268192,-0.811643,0.518949,-0.019443,-0.345919,0.757632,29.494476,-34.731758,7.460938,,,,,,
1478384777.79,2.680026,1.068296,-2.954545,-5.712849,0.253419,3.230994,0.214489,-0.876381,0.431220,-0.223232,-0.353996,0.617105,27.314392,-36.157677,6.543396,,,,,,
1478384777.81,2.716672,1.200792,-2.979172,-5.618390,1.060538,3.323126,0.149077,-0.932326,0.329461,-0.275588,-0.251192,0.499579,22.661926,-39.541191,-1.967957,,,,,,
1478384777.83,2.825892,1.319592,-3.059863,-4.752854,1.895014,3.325835,0.077177,-0.968614,0.236286,-0.291304,-0.264525,0.487713,22.661926,-39.541191,-1.967957,,,,,,
1478384777.85,3.115881,1.415872,2.972338,-4.038374,2.283002,3.244808,0.003967,-0.988023,0.154254,-0.205932,-0.341292,0.617703,20.113647,-40.445030,-5.815735,,,,,,
1478384777.87,-2.499436,1.472530,2.342654,-3.611121,1.979805,2.653880,-0.058759,-0.995176,0.078566,-0.075411,-0.251071,0.882891,16.964355,-41.272987,-8.769714,,,,,,
1478384777.89,-1.646415,1.468478,1.520219,-3.345925,1.568707,1.746120,-0.101848,-0.994770,0.007716,0.079830,-0.156765,1.221791,14.793335,-41.275627,-11.416443,,,,,,
1478384777.91,-1.107927,1.430297,1.000963,-3.477808,0.768242,0.883608,-0.125302,-0.990146,-0.062529,0.281765,-0.063931,1.407027,12.930481,-40.305824,-16.612976,,,,,,
1478384777.93,-0.799028,1.386290,0.688964,-3.071016,-0.247823,0.027852,-0.131482,-0.983027,-0.127946,0.525892,0.179362,1.579942,12.930481,-40.305824,-16.612976,,,,,,
1478384777.95,-0.629273,1.351222,0.511026,-2.168405,-0.176952,-0.305868,-0.128196,-0.975990,-0.176093,0.606422,0.528587,1.471564,12.940033,-39.183830,-19.616211,,,,,,
1478384777.97,-0.535863,1.327874,0.407321,-1.298919,-0.576080,-0.311863,-0.122816,-0.970639,-0.206823,0.673307,0.788297,1.340078,12.422577,-38.135719,-21.499573,,,,,,
1478384777.99,-0.516721,1.316126,0.371988,-0.336989,-0.724922,0.059075,-0.124459,-0.967746,-0.219036,0.821893,0.912464,1.473781,13.103729,-37.312370,-23.145203,,,,,,
1478384778.01,-0.543762,1.324955,0.398476,1.135379,0.481773,-0.060050,-0.125911,-0.969933,-0.208270,0.934306,0.945488,1.553302,12.656586,-37.013344,-24.125610,,,,,,
1478384778.03,-0.550760,1.366554,0.436944,2.365095,2.113811,-1.210522,-0.106146,-0.979215,-0.172833,0.713522,0.773786,0.968304,12.656586,-37.013344,-24.125610,,,,,,
1478384778.05,-0.365053,1.388448,0.308359,-2.608351,3.169051,-1.544278,-0.064738,-0.983421,-0.169390,0.074519,-0.635094,-0.971128,13.098236,-37.985710,-21.493286,,,,,,
1478384778.07,-0.194922,1.327122,0.154774,-1.029415,1.409041,-0.281360,-0.046732,-0.970458,-0.236701,-0.155493,-1.388734,0.330360,15.797668,-37.759636,-20.416931,,,,,,
1478384778.09,-0.112420,1.385737,0.124054,3.338700,0.182178,-1.171405,-0.020642,-0.982925,-0.182843,0.197095,-1.381516,-0.545856,17.306610,-36.562019,-22.805481,,,,,,
,,,,,,,,,,,,,,,,37.354460,-122.033503,47.360046,1.790000,136.406250,1478384778.00
1478384778.11,0.059057,1.468732,-0.085018,4.030269,-1.771182,-1.701239,0.006014,-0.994796,-0.101710,0.245466,-0.022828,0.296336,19.099854,-37.008858,-19.636169,,,,,,
1478384778.13,0.895894,1.520484,-0.905720,3.264158,2.624408,-1.536628,0.039266,-0.998735,-0.031423,0.512156,0.271485,0.925848,19.099854,-37.008858,-19.636169,,,,,,
1478384778.15,2.031516,1.503174,-1.977048,2.658329,2.940992,-0.662841,0.060525,-0.997715,0.030041,0.429908,0.263263,0.442935,20.435120,-38.202614,-13.394287,,,,,,
1478384778.17,2.514713,1.480178,-2.431072,1.678304,0.700756,0.860340,0.053086,-0.995897,0.073288,0.320205,-0.054762,0.381562,22.603882,-38.424141,-9.921875,,,,,,
1478384778.19,2.841750,1.469031,-2.766478,1.033106,-0.852509,1.276972,0.030006,-0.994826,0.097057,0.213783,-0.175034,0.175755,22.749420,-38.797264,-8.044312,,,,,,
1478384778.21,3.090437,1.453898,-3.045401,1.028676,-1.732643,1.386727,0.005964,-0.993175,0.116480,0.030047,-0.047474,-0.011835,21.543579,-39.846519,-7.303223,,,,,,
1478384778.23,-3.043193,1.429973,3.047344,1.248471,-1.952365,1.148247,-0.013789,-0.990101,0.139679,0.005274,0.048908,0.050583,21.543579,-39.846519,-7.303223,,,,,,
1478384778.25,-2.959780,1.400322,2.936610,1.385164,-0.806272,1.018085,-0.030675,-0.985504,0.166854,-0.011882,0.043442,0.205079,18.386871,-41.045647,-6.431152,,,,,,
1478384778.27,-2.895989,1.369617,2.870568,1.334438,0.299148,0.846885,-0.048586,-0.979832,0.193829,-0.029066,0.066227,0.204136,17.707489,-41.794975,-5.760742,,,,,,
1478384778.29,-2.853545,1.344169,2.836782,0.989560,0.416289,0.577365,-0.063831,-0.974430,0.215435,-0.052014,0.061161,0.191319,16.954681,-41.943565,-4.342834,,,,,,
1478384778.31,-2.837531,1.328340,2.817884,0.509589,-0.485519,0.361433,-0.071882,-0.970751,0.229075,-0.084124,0.047167,0.126378,16.950409,-42.617729,-3.515869,,,,,,
1478384778.33,-2.846027,1.321999,2.810966,0.173502,-0.789042,0.070471,-0.071725,-0.969209,0.235561,-0.053184,0.040239,0.128911,16.950409,-42.617729,-3.515869,,,,,,
1478384778.35,-2.863697,1.319164,2.816811,0.188296,-0.493004,-0.075063,-0.068305,-0.968507,0.239433,-0.062677,0.046419,0.051262,15.824524,-42.617149,-2.927124,,,,,,
1478384778.37,-2.886466,1.313381,2.832612,0.435771,-0.295383,-0.134989,-0.064248,-0.967051,0.246341,-0.060401,0.059458,0.003277,16.125549,-42.392143,-2.924805,,,,,,
1478384778.39,-2.913985,1.302820,2.858235,0.667080,-0.062089,-0.240787,-0.059747,-0.964309,0.257951,-0.026664,0.042892,0.008910,16.274414,-42.617073,-2.847595,,,,,,
1478384778.41,-2.947135,1.290161,2.891499,0.723436,-0.078032,-0.342233,-0.053519,-0.960880,0.271746,0.007575,0.016681,0.029615,15.599030,-42.466316,-2.104797,,,,,,
1478384778.43,-2.983169,1.278421,2.926210,0.619231,-0.165577,-0.402487,-0.045471,-0.957562,0.284618,0.035080,-0.002796,0.059315,15.599030,-42.466316,-2.104797,,,,,,
1478384778.45,-3.018509,1.268945,2.958239,0.490842,-0.313081,-0.382816,-0.036499,-0.954788,0.295039,0.028229,-0.017334,0.001668,16.348663,-42.390862,-1.647522,,,,,,
1478384778.47,-3.053096,1.259871,2.983919,0.518597,-0.621489,-0.303484,-0.027039,-0.952051,0.304743,0.018555,0.017267,-0.062372,17.248108,-42.240028,-0.814026,,,,,,
1478384778.49,-3.085229,1.247540,3.001603,0.735680,-0.825305,-0.192551,-0.017895,-0.948206,0.317152,0.003735,0.023844,-0.088010,17.923523,-42.089882,-0.657715,,,,,,
1478384778.51,-3.113845,1.228506,3.014316,1.099001,-0.829987,-0.162016,-0.009312,-0.941988,0.335517,-0.036556,-0.012922,-0.104941,17.322052,-42.164131,0.086487,,,,,,
1478384778.53,3.139754,1.202506,3.027098,1.417707,-0.933455,-0.257904,0.000662,-0.932944,0.360020,-0.082647,-0.030953,-0.154332,17.322052,-42.164131,0.086487,,,,,,
