time (ms),time (ds),accelerometerTimestamp_sinceReboot,locationTimestamp_since1970,locationLatitude,locationLongitude,locationAltitude,locationSpeed,locationCourse,locationVerticalAccuracy,locationHorizontalAccuracy,locationHeadingTimestamp_since1970,locationHeadingX,locationHeadingY,locationHeadingZ,locationTrueHeading,locationMagneticHeading,locationHeadingAccuracy,accelerometerTimestamp_sinceReboot,accelerometerAccelerationX,accelerometerAccelerationY,accelerometerAccelerationZ,gyroTimestamp_sinceReboot,gyroRotationX,gyroRotationY,gyroRotationZ,motionTimestamp_sinceReboot,motionYaw,motionRoll,motionPitch,motionRotationRateX,motionRotationRateY,motionRotationRateZ,motionUserAccelerationX,motionUserAccelerationY,motionUserAccelerationZ,motionQuaternionX,motionQuaternionY,motionQuaternionZ,motionQuaternionW,motionGravityX,motionGravityY,motionGravityZ,motionMagneticFieldX,motionMagneticFieldY,motionMagneticFieldZ,motionMagneticFieldCalibrationAccuracy
0,0,20029.72196,1478281985,37.35291657,-122.0347936,42.72882,0,-1,12,10,1478281986,27.28284836,-9.293075562,-31.78261566,275.6678467,262.2091675,10,20029.72196,0.028991699,-0.100189209,-0.986785889,20029.7222,-0.724832288,-0.450048392,-0.250955262,20029.7222,1.557660808,0.048114076,0.140142366,-0.648404896,-0.528015375,-0.246511415,0.010359406,0.067571051,-0.063256919,-0.032961225,-0.06624541,-0.701719584,-0.708600542,0.047623992,-0.139684081,-0.98905021,24.58757782,-6.380383015,-28.11536407,2
9.688,0.9688,20029.73165,1478281985,37.35291657,-122.0347936,42.72882,0,-1,12,10,1478281986,27.28284836,-9.293075562,-31.78261566,275.6678467,262.2091675,10,20029.73165,0.019882202,-0.129364014,-0.935577393,20029.7222,-0.724832288,-0.450048392,-0.250955262,20029.7222,1.557660808,0.048114076,0.140142366,-0.648404896,-0.528015375,-0.246511415,0.010359406,0.067571051,-0.063256919,-0.032961225,-0.06624541,-0.701719584,-0.708600542,0.047623992,-0.139684081,-0.98905021,24.58757782,-6.380383015,-28.11536407,2
19.382,1.9382,20029.74134,1478281985,37.35291657,-122.0347936,42.72882,0,-1,12,10,1478281986,27.28284836,-9.293075562,-31.78261566,275.6678467,262.2091675,10,20029.74134,-0.002334595,-0.116241455,-0.997467041,20029.73219,-0.698334367,-0.387501124,-0.095532915,20029.73219,1.556658589,0.043371175,0.133715001,-0.621907234,-0.465467781,-0.091089092,-0.023088343,0.003952879,0.054564081,-0.032371703,-0.062300369,-0.701389006,-0.709312483,0.042970546,-0.133316889,-0.990141451,24.58757782,-6.380383015,-28.11536407,2
29.047,2.9047,20029.75101,1478281985,37.35291657,-122.0347936,42.72882,0,-1,12,10,1478281986,27.28284836,-9.293075562,-31.78261566,275.6678467,262.2091675,10,20029.75101,-0.022216797,-0.115921021,-1.023178101,20029.75219,-0.258347132,-0.560828702,-0.082442413,20029.75219,1.556093912,0.032772104,0.126137763,-0.181920186,-0.638795197,-0.077998601,-0.034840509,0.009562084,-0.005944557,-0.033409441,-0.055879939,-0.701135699,-0.710049275,0.032505915,-0.125803545,-0.991522491,24.27019119,-5.840527534,-28.50575256,2
38.723,3.8723,20029.76068,1478281985,37.35291657,-122.0347936,42.72882,0,-1,12,10,1478281986,27.28284836,-9.293075562,-31.78261566,275.6678467,262.2091675,10,20029.76068,0.001220703,-0.140716553,-1.03692627,20029.75219,-0.258347132,-0.560828702,-0.082442413,20029.75219,1.556093912,0.032772104,0.126137763,-0.181920186,-0.638795197,-0.077998601,-0.034840509,0.009562084,-0.005944557,-0.033409441,-0.055879939,-0.701135699,-0.710049275,0.032505915,-0.125803545,-0.991522491,24.27019119,-5.840527534,-28.50575256,2
48.402,4.8402,20029.77036,1478281985,37.35291657,-122.0347936,42.72882,0,-1,12,10,1478281986,27.28284836,-9.293075562,-31.78261566,275.6678467,262.2091675,10,20029.77036,0.004699707,-0.167221069,-1.051086426,20029.76219,0.05252526,-0.703666548,-0.236623194,20029.76219,1.554280963,0.024674391,0.126832944,0.128951862,-0.78163451,-0.232179806,-0.023253007,-0.014223387,-0.045260742,-0.03654347,-0.053214768,-0.700338201,-0.710886185,0.02447371,-0.126493171,-0.991665542,24.27019119,-5.840527534,-28.50575256,2
58.101,5.8101,20029.78006,1478281985,37.35291657,-122.0347936,42.72882,0,-1,12,10,1478281986,27.28284836,-9.293075562,-31.78261566,275.6678467,262.2091675,10,20029.78006,-0.003814697,-0.197280884,-1.058242798,20029.77217,0.331182457,-0.793762087,-0.415887225,20029.77217,1.550515655,0.016636094,0.130176031,0.407608807,-0.871729791,-0.411443859,-0.01179487,-0.037412383,-0.059684575,-0.04064467,-0.051449823,-0.698780481,-0.712324902,0.016494576,-0.129808679,-0.991401851,24.27019119,-5.840527534,-28.50575256,2
67.775,6.7775,20029.78973,1478281985,37.35291657,-122.0347936,42.72882,0,-1,12,10,1478281986,26.82883835,-8.978752136,-32.0172348,275.9525757,262.4938965,10,20029.78973,-0.031082153,-0.225036621,-1.115737915,20029.78216,0.556440346,-0.793833726,-0.587826498,20029.78216,1.545004375,0.008597154,0.135900444,0.632866621,-0.871801317,-0.583383083,-0.012332479,-0.061798375,-0.067499675,-0.045632617,-0.050458917,-0.696521363,-0.714303544,0.008517781,-0.135482505,-0.990743101,23.57668114,-5.679123402,-29.11390495,2
77.459,7.7459,20029.79942,1478281985,37.35291657,-122.0347936,42.72882,0,-1,12,10,1478281986,26.82883835,-8.978752136,-32.0172348,275.9525757,262.4938965,10,20029.79942,-0.078933716,-0.206970215,-1.157546997,20029.78216,0.556440346,-0.793833726,-0.587826498,20029.78216,1.545004375,0.008597154,0.135900444,0.632866621,-0.871801317,-0.583383083,-0.012332479,-0.061798375,-0.067499675,-0.045632617,-0.050458917,-0.696521363,-0.714303544,0.008517781,-0.135482505,-0.990743101,23.57668114,-5.679123402,-29.11390495,2
87.124,8.7124,20029.80908,1478281985,37.35291657,-122.0347936,42.72882,0,-1,12,10,1478281986,26.20020676,-8.559669495,-32.95574188,278.6104736,265.1517944,10,20029.80908,-0.050491333,-0.164520264,-1.10144043,20029.80215,0.815434626,-0.940653797,-0.849860244,20029.80215,1.529237789,-0.007269074,0.1519893,0.891860723,-1.018621206,-0.845416903,-0.071748503,-0.055565417,-0.169101268,-0.057296905,-0.049941967,-0.690060327,-0.719749686,-0.007185212,-0.151404798,-0.988445759,23.57668114,-5.679123402,-29.11390495,2
96.815,9.6815,20029.81877,1478281985,37.35291657,-122.0347936,42.72882,0,-1,12,10,1478281986,26.20020676,-8.559669495,-32.95574188,278.6104736,265.1517944,10,20029.81877,0.0131073,-0.157562256,-1.027099609,20029.81214,0.950097366,-1.150228063,-0.849867701,20029.81214,1.520834009,-0.017797196,0.162012121,1.026523232,-1.22819519,-0.845424354,-0.032928124,-0.00321596,-0.114692003,-0.064739275,-0.049341804,-0.68641464,-0.722640404,-0.017563209,-0.16130431,-0.986748397,22.907547,-5.835270882,-29.61293411,2
106.494,10.6494,20029.82845,1478281985,37.35291657,-122.0347936,42.72882,0,-1,12,10,1478281986,26.20020676,-8.559669495,-32.95574188,278.6104736,265.1517944,10,20029.82845,0.001342773,-0.180496216,-0.959976196,20029.81214,0.950097366,-1.150228063,-0.849867701,20029.81214,1.520834009,-0.017797196,0.162012121,1.026523232,-1.22819519,-0.845424354,-0.032928124,-0.00321596,-0.114692003,-0.064739275,-0.049341804,-0.68641464,-0.722640404,-0.017563209,-0.16130431,-0.986748397,22.907547,-5.835270882,-29.61293411,2
116.156,11.6156,20029.83812,1478281985,37.35291657,-122.0347936,42.72882,0,-1,12,10,1478281986,26.20020676,-8.559669495,-32.95574188,278.6104736,265.1517944,10,20029.83812,-0.049194336,-0.188827515,-0.880325317,20029.83212,0.972632503,-0.979667509,-0.984808475,20029.83212,1.502604869,-0.038205354,0.184264495,1.049058199,-1.057634354,-0.980365038,0.038892224,0.002727313,0.0223777,-0.080206035,-0.048888075,-0.678287868,-0.728767807,-0.037549451,-0.183223531,-0.982353926,22.907547,-5.835270882,-29.61293411,2
125.852,12.5852,20029.84781,1478281985,37.35291657,-122.0347936,42.72882,0,-1,12,10,1478281986,25.29218292,-8.769218445,-33.49202728,280.0692444,266.6105652,10,20029.84781,-0.079544067,-0.151260376,-0.840606689,20029.84211,0.781295564,-0.643064454,-0.984576248,20029.84211,1.492976243,-0.044492011,0.19377858,0.857721031,-0.72103101,-0.980132818,-0.005549458,0.003740605,0.099987209,-0.086029907,-0.049422599,-0.674133218,-0.731915751,-0.043644879,-0.192568123,-0.980312526,22.01073837,-6.176659584,-30.21767807,2
135.53,13.553,20029.85749,1478281985,37.35291657,-122.0347936,42.72882,0,-1,12,10,1478281986,25.29218292,-8.769218445,-33.49202728,280.0692444,266.6105652,10,20029.85749,-0.085708618,-0.122055054,-0.850204468,20029.84211,0.781295564,-0.643064454,-0.984576248,20029.84211,1.492976243,-0.044492011,0.19377858,0.857721031,-0.72103101,-0.980132818,-0.005549458,0.003740605,0.099987209,-0.086029907,-0.049422599,-0.674133218,-0.731915751,-0.043644879,-0.192568123,-0.980312526,22.01073837,-6.176659584,-30.21767807,2
145.19,14.519,20029.86715,1478281985,37.35291657,-122.0347936,42.72882,0,-1,12,10,1478281986,25.29218292,-8.769218445,-33.49202728,280.0692444,266.6105652,10,20029.86715,-0.080169678,-0.140258789,-0.867645264,20029.86209,0.151664361,-0.096113484,-0.7098821,20029.86209,1.476293565,-0.048067175,0.204180969,0.228089631,-0.174079835,-0.705438673,-0.038658049,0.080710158,0.127891898,-0.091452056,-0.050875686,-0.667409556,-0.737300936,-0.047050569,-0.202765211,-0.978096366,22.01073837,-6.176659584,-30.21767807,2
154.887,15.4887,20029.87685,1478281985,37.35291657,-122.0347936,42.72882,0,-1,12,10,1478281986,24.76831818,-8.664451599,-33.65961456,281.9385986,268.4799194,10,20029.87685,-0.043029785,-0.175308228,-0.896362305,20029.87208,-0.192671183,0.034827223,-0.441580871,20029.87208,1.471123318,-0.047749601,0.204095493,-0.116246141,-0.043138899,-0.437137485,-0.0334289,0.062422719,0.110483311,-0.091446151,-0.05072785,-0.665519522,-0.739018303,-0.046740778,-0.202681512,-0.978128552,21.72214699,-6.163452625,-30.42847633,2
164.566,16.4566,20029.88653,1478281985,37.35291657,-122.0347936,42.72882,0,-1,12,10,1478281986,24.76831818,-8.664451599,-33.65961456,281.9385986,268.4799194,10,20029.88653,-0.025527954,-0.203170776,-0.95803833,20029.87208,-0.192671183,0.034827223,-0.441580871,20029.87208,1.471123318,-0.047749601,0.204095493,-0.116246141,-0.043138899,-0.437137485,-0.0334289,0.062422719,0.110483311,-0.091446151,-0.05072785,-0.665519522,-0.739018303,-0.046740778,-0.202681512,-0.978128552,21.72214699,-6.163452625,-30.42847633,2
174.231,17.4231,20029.89619,1478281985,37.35291657,-122.0347936,42.72882,0,-1,12,10,1478281986,24.06983948,-8.454902649,-34.19589996,282.2914429,268.8327637,10,20029.89619,-0.020278931,-0.217910767,-0.994003296,20029.89207,-0.524649393,0.120945064,-0.076583458,20029.89207,1.467213679,-0.046412282,0.196766945,-0.448224574,0.042979177,-0.072140113,0.019972406,-0.007671088,0.021609357,-0.088399471,-0.048597227,-0.664442899,-0.740499478,-0.04550036,-0.195499688,-0.979647696,21.72214699,-6.163452625,-30.42847633,2
183.925,18.3925,20029.90588,1478281985,37.35291657,-122.0347936,42.72882,0,-1,12,10,1478281986,24.06983948,-8.454902649,-34.19589996,282.2914429,268.8327637,10,20029.90588,-0.03062439,-0.217651367,-1.005355835,20029.90206,-0.457594459,0.153602876,-0.104029197,20029.90206,1.466172652,-0.045554861,0.192757541,-0.381169885,0.075637214,-0.099585854,0.024416778,-0.026344676,-0.013541809,-0.086660752,-0.047530735,-0.664259379,-0.740938742,-0.044695709,-0.191566095,-0.980461478,21.76829147,-5.739462852,-30.47838593,2
193.603,19.3603,20029.91556,1478281985,37.35291657,-122.0347936,42.72882,0,-1,12,10,1478281986,24.06983948,-8.454902649,-34.19589996,282.2914429,268.8327637,10,20029.91556,-0.042663574,-0.217712402,-1.005203247,20029.90206,-0.457594459,0.153602876,-0.104029197,20029.90206,1.466172652,-0.045554861,0.192757541,-0.381169885,0.075637214,-0.099585854,0.024416778,-0.026344676,-0.013541809,-0.086660752,-0.047530735,-0.664259379,-0.740938742,-0.044695709,-0.191566095,-0.980461478,21.76829147,-5.739462852,-30.47838593,2
203.281,20.3281,20029.92524,1478281985,37.35291657,-122.0347936,42.72882,0,-1,12,10,1478281986,24.06983948,-8.454902649,-34.19589996,282.2914429,268.8327637,10,20029.92524,-0.064544678,-0.219909668,-0.984069824,20029.91205,-0.329292945,0.190790458,-0.241406232,20029.91205,1.463755649,-0.042702289,0.19190229,-0.25286442,0.112826206,-0.236961365,-0.000757901,-0.026985794,-0.024454923,-0.085455904,-0.048198821,-0.663520672,-0.741697027,-0.041905671,-0.190726608,-0.980748296,21.76829147,-5.739462852,-30.47838593,2
212.958,21.2958,20029.93492,1478281985,37.35291657,-122.0347936,42.72882,0,-1,12,10,1478281986,23.47612762,-8.559677124,-34.63162994,281.8940125,268.4353333,10,20029.93492,-0.063079834,-0.223861694,-0.946807861,20029.93203,-0.259685371,0.387770369,-0.53302823,20029.93203,1.45530424,-0.039290216,0.191451528,-0.183253974,0.309800208,-0.528583288,-0.025982253,-0.029625567,-0.003098418,-0.084364843,-0.04895784,-0.660543373,-0.744424714,-0.038562424,-0.190284103,-0.980971396,21.90623474,-5.452687263,-30.43216896,2
222.632,22.2632,20029.94459,1478281985,37.35291657,-122.0347936,42.72882,0,-1,12,10,1478281986,23.47612762,-8.559677124,-34.63162994,281.8940125,268.4353333,10,20029.94459,-0.06741333,-0.214813232,-0.926513672,20029.94202,-0.249699315,0.502466859,-0.632229915,20029.94202,1.449068293,-0.034019935,0.18984399,-0.173267916,0.42449671,-0.627784967,-0.029677557,-0.035156004,0.034657598,-0.082184103,-0.050130259,-0.658500387,-0.746397998,-0.033402279,-0.188705698,-0.981465459,21.90623474,-5.452687263,-30.43216896,2
232.314,23.2314,20029.95427,1478281985,37.35291657,-122.0347936,42.72882,0,-1,12,10,1478281986,23.47612762,-8.559677124,-34.63162994,281.8940125,268.4353333,10,20029.95427,-0.075469971,-0.186752319,-0.93800354,20029.94202,-0.249699315,0.502466859,-0.632229915,20029.94202,1.449068293,-0.034019935,0.18984399,-0.173267916,0.42449671,-0.627784967,-0.029677557,-0.035156004,0.034657598,-0.082184103,-0.050130259,-0.658500387,-0.746397998,-0.033402279,-0.188705698,-0.981465459,21.90623474,-5.452687263,-30.43216896,2
241.992,24.1992,20029.96395,1478281985,37.35291657,-122.0347936,42.72882,0,-1,12,10,1478281986,24.13968658,-7.75642395,-34.12885284,283.0444641,269.5857849,10,20029.96395,-0.067138672,-0.192932129,-0.945098877,20029.96197,-0.17811754,0.245041979,-0.656189577,20029.96197,1.435940207,-0.026769526,0.188115043,-0.101687156,0.167070001,-0.651745021,-0.04917584,0.000255205,0.04400298,-0.079494074,-0.051743913,-0.653943999,-0.750573451,-0.026294131,-0.187007532,-0.98200649,22.24518585,-4.950007915,-30.27178574,2
251.642,25.1642,20029.9736,1478281985,37.35291657,-122.0347936,42.72882,0,-1,12,10,1478281986,24.13968658,-7.75642395,-34.12885284,283.0444641,269.5857849,10,20029.9736,-0.053100586,-0.205459595,-0.937835693,20029.972,-0.169497687,0.070270435,-0.666490684,20029.972,1.429361907,-0.025913143,0.187543459,-0.093067668,-0.007702765,-0.662046373,-0.041682757,-0.006486135,0.037036493,-0.079170212,-0.051617746,-0.651526117,-0.752716019,-0.025455913,-0.186445996,-0.982135355,22.24518585,-4.950007915,-30.27178574,2
261.348,26.1348,20029.98331,1478281985,37.35291657,-122.0347936,42.72882,0,-1,12,10,1478281986,24.13968658,-7.75642395,-34.12885284,283.0444641,269.5857849,10,20029.98331,-0.057830811,-0.195739746,-0.923248291,20029.972,-0.169497687,0.070270435,-0.666490684,20029.972,1.429361907,-0.025913143,0.187543459,-0.093067668,-0.007702765,-0.662046373,-0.041682757,-0.006486135,0.037036493,-0.079170212,-0.051617746,-0.651526117,-0.752716019,-0.025455913,-0.186445996,-0.982135355,22.24518585,-4.950007915,-30.27178574,2
271.021,27.1021,20029.99298,1478281985,37.35291657,-122.0347936,42.72882,0,-1,12,10,1478281986,24.13968658,-7.75642395,-34.12885284,283.0444641,269.5857849,10,20029.99298,-0.06741333,-0.1847229,-0.907928467,20029.99197,-0.165557273,0.057156763,-0.723205629,20029.99197,1.415142547,-0.024193657,0.185988178,-0.089127481,-0.020816201,-0.718761325,-0.034056716,-0.010821987,0.059218101,-0.07839186,-0.051200775,-0.646280513,-0.757333939,-0.023774093,-0.184917763,-0.9824664,22.37528801,-4.425210953,-30.257164,2
280.696,28.0696,20030.00266,1478281985,37.35291657,-122.0347936,42.72882,0,-1,12,10,1478281986,24.13968658,-7.75642395,-34.12885284,283.0444641,269.5857849,10,20030.00266,-0.081604004,-0.12701416,-1.029174805,20030.00197,-0.227681897,-0.106349876,-0.781416738,20030.00197,1.4073861,-0.023947291,0.184910183,-0.151252329,-0.18432261,-0.776972413,-0.043876525,-0.000864652,0.074742466,-0.078101808,-0.050642284,-0.643385415,-0.759862274,-0.023536807,-0.183858246,-0.982670963,22.37528801,-4.425210953,-30.257164,2
290.383,29.0383,20030.01234,1478281985,37.35291657,-122.0347936,42.72882,0,-1,12,10,1478281986,24.13968658,-7.75642395,-34.12885284,283.0444641,269.5857849,10,20030.01234,-0.071655273,-0.143218994,-1.077987671,20030.00197,-0.227681897,-0.106349876,-0.781416738,20030.00197,1.4073861,-0.023947291,0.184910183,-0.151252329,-0.18432261,-0.776972413,-0.043876525,-0.000864652,0.074742466,-0.078101808,-0.050642284,-0.643385415,-0.759862274,-0.023536807,-0.183858246,-0.982670963,22.37528801,-4.425210953,-30.257164,2
300.056,30.0056,20030.02202,1478281985,37.35291657,-122.0347936,42.72882,0,-1,12,10,1478281986,23.99999237,-7.337333679,-34.32996368,283.94104,270.4823608,10,20030.02202,-0.010391235,-0.147720337,-0.966018677,20030.02195,-0.178351632,-0.870420114,-1.025052301,20030.02195,1.388801948,-0.035011499,0.182014818,-0.101922296,-0.94839257,-1.020608068,-0.037229165,0.037792481,-0.095109403,-0.080981722,-0.044752954,-0.635956896,-0.766157921,-0.034426108,-0.181011468,-0.982878268,22.25997353,-3.77879858,-30.42935944,2
309.722,30.9722,20030.03168,1478281985,37.35291657,-122.0347936,42.72882,0,-1,12,10,1478281986,23.99999237,-7.337333679,-34.32996368,283.94104,270.4823608,10,20030.03168,0.00302124,-0.154129028,-0.90914917,20030.02195,-0.178351632,-0.870420114,-1.025052301,20030.02195,1.388801948,-0.035011499,0.182014818,-0.101922296,-0.94839257,-1.020608068,-0.037229165,0.037792481,-0.095109403,-0.080981722,-0.044752954,-0.635956896,-0.766157921,-0.034426108,-0.181011468,-0.982878268,22.25997353,-3.77879858,-30.42935944,2
319.415,31.9415,20030.04137,1478281986,37.35291657,-122.0347936,48.4447,0,-1,12,10,1478281986,23.99999237,-7.337333679,-34.32996368,283.94104,270.4823608,10,20030.04137,-0.032302856,-0.208328247,-0.892166138,20030.03192,-0.029686523,-0.943345188,-1.163542271,20030.03192,1.377341633,-0.042897746,0.182476033,0.046742417,-1.021317124,-1.159098029,0.045193836,0.027336024,0.07334353,-0.083903484,-0.041398732,-0.631213903,-0.769945037,-0.042172596,-0.181465045,-0.982492685,22.25997353,-3.77879858,-30.42935944,2
329.092,32.9092,20030.05105,1478281986,37.35291657,-122.0347936,48.4447,0,-1,12,10,1478281986,24.24446106,-6.813468933,-34.36348724,285.0249634,271.5662842,10,20030.05105,-0.082672119,-0.265182495,-0.883529663,20030.05192,0.156632222,-1.169571934,-1.273691679,20030.05192,1.352204984,-0.06116778,0.187418055,0.23306106,-1.247543693,-1.269247413,0.02775632,-0.022005459,0.088485032,-0.092004785,-0.034778374,-0.620488908,-0.778022557,-0.060059179,-0.186322793,-0.98065114,21.60756683,-3.160963774,-30.96535683,2
338.761,33.8761,20030.06072,1478281986,37.35291657,-122.0347936,48.4447,0,-1,12,10,1478281986,24.31430817,-6.324539185,-34.76569366,287.0267639,273.5680847,10,20030.06072,-0.125518799,-0.258666992,-0.80329895,20030.05192,0.156632222,-1.169571934,-1.273691679,20030.05192,1.352204984,-0.06116778,0.187418055,0.23306106,-1.247543693,-1.269247413,0.02775632,-0.022005459,0.088485032,-0.092004785,-0.034778374,-0.620488908,-0.778022557,-0.060059179,-0.186322793,-0.98065114,21.60756683,-3.160963774,-30.96535683,2
348.425,34.8425,20030.07038,1478281986,37.35291657,-122.0347936,48.4447,0,-1,12,10,1478281986,24.31430817,-6.324539185,-34.76569366,287.0267639,273.5680847,10,20030.07038,-0.166213989,-0.17376709,-0.709075928,20030.06192,0.128319091,-1.060870753,-1.174373081,20030.06192,1.340113715,-0.070811058,0.19036921,0.204747632,-1.138842225,-1.169928789,-0.056045074,-0.069445543,0.1761747,-0.096328918,-0.031367353,-0.615195058,-0.781838774,-0.069473721,-0.189221442,-0.97947365,21.60756683,-3.160963774,-30.96535683,2
358.125,35.8125,20030.08008,1478281986,37.35291657,-122.0347936,48.4447,0,-1,12,10,1478281986,24.31430817,-6.324539185,-34.76569366,287.0267639,273.5680847,10,20030.08008,-0.168533325,-0.078704834,-0.652313232,20030.0819,0.010496583,-0.014675083,-0.565970467,20030.0819,1.323725706,-0.078483116,0.194244153,0.08692497,-0.09264642,-0.561526239,-0.089285873,0.019257868,0.269097596,-0.100432897,-0.028748469,-0.608219202,-0.786864767,-0.076928116,-0.193024963,-0.978173494,20.53783798,-2.517881632,-31.74254608,2
367.802,36.7802,20030.08976,1478281986,37.35291657,-122.0347936,48.4447,0,-1,12,10,1478281986,24.31430817,-6.324539185,-34.76569366,287.0267639,273.5680847,10,20030.08976,-0.136169434,-0.024047852,-0.638824463,20030.0819,0.010496583,-0.014675083,-0.565970467,20030.0819,1.323725706,-0.078483116,0.194244153,0.08692497,-0.09264642,-0.561526239,-0.089285873,0.019257868,0.269097596,-0.100432897,-0.028748469,-0.608219202,-0.786864767,-0.076928116,-0.193024963,-0.978173494,20.53783798,-2.517881632,-31.74254608,2
377.481,37.7481,20030.09944,1478281986,37.35291657,-122.0347936,48.4447,0,-1,12,10,1478281986,24.31430817,-6.324539185,-34.76569366,287.0267639,273.5680847,10,20030.09944,-0.062194824,-0.015426636,-0.653564453,20030.0819,0.010496583,-0.014675083,-0.565970467,20030.0819,1.323725706,-0.078483116,0.194244153,0.08692497,-0.09264642,-0.561526239,-0.089285873,0.019257868,0.269097596,-0.100432897,-0.028748469,-0.608219202,-0.786864767,-0.076928116,-0.193024963,-0.978173494,20.53783798,-2.517881632,-31.74254608,2
387.153,38.7153,20030.10911,1478281986,37.35291657,-122.0347936,48.4447,0,-1,12,10,1478281986,24.1396904,-5.800682068,-35.13439178,286.5406494,273.0819702,10,20030.10911,0.028381348,-0.038314819,-0.691741943,20030.11187,0.122265459,1.593701376,0.313858062,20030.11187,1.323609027,-0.050728995,0.197378485,0.198693544,1.515730381,0.318302274,-0.012472115,0.18067275,0.3257581,-0.093213126,-0.040620586,-0.609383114,-0.786329131,-0.049722709,-0.196099386,-0.979322553,20.90986824,-2.402251005,-31.50775146,2
396.838,39.6838,20030.1188,1478281986,37.35291657,-122.0347936,48.4447,0,-1,12,10,1478281986,24.1396904,-5.800682068,-35.13439178,286.5406494,273.0819702,10,20030.1188,0.057281494,-0.015548706,-0.761138916,20030.11187,0.122265459,1.593701376,0.313858062,20030.11187,1.323609027,-0.050728995,0.197378485,0.198693544,1.515730381,0.318302274,-0.012472115,0.18067275,0.3257581,-0.093213126,-0.040620586,-0.609383114,-0.786329131,-0.049722709,-0.196099386,-0.979322553,20.90986824,-2.402251005,-31.50775146,2
406.514,40.6514,20030.12847,1478281986,37.35291657,-122.0347936,48.4447,0,-1,12,10,1478281986,24.48892975,-5.591140747,-35.26847076,287.1683655,273.7096863,10,20030.12847,0.058044434,0.021011353,-0.836593628,20030.12187,0.308185529,1.771250065,0.548330487,20030.12187,1.328798062,-0.035065013,0.200513837,0.384613216,1.693279386,0.552774668,0.091636918,0.183624193,0.21822305,-0.089542208,-0.047970926,-0.612014153,-0.784295645,-0.034355421,-0.199172899,-0.979361951,20.90986824,-2.402251005,-31.50775146,2
416.17,41.617,20030.13813,1478281986,37.35291657,-122.0347936,48.4447,0,-1,12,10,1478281986,24.48892975,-5.591140747,-35.26847076,287.1683655,273.7096863,10,20030.13813,0.041702271,0.007034302,-0.852172852,20030.13186,0.474921251,1.656308565,0.747837738,20030.13186,1.336126072,-0.020360437,0.205467041,0.551348746,1.578338146,0.752281904,0.077975228,0.225035757,0.142169267,-0.086775167,-0.055575373,-0.615348994,-0.781490284,-0.019930795,-0.204024404,-0.978762925,20.90986824,-2.402251005,-31.50775146,2
425.869,42.5869,20030.14783,1478281986,37.35291657,-122.0347936,48.4447,0,-1,12,10,1478281986,24.48892975,-5.591140747,-35.26847076,287.1683655,273.7096863,10,20030.14783,0.015365601,-0.030334473,-0.806167603,20030.14185,0.560331224,1.446754805,0.900507709,20030.14185,1.345099591,-0.008022761,0.211528189,0.636758626,1.368784547,0.90495187,0.04954613,0.216988578,0.125506893,-0.085062684,-0.062645582,-0.619165207,-0.778122303,-0.007843859,-0.209954277,-0.977679729,22.3280468,-3.032897234,-30.46295738,2
435.548,43.5548,20030.15751,1478281986,37.35291657,-122.0347936,48.4447,0,-1,12,10,1478281986,24.48892975,-5.591140747,-35.26847076,287.1683655,273.7096863,10,20030.15751,-0.005706787,-0.058731079,-0.724761963,20030.14185,0.560331224,1.446754805,0.900507709,20030.14185,1.345099591,-0.008022761,0.211528189,0.636758626,1.368784547,0.90495187,0.04954613,0.216988578,0.125506893,-0.085062684,-0.062645582,-0.619165207,-0.778122303,-0.007843859,-0.209954277,-0.977679729,22.3280468,-3.032897234,-30.46295738,2
445.227,44.5227,20030.16719,1478281986,37.35291657,-122.0347936,48.4447,0,-1,12,10,1478281986,25.32710648,-5.800682068,-34.9332962,287.8830872,274.424408,10,20030.16719,-0.001846313,-0.088790894,-0.664230347,20030.16183,0.578153364,1.359695537,1.012791374,20030.16183,1.365531097,0.012789501,0.224901067,0.654580534,1.281725407,1.017235518,-0.018173859,0.16427885,0.249974489,-0.083047857,-0.075728651,-0.627499967,-0.77046221,0.012467072,-0.223009929,-0.974736452,22.3280468,-3.032897234,-30.46295738,2
454.901,45.4901,20030.17686,1478281986,37.35291657,-122.0347936,48.4447,0,-1,12,10,1478281986,25.32710648,-5.800682068,-34.9332962,287.8830872,274.424408,10,20030.17686,-0.021453857,-0.117141724,-0.643432617,20030.17182,0.451733374,1.563616711,0.962563357,20030.17182,1.375492182,0.024900728,0.230744736,0.528160334,1.485646844,0.967007458,-0.026084576,0.139911696,0.308964193,-0.081090537,-0.08262596,-0.631635644,-0.76657269,0.024238262,-0.22870259,-0.97319454,23.40542984,-4.274250984,-29.48980141,2
464.567,46.4567,20030.18653,1478281986,37.35291657,-122.0347936,48.4447,0,-1,12,10,1478281986,25.32710648,-5.800682068,-34.9332962,287.8830872,274.424408,10,20030.18653,0.000106812,-0.127029419,-0.579864502,20030.17182,0.451733374,1.563616711,0.962563357,20030.17182,1.375492182,0.024900728,0.230744736,0.528160334,1.485646844,0.967007458,-0.026084576,0.139911696,0.308964193,-0.081090537,-0.08262596,-0.631635644,-0.76657269,0.024238262,-0.22870259,-0.97319454,23.40542984,-4.274250984,-29.48980141,2
474.248,47.4248,20030.19621,1478281986,37.35291657,-122.0347936,48.4447,0,-1,12,10,1478281986,25.32710648,-5.800682068,-34.9332962,287.8830872,274.424408,10,20030.19621,0.043197632,-0.140899658,-0.521530151,20030.1918,-0.043755204,1.502466804,0.740016567,20030.1918,1.392791437,0.049870317,0.235931098,0.032671504,1.424497128,0.744460702,-0.048361856,0.106718972,0.391223788,-0.074378516,-0.094465276,-0.639051867,-0.759708404,0.048468668,-0.233748391,-0.97108829,23.40542984,-4.274250984,-29.48980141,2
483.937,48.3937,20030.2059,1478281986,37.35291657,-122.0347936,48.4447,0,-1,12,10,1478281986,25.99066162,-6.534080505,-33.8272171,286.7149048,273.2562256,10,20030.2059,0.081726074,-0.161911011,-0.556991577,20030.20179,-0.276714155,1.515576747,0.519217609,20030.20179,1.39884977,0.06281209,0.234826787,-0.20028767,1.437607288,0.523661733,-0.017850397,0.091774873,0.449106604,-0.069519701,-0.099240294,-0.641844768,-0.757201208,0.061048031,-0.232674524,-0.970636725,24.5316906,-5.213670731,-28.40326691,2
493.608,49.3608,20030.21557,1478281986,37.35291657,-122.0347936,48.4447,0,-1,12,10,1478281986,25.99066162,-6.534080505,-33.8272171,286.7149048,273.2562256,10,20030.21557,0.100357056,-0.161087036,-0.647369385,20030.20179,-0.276714155,1.515576747,0.519217609,20030.20179,1.39884977,0.06281209,0.234826787,-0.20028767,1.437607288,0.523661733,-0.017850397,0.091774873,0.449106604,-0.069519701,-0.099240294,-0.641844768,-0.757201208,0.061048031,-0.232674524,-0.970636725,24.5316906,-5.213670731,-28.40326691,2
503.289,50.3289,20030.22525,1478281986,37.35291657,-122.0347936,48.4447,0,-1,12,10,1478281986,25.99066162,-6.534080505,-33.8272171,286.7149048,273.2562256,10,20030.22525,0.108291626,-0.172775269,-0.717987061,20030.21179,-0.492755375,1.368465592,0.249828745,20030.21179,1.402435622,0.075387759,0.231430154,-0.416329145,1.290496349,0.254272848,0.027048668,0.068282746,0.323205382,-0.064003279,-0.103034924,-0.643703399,-0.755601296,0.073308386,-0.229369789,-0.970574796,24.5316906,-5.213670731,-28.40326691,2
512.97,51.297,20030.23493,1478281986,37.35291657,-122.0347936,48.4447,0,-1,12,10,1478281986,26.8637619,-6.708702087,-32.58707428,285.6220703,272.1633911,10,20030.23493,0.092926025,-0.196792603,-0.766418457,20030.23176,-0.888252374,0.531979477,-0.313630095,20030.23176,1.401282896,0.091515613,0.21790661,-0.811826289,0.454010516,-0.309186012,0.019064831,0.043410942,0.254279405,-0.053720081,-0.10478986,-0.644016688,-0.755894003,0.089226797,-0.216186211,-0.972266495,25.4163208,-5.237890244,-27.60990715,2
522.65,52.265,20030.24461,1478281986,37.35291657,-122.0347936,48.4447,0,-1,12,10,1478281986,26.8637619,-6.708702087,-32.58707428,285.6220703,272.1633911,10,20030.24461,0.083114624,-0.18447876,-0.800521851,20030.24176,-1.058652073,0.251271113,-0.465872628,20030.24176,1.397796806,0.094509694,0.208146732,-0.982225955,0.173302099,-0.461428523,0.000593866,0.009854387,0.207630724,-0.049214159,-0.102729642,-0.642936064,-0.75740201,0.092332162,-0.206646994,-0.974049151,25.4163208,-5.237890244,-27.60990715,2
532.331,53.2331,20030.25429,1478281986,37.35291657,-122.0347936,48.4447,0,-1,12,10,1478281986,26.8637619,-6.708702087,-32.58707428,285.6220703,272.1633911,10,20030.25429,0.068939209,-0.143814087,-0.828323364,20030.24176,-1.058652073,0.251271113,-0.465872628,20030.24176,1.397796806,0.094509694,0.208146732,-0.982225955,0.173302099,-0.461428523,0.000593866,0.009854387,0.207630724,-0.049214159,-0.102729642,-0.642936064,-0.75740201,0.092332162,-0.206646994,-0.974049151,25.4163208,-5.237890244,-27.60990715,2
542.028,54.2028,20030.26399,1478281986,37.35291657,-122.0347936,48.4447,0,-1,12,10,1478281986,27.73686218,-6.534080505,-31.95024872,284.0438232,270.585144,10,20030.26399,0.091033936,-0.088317871,-0.86567688,20030.26173,-1.417669091,0.151017479,-0.541520784,20030.26173,1.38951664,0.098021338,0.183353495,-1.341243386,0.073048942,-0.537076712,-0.027284812,0.038513787,0.150194645,-0.039011441,-0.096016173,-0.640191303,-0.761192549,0.096224017,-0.182327881,-0.978518009,25.82173729,-4.292532444,-27.39605713,2
551.703,55.1703,20030.27366,1478281986,37.35291657,-122.0347936,48.4447,0,-1,12,10,1478281986,27.73686218,-6.534080505,-31.95024872,284.0438232,270.585144,10,20030.27366,0.122848511,-0.068191528,-0.937637329,20030.27173,-1.618458388,0.122157868,-0.565246887,20030.27173,1.385424058,0.099253205,0.167951664,-1.542032957,0.044189569,-0.560802817,-0.006662114,0.078845315,0.115400054,-0.032897213,-0.091538551,-0.638794382,-0.763203908,0.097696051,-0.167163193,-0.981076956,25.82173729,-4.292532444,-27.39605713,2
561.388,56.1388,20030.28335,1478281986,37.35291657,-122.0347936,48.4447,0,-1,12,10,1478281986,27.73686218,-6.534080505,-31.95024872,284.0438232,270.585144,10,20030.28335,0.175430298,-0.060821533,-1.014572144,20030.27173,-1.618458388,0.122157868,-0.565246887,20030.27173,1.385424058,0.099253205,0.167951664,-1.542032957,0.044189569,-0.560802817,-0.006662114,0.078845315,0.115400054,-0.032897213,-0.091538551,-0.638794382,-0.763203908,0.097696051,-0.167163193,-0.981076956,25.82173729,-4.292532444,-27.39605713,2
571.067,57.1067,20030.29303,1478281986,37.35291657,-122.0347936,48.4447,0,-1,12,10,1478281986,28.36549377,-6.254692078,-31.21285248,282.7929382,269.334259,10,20030.29303,0.203262329,-0.132339478,-1.087768555,20030.29172,-1.786287072,0.246835885,-0.589571934,20030.29172,1.376923845,0.102398077,0.133469501,-1.709861875,0.168867826,-0.58512789,0.074120194,0.07225205,-0.0286575,-0.018985731,-0.081744847,-0.635740635,-0.767327288,0.101310104,-0.133073583,-0.985914648,25.93449974,-2.72664237,-27.48997879,2
580.725,58.0725,20030.30268,1478281986,37.35291657,-122.0347936,48.4447,0,-1,12,10,1478281986,28.36549377,-6.254692078,-31.21285248,282.7929382,269.334259,10,20030.30268,0.174560547,-0.192703247,-1.119430542,20030.30171,-1.701358066,0.293181812,-0.482368781,20030.30171,1.373529876,0.104959098,0.116502188,-1.624890327,0.215213686,-0.477933675,0.099206015,-0.016100653,-0.100013107,-0.011755801,-0.077356826,-0.634453555,-0.768990513,0.104056314,-0.116238825,-0.987755418,25.93449974,-2.72664237,-27.48997879,2
590.427,59.0427,20030.31239,1478281986,37.35291657,-122.0347936,48.4447,0,-1,12,10,1478281986,28.36549377,-6.254692078,-31.21285248,282.7929382,269.334259,10,20030.31239,0.107833862,-0.15574646,-1.090637207,20030.30171,-1.701358066,0.293181812,-0.482368781,20030.30171,1.373529876,0.104959098,0.116502188,-1.624890327,0.215213686,-0.477933675,0.099206015,-0.016100653,-0.100013107,-0.011755801,-0.077356826,-0.634453555,-0.768990513,0.104056314,-0.116238825,-0.987755418,25.93449974,-2.72664237,-27.48997879,2
600.105,60.0105,20030.32206,1478281986,37.35291657,-122.0347936,48.4447,0,-1,12,10,1478281986,28.88935852,-5.172050476,-30.84416962,281.1308594,267.6721802,10,20030.32206,0.034484863,-0.060119629,-1.070907593,20030.31169,-1.514464877,0.188700143,-0.301977967,20030.31169,1.371675608,0.106571367,0.101353067,-1.437997341,0.110732257,-0.2975429,0.002009981,-0.054566827,-0.101413272,-0.00545787,-0.073200037,-0.633698681,-0.770089571,0.105823882,-0.10117963,-0.989223957,26.09275436,-0.94774437,-27.459095,2
609.757,60.9757,20030.33172,1478281986,37.35291657,-122.0347936,48.4447,0,-1,12,10,1478281986,28.88935852,-5.172050476,-30.84416962,281.1308594,267.6721802,10,20030.33172,0.016189575,0.009567261,-1.092407227,20030.32168,-1.301129695,0.08393831,-0.162164939,20030.32168,1.371188741,0.106913505,0.088463901,-1.224662304,0.005970501,-0.157729864,-0.071807802,0.028228933,-0.080505453,-0.000381332,-0.069273257,-0.633439166,-0.77068534,0.106292665,-0.08834856,-0.990402162,26.09275436,-0.94774437,-27.459095,2
619.462,61.9462,20030.34142,1478281986,37.35291657,-122.0347936,48.4447,0,-1,12,10,1478281986,28.88935852,-5.172050476,-30.84416962,281.1308594,267.6721802,10,20030.34142,0.015258789,0.019180298,-1.134292603,20030.33168,-1.113150736,-0.029228726,-0.158013337,20030.33168,1.370900901,0.106133478,0.077495652,-1.036683679,-0.107196398,-0.153578296,-0.089426823,0.086985372,-0.101018496,0.003605146,-0.065518227,-0.63324684,-0.77116328,0.105616398,-0.077418111,-0.991388738,26.09275436,-0.94774437,-27.459095,2
629.141,62.9141,20030.3511,1478281986,37.35291657,-122.0347936,48.4447,0,-1,12,10,1478281986,28.994133,-3.390922546,-31.34693146,282.3727417,268.9140625,10,20030.3511,0.033340454,-0.005218506,-1.166870117,20030.35165,-0.787306851,-0.666969787,-0.374826341,20030.35165,1.366942789,0.097156508,0.060311139,-0.710840046,-0.744937301,-0.370391309,-0.081568569,0.079454876,-0.140818179,0.007299542,-0.056652478,-0.631592013,-0.773193859,0.096827358,-0.060274582,-0.993474424,26.0669899,0.180403948,-27.4992981,2
638.812,63.8812,20030.36077,1478281986,37.35291657,-122.0347936,48.4447,0,-1,12,10,1478281986,28.994133,-3.390922546,-31.34693146,282.3727417,268.9140625,10,20030.36077,0.051071167,-0.027893066,-1.157272339,20030.35165,-0.787306851,-0.666969787,-0.374826341,20030.35165,1.366942789,0.097156508,0.060311139,-0.710840046,-0.744937301,-0.370391309,-0.081568569,0.079454876,-0.140818179,0.007299542,-0.056652478,-0.631592013,-0.773193859,0.096827358,-0.060274582,-0.993474424,26.0669899,0.180403948,-27.4992981,2
648.498,64.8498,20030.37046,1478281986,37.35291657,-122.0347936,48.4447,0,-1,12,10,1478281986,29.30844879,-2.098731995,-32.05080414,283.2147827,269.7561035,10,20030.37046,0.039596558,-0.14302063,-1.128311157,20030.36166,-0.591979964,-1.133208866,-0.439351272,20030.36166,1.363239606,0.086458683,0.05428908,-0.51551348,-1.211176038,-0.434916258,-0.035152622,0.02636935,-0.162475348,0.006161308,-0.050631453,-0.630142047,-0.774802875,0.086223789,-0.054262415,-0.994796991,26.0669899,0.180403948,-27.4992981,2
658.179,65.8179,20030.38014,1478281986,37.35291657,-122.0347936,48.4447,0,-1,12,10,1478281986,29.30844879,-2.098731995,-32.05080414,283.2147827,269.7561035,10,20030.38014,-0.052932739,-0.1068573,-0.982757568,20030.38162,-0.136455581,-1.686293629,-0.378841057,20030.38162,1.355567762,0.054112827,0.049379707,-0.059989214,-1.76426065,-0.37440604,-0.014423937,-0.093660988,-0.13099204,-0.002264543,-0.036541971,-0.627167978,-0.778023061,0.054020494,-0.049359642,-0.997319102,25.32936478,1.010061026,-28.16265106,2
667.86,66.786,20030.38982,1478281986,37.35291657,-122.0347936,48.4447,0,-1,12,10,1478281986,29.30844879,-2.098731995,-32.05080414,283.2147827,269.7561035,10,20030.38982,-0.141174316,0.040420532,-0.960891724,20030.38162,-0.136455581,-1.686293629,-0.378841057,20030.38162,1.355567762,0.054112827,0.049379707,-0.059989214,-1.76426065,-0.37440604,-0.014423937,-0.093660988,-0.13099204,-0.002264543,-0.036541971,-0.627167978,-0.778023061,0.054020494,-0.049359642,-0.997319102,25.32936478,1.010061026,-28.16265106,2
677.532,67.7532,20030.39949,1478281986,37.35291657,-122.0347936,48.4447,0,-1,12,10,1478281986,29.30844879,-2.098731995,-32.05080414,283.2147827,269.7561035,10,20030.39949,-0.172225952,0.090820313,-0.952972412,20030.38162,-0.136455581,-1.686293629,-0.378841057,20030.38162,1.355567762,0.054112827,0.049379707,-0.059989214,-1.76426065,-0.37440604,-0.014423937,-0.093660988,-0.13099204,-0.002264543,-0.036541971,-0.627167978,-0.778023061,0.054020494,-0.049359642,-0.997319102,25.32936478,1.010061026,-28.16265106,2
687.219,68.7219,20030.40918,1478281986,37.35291657,-122.0347936,48.4447,0,-1,12,10,1478281986,28.81951141,-1.190711975,-32.6541214,284.5814819,271.1228027,10,20030.40918,-0.159820557,0.111984253,-0.93939209,20030.40162,0.018653846,-1.905424915,-0.530546963,20030.40162,1.346685331,0.016929879,0.050075149,0.095119908,-1.983391643,-0.52611196,-0.189133808,0.140874535,0.045630962,-0.014293125,-0.022226547,-0.623550444,-0.781336375,0.01690785,-0.050054222,-0.998603404,24.33334732,1.268866062,-29.01741028,2
696.898,69.6898,20030.41886,1478281986,37.35291657,-122.0347936,48.4447,0,-1,12,10,1478281986,28.81951141,-1.190711975,-32.6541214,284.5814819,271.1228027,10,20030.41886,-0.177429199,0.154388428,-0.995513916,20030.41161,0.041094706,-2.042331368,-0.72302773,20030.41161,1.340016714,-0.003561504,0.051188761,0.117560536,-2.120297909,-0.718592763,-0.156263724,0.163150668,0.059291717,-0.021164546,-0.014496834,-0.620752446,-0.78358682,-0.003556832,-0.051166408,-0.99868381,24.33334732,1.268866062,-29.01741028,2
706.577,70.6577,20030.42854,1478281986,37.35291657,-122.0347936,48.4447,0,-1,12,10,1478281986,28.81951141,-1.190711975,-32.6541214,284.5814819,271.1228027,10,20030.42854,-0.179199219,0.166534424,-1.082595825,20030.41161,0.041094706,-2.042331368,-0.72302773,20030.41161,1.340016714,-0.003561504,0.051188761,0.117560536,-2.120297909,-0.718592763,-0.156263724,0.163150668,0.059291717,-0.021164546,-0.014496834,-0.620752446,-0.78358682,-0.003556832,-0.051166408,-0.99868381,24.33334732,1.268866062,-29.01741028,2
716.254,71.6254,20030.43821,1478281986,37.35291657,-122.0347936,48.4447,0,-1,12,10,1478281986,27.63209152,-0.142997742,-33.86077118,286.4055481,272.9468689,10,20030.43821,-0.153625488,0.150283813,-1.091690063,20030.4316,-0.019664515,-2.898840993,-1.003863127,20030.4316,1.321439026,-0.053753481,0.053313943,0.056801088,-2.976807117,-0.999428153,-0.12554796,0.219823107,-0.085458994,-0.037522953,0.00485932,-0.612679976,-0.789424893,-0.053651258,-0.053288691,-0.997136831,22.5063839,1.601848722,-30.44057465,2
725.932,72.5932,20030.44789,1478281986,37.35291657,-122.0347936,48.4447,0,-1,12,10,1478281987,25.81604385,0.834877014,-35.3355484,288.3737793,274.9151001,10,20030.44789,-0.100875854,0.054168701,-0.974868774,20030.44159,-0.102061654,-3.259478012,-1.087539115,20030.44159,1.310835616,-0.085878522,0.05403393,-0.025596278,-3.337444067,-1.083104134,-0.067977674,0.204291448,-0.096829459,-0.047550008,0.017569676,-0.607787199,-0.792480299,-0.085647814,-0.054007642,-0.99486059,22.5063839,1.601848722,-30.44057465,2
735.611,73.5611,20030.45757,1478281986,37.35291657,-122.0347936,48.4447,0,-1,12,10,1478281987,25.81604385,0.834877014,-35.3355484,288.3737793,274.9151001,10,20030.45757,-0.089309692,-0.070205688,-0.881072998,20030.44159,-0.102061654,-3.259478012,-1.087539115,20030.44159,1.310835616,-0.085878522,0.05403393,-0.025596278,-3.337444067,-1.083104134,-0.067977674,0.204291448,-0.096829459,-0.047550008,0.017569676,-0.607787199,-0.792480299,-0.085647814,-0.054007642,-0.99486059,22.5063839,1.601848722,-30.44057465,2
745.276,74.5276,20030.46724,1478281986,37.35291657,-122.0347936,48.4447,0,-1,12,10,1478281987,25.81604385,0.834877014,-35.3355484,288.3737793,274.9151001,10,20030.46724,-0.141891479,-0.155593872,-0.861557007,20030.46157,-0.067388895,-2.68735511,-0.745502945,20030.46157,1.291884056,-0.146071695,0.054949231,0.009075385,-2.765320539,-0.741068125,0.056023415,-0.015284106,0.106784232,-0.065786492,0.041755506,-0.598518877,-0.797310335,-0.145333111,-0.054921582,-0.987857223,19.6394043,2.236741066,-32.32681274,2
754.95,75.495,20030.47691,1478281986,37.35291657,-122.0347936,48.4447,0,-1,12,10,1478281987,25.81604385,0.834877014,-35.3355484,288.3737793,274.9151001,10,20030.47691,-0.23260498,-0.187423706,-0.885559082,20030.47156,0.076153358,-2.268630819,-0.247035089,20030.47156,1.288326701,-0.170283781,0.056677623,0.15261741,-2.346596241,-0.242600262,0.027298439,-0.098946586,0.122397184,-0.073622653,0.05101576,-0.596187356,-0.797833149,-0.169189915,-0.056647282,-0.983954191,19.6394043,2.236741066,-32.32681274,2
764.649,76.4649,20030.48661,1478281986,37.35291657,-122.0347936,48.4447,0,-1,12,10,1478281987,25.81604385,0.834877014,-35.3355484,288.3737793,274.9151001,10,20030.48661,-0.291442871,-0.070510864,-0.942230225,20030.47156,0.076153358,-2.268630819,-0.247035089,20030.47156,1.288326701,-0.170283781,0.056677623,0.15261741,-2.346596241,-0.242600262,0.027298439,-0.098946586,0.122397184,-0.073622653,0.05101576,-0.596187356,-0.797833149,-0.169189915,-0.056647282,-0.983954191,19.6394043,2.236741066,-32.32681274,2
774.32,77.432,20030.49628,1478281986,37.35291657,-122.0347936,48.4447,0,-1,12,10,1478281987,23.47613525,0.93964386,-36.84384918,289.1859741,275.7272949,10,20030.49628,-0.347503662,0.153884888,-0.995300293,20030.49154,0.338567936,-2.034157861,0.826044926,20030.49154,1.299080698,-0.213455416,0.061150501,0.415031761,-2.112123013,0.830479741,-0.080000669,-0.009398467,0.033247847,-0.088605153,0.066408515,-0.598504544,-0.793430115,-0.211442202,-0.061112396,-0.975478053,16.95272636,2.494717598,-33.79516983,2
784.005,78.4005,20030.50596,1478281986,37.35291657,-122.0347936,48.4447,0,-1,12,10,1478281987,23.47613525,0.93964386,-36.84384918,289.1859741,275.7272949,10,20030.50596,-0.392608643,0.255523682,-1.002166748,20030.50153,0.455601881,-2.233578026,0.913686095,20030.50153,1.309120279,-0.236599135,0.064003694,0.532065451,-2.311542988,0.918120921,-0.113585733,0.217844889,-0.025150036,-0.097023168,0.074238647,-0.601249865,-0.789666846,-0.233917937,-0.063960001,-0.970150232,16.95272636,2.494717598,-33.79516983,2
793.658,79.3658,20030.51562,1478281986,37.35291657,-122.0347936,48.4447,0,-1,12,10,1478281987,23.47613525,0.93964386,-36.84384918,289.1859741,275.7272949,10,20030.51562,-0.55871582,0.434188843,-1.023391724,20030.50153,0.455601881,-2.233578026,0.913686095,20030.50153,1.309120279,-0.236599135,0.064003694,0.532065451,-2.311542988,0.918120921,-0.113585733,0.217844889,-0.025150036,-0.097023168,0.074238647,-0.601249865,-0.789666846,-0.233917937,-0.063960001,-0.970150232,16.95272636,2.494717598,-33.79516983,2
803.332,80.3332,20030.52529,1478281986,37.35291657,-122.0347936,48.4447,0,-1,12,10,1478281987,20.36789703,0.974571228,-38.08400726,289.4185486,275.9598694,10,20030.52529,-0.606536865,0.397537231,-0.947143555,20030.5115,0.54151679,-2.521408482,0.783725965,20030.5115,1.318720797,-0.262438371,0.067758842,0.617980123,-2.599373341,0.788160741,-0.299874961,0.501895845,-0.059847657,-0.106652363,0.082784295,-0.603493355,-0.785854824,-0.258840859,-0.067707002,-0.963544071,14.72446442,1.677240133,-34.87275314,2
813.035,81.3035,20030.53499,1478281986,37.35291657,-122.0347936,48.4447,0,-1,12,10,1478281987,16.91042328,0.799957275,-39.6593399,290.1515808,276.6929016,10,20030.53499,-0.528152466,0.230743408,-0.93649292,20030.54149,1.11140743,-3.165023411,0.323382325,20030.54149,1.337903895,-0.353647968,0.090205103,1.187870622,-3.242987871,0.327817082,-0.261622608,0.487620056,-0.012842087,-0.14379659,0.110325912,-0.603651634,-0.77637326,-0.344914258,-0.090082817,-0.934301496,14.72446442,1.677240133,-34.87275314,2
822.7,82.27,20030.54466,1478281986,37.35291657,-122.0347936,48.4447,0,-1,12,10,1478281987,16.91042328,0.799957275,-39.6593399,290.1515808,276.6929016,10,20030.54466,-0.411697388,0.062942505,-0.958709717,20030.54149,1.11140743,-3.165023411,0.323382325,20030.54149,1.337903895,-0.353647968,0.090205103,1.187870622,-3.242987871,0.327817082,-0.261622608,0.487620056,-0.012842087,-0.14379659,0.110325912,-0.603651634,-0.77637326,-0.344914258,-0.090082817,-0.934301496,14.72446442,1.677240133,-34.87275314,2
832.398,83.2398,20030.55436,1478281986,37.35291657,-122.0347936,48.4447,0,-1,12,10,1478281987,16.91042328,0.799957275,-39.6593399,290.1515808,276.6929016,10,20030.55436,-0.338272095,-0.009063721,-0.940948486,20030.54149,1.11140743,-3.165023411,0.323382325,20030.54149,1.337903895,-0.353647968,0.090205103,1.187870622,-3.242987871,0.327817082,-0.261622608,0.487620056,-0.012842087,-0.14379659,0.110325912,-0.603651634,-0.77637326,-0.344914258,-0.090082817,-0.934301496,14.72446442,1.677240133,-34.87275314,2
842.078,84.2078,20030.56404,1478281986,37.35291657,-122.0347936,48.4447,0,-1,12,10,1478281987,16.91042328,0.799957275,-39.6593399,290.1515808,276.6929016,10,20030.56404,-0.338500977,-0.025253296,-0.90675354,20030.56148,1.342964227,-3.639109228,0.781885987,20030.56148,1.359099888,-0.424045046,0.102379592,1.419409513,-3.717061043,0.786319792,0.071024053,0.093137115,-0.034288876,-0.170984416,0.132039858,-0.605190101,-0.766208031,-0.409296155,-0.102200836,-0.906659603,10.47684193,0.141754627,-36.41356277,2
851.738,85.1738,20030.5737,1478281986,37.35291657,-122.0347936,48.4447,0,-1,12,10,1478281987,16.91042328,0.799957275,-39.6593399,290.1515808,276.6929016,10,20030.5737,-0.357894897,-0.004760742,-0.945983887,20030.57147,1.30809972,-3.817575643,0.995751671,20030.57147,1.373780794,-0.463956475,0.110781767,1.384544611,-3.895526886,1.00018549,0.106245734,0.08530201,-0.017946536,-0.187227145,0.143326531,-0.606361456,-0.759426946,-0.444746703,-0.110555306,-0.888806999,10.47684193,0.141754627,-36.41356277,2
861.437,86.1437,20030.5834,1478281986,37.35291657,-122.0347936,48.4447,0,-1,12,10,1478281987,12.75446701,-0.352539063,-40.96652985,289.7713013,276.3126221,10,20030.5834,-0.369491577,0.048095703,-1.025878906,20030.57147,1.30809972,-3.817575643,0.995751671,20030.57147,1.373780794,-0.463956475,0.110781767,1.384544611,-3.895526886,1.00018549,0.106245734,0.08530201,-0.017946536,-0.187227145,0.143326531,-0.606361456,-0.759426946,-0.444746703,-0.110555306,-0.888806999,10.47684193,0.141754627,-36.41356277,2
871.115,87.1115,20030.59307,1478281986,37.35291657,-122.0347936,48.4447,0,-1,12,10,1478281987,12.75446701,-0.352539063,-40.96652985,289.7713013,276.3126221,10,20030.59307,-0.473327637,0.091522217,-1.025177002,20030.58146,1.140299799,-4.034961227,1.107839061,20030.58146,1.389368038,-0.506126281,0.116778225,1.216744184,-4.112911701,1.112272978,0.111999407,0.164608687,-0.157206833,-0.203404251,0.15585467,-0.607473345,-0.751872442,-0.48149097,-0.116512984,-0.868672073,6.408819199,-1.323944807,-37.32165909,2
880.775,88.0775,20030.60273,1478281986,37.35291657,-122.0347936,48.4447,0,-1,12,10,1478281987,12.75446701,-0.352539063,-40.96652985,289.7713013,276.3126221,10,20030.60273,-0.632888794,0.126190186,-1.011047363,20030.59145,0.960668252,-4.276838039,1.201534128,20030.59145,1.405084709,-0.550937177,0.120133658,1.037112594,-4.354788303,1.205968022,0.04638537,0.211367115,-0.179283634,-0.219525426,0.169887914,-0.608215348,-0.743653666,-0.519712985,-0.119844906,-0.845893383,6.408819199,-1.323944807,-37.32165909,2
890.464,89.0464,20030.61242,1478281986,37.35291657,-122.0347936,48.4447,0,-1,12,10,1478281987,8.284194946,-2.098747253,-41.83798981,288.1184387,274.6597595,10,20030.61242,-0.787322998,0.16998291,-0.988525391,20030.60145,0.867663476,-4.351014532,1.34600316,20030.60145,1.421398447,-0.597065949,0.121074749,0.944107533,-4.428965092,1.350437045,-0.074786097,0.246969342,-0.190112665,-0.235346197,0.184783166,-0.608880615,-0.734664376,-0.558102667,-0.120779157,-0.820934713,3.159393311,-2.247997522,-37.69212723,2
900.153,90.0153,20030.62211,1478281986,37.35291657,-122.0347936,48.4447,0,-1,12,10,1478281987,8.284194946,-2.098747253,-41.83798981,288.1184387,274.6597595,10,20030.62211,-0.850830078,0.138275146,-1.000396729,20030.62143,1.065625294,-4.163329053,1.810105319,20030.62143,1.460025933,-0.688115349,0.117994384,1.142069221,-4.241279125,1.814539075,-0.15665637,0.287703693,-0.221452102,-0.265915702,0.213897631,-0.611883287,-0.713537305,-0.630666614,-0.117720775,-0.767073274,3.159393311,-2.247997522,-37.69212723,2
909.827,90.9827,20030.63179,1478281986,37.35291657,-122.0347936,48.4447,0,-1,12,10,1478281987,8.284194946,-2.098747253,-41.83798981,288.1184387,274.6597595,10,20030.63179,-0.795700073,0.060943604,-0.973297119,20030.62143,1.065625294,-4.163329053,1.810105319,20030.62143,1.460025933,-0.688115349,0.117994384,1.142069221,-4.241279125,1.814539075,-0.15665637,0.287703693,-0.221452102,-0.265915702,0.213897631,-0.611883287,-0.713537305,-0.630666614,-0.117720775,-0.767073274,3.159393311,-2.247997522,-37.69212723,2
919.485,91.9485,20030.64144,1478281986,37.35291657,-122.0347936,48.4447,0,-1,12,10,1478281987,3.220211029,-3.460777283,-41.93852997,285.0322266,271.5735474,10,20030.64144,-0.683303833,-0.014907837,-0.916168213,20030.63142,1.295565819,-4.072354405,2.075723147,20030.63142,1.48401601,-0.732564611,0.114788831,1.372009516,-4.150304317,2.080157042,-0.131322786,0.175480515,-0.234728158,-0.281104275,0.227367332,-0.614760003,-0.700966919,-0.664377272,-0.114536911,-0.738568962,-1.869922638,-3.461973906,-37.686203,2
929.188,92.9188,20030.65115,1478281986,37.35291657,-122.0347936,48.4447,0,-1,12,10,1478281987,3.220211029,-3.460777283,-41.93852997,285.0322266,271.5735474,10,20030.65115,-0.622848511,-0.052444458,-0.833084106,20030.63142,1.295565819,-4.072354405,2.075723147,20030.63142,1.48401601,-0.732564611,0.114788831,1.372009516,-4.150304317,2.080157042,-0.131322786,0.175480515,-0.234728158,-0.281104275,0.227367332,-0.614760003,-0.700966919,-0.664377272,-0.114536911,-0.738568962,-1.869922638,-3.461973906,-37.686203,2
938.856,93.8856,20030.66082,1478281986,37.35291657,-122.0347936,48.4447,0,-1,12,10,1478281987,3.220211029,-3.460777283,-41.93852997,285.0322266,271.5735474,10,20030.66082,-0.609054565,-0.047454834,-0.748504639,20030.6514,1.716006783,-3.811331062,2.270407414,20030.6514,1.539614334,-0.818695856,0.106716465,1.79245019,-3.889280796,2.274841309,0.103252709,0.054069567,-0.153796405,-0.311751758,0.251330438,-0.622343194,-0.672556913,-0.72610122,-0.106514022,-0.679287732,-1.869922638,-3.461973906,-37.686203,2
948.534,94.8534,20030.67049,1478281986,37.35291657,-122.0347936,48.4447,0,-1,12,10,1478281987,-2.437479019,-5.486366272,-41.80445099,281.4115601,267.9528809,10,20030.67049,-0.654647827,-0.042053223,-0.668121338,20030.66138,1.80020555,-3.553069418,2.106440846,20030.66138,1.568041488,-0.858666892,0.103088301,1.876648784,-3.631018639,2.110874653,0.143898875,0.055450976,-0.098526545,-0.32671791,0.261278322,-0.62600743,-0.658106179,-0.75295341,-0.10290581,-0.649978101,-6.62151432,-5.008027077,-36.97035217,2
958.198,95.8198,20030.68016,1478281986,37.35291657,-122.0347936,48.4447,0,-1,12,10,1478281987,-8.234866142,-7.09287262,-40.86595917,276.8857117,263.4270325,10,20030.68016,-0.813140869,-0.069702148,-0.688430786,20030.68138,1.420000423,-2.927839621,1.621738337,20030.68138,1.617101293,-0.927502765,0.097005497,1.49644351,-3.005788803,1.626172066,0.14171502,0.054800209,-0.071107417,-0.353094623,0.277159206,-0.63115734,-0.63257203,-0.796362877,-0.096853428,-0.59701395,-6.62151432,-5.008027077,-36.97035217,2
967.894,96.7894,20030.68985,1478281986,37.35291657,-122.0347936,48.4447,0,-1,12,10,1478281987,-8.234866142,-7.09287262,-40.86595917,276.8857117,263.4270325,10,20030.68985,-0.966171265,-0.046798706,-0.678756714,20030.68138,1.420000423,-2.927839621,1.621738337,20030.68138,1.617101293,-0.927502765,0.097005497,1.49644351,-3.005788803,1.626172066,0.14171502,0.054800209,-0.071107417,-0.353094623,0.277159206,-0.63115734,-0.63257203,-0.796362877,-0.096853428,-0.59701395,-6.62151432,-5.008027077,-36.97035217,2
977.58,97.758,20030.69954,1478281986,37.35291657,-122.0347936,48.4447,0,-1,12,10,1478281987,-8.234866142,-7.09287262,-40.86595917,276.8857117,263.4270325,10,20030.69954,-1.021118164,-0.001907349,-0.634918213,20030.69136,0.944337748,-2.892624642,1.692674296,20030.69136,1.636224609,-0.958990839,0.090233112,1.020780563,-2.970573664,1.69710803,-0.150889203,0.043312009,-0.106746905,-0.363717622,0.285840143,-0.632666818,-0.621077774,-0.815282047,-0.090110712,-0.572009802,-6.62151432,-5.008027077,-36.97035217,2
987.237,98.7237,20030.7092,1478281986,37.35291657,-122.0347936,48.4447,0,-1,12,10,1478281987,-8.234866142,-7.09287262,-40.86595917,276.8857117,263.4270325,10,20030.7092,-1.011001587,0.026687622,-0.646957397,20030.70136,0.471242094,-2.853706804,1.836242647,20030.70136,1.651879456,-0.989752483,0.079009669,0.547684669,-2.931655645,1.840676427,-0.187835693,0.077020146,-0.087733798,-0.372443843,0.296130675,-0.633763681,-0.609865398,-0.833282471,-0.078927495,-0.547184408,-11.63163567,-6.495463371,-35.4717598,2
996.917,99.6917,20030.71888,1478281986,37.35291657,-122.0347936,48.4447,0,-1,12,10,1478281987,-8.234866142,-7.09287262,-40.86595917,276.8857117,263.4270325,10,20030.71888,-0.989227295,0.014801025,-0.664352417,20030.71135,0.124655913,-2.697700425,1.910496106,20030.71135,1.664437449,-1.01888915,0.064481781,0.201098412,-2.775649071,1.914929867,-0.161245137,0.091124728,-0.123734847,-0.379371678,0.30735298,-0.634611797,-0.599065224,-0.84975642,-0.064437106,-0.523222566,-11.63163567,-6.495463371,-35.4717598,2
1006.612,100.6612,20030.72857,1478281986,37.35291657,-122.0347936,48.4447,0,-1,12,10,1478281987,-8.234866142,-7.09287262,-40.86595917,276.8857117,263.4270325,10,20030.72857,-1.029693604,-0.024963379,-0.705841064,20030.72133,-0.05251008,-2.370272759,1.958673755,20030.72133,1.674942834,-1.04481909,0.048072201,0.023932265,-2.448221207,1.963107467,-0.12539266,0.062854715,-0.162874028,-0.384545175,0.31841139,-0.635644656,-0.588808174,-0.86383462,-0.048053689,-0.501478374,-11.63163567,-6.495463371,-35.4717598,2
1016.276,101.6276,20030.73824,1478281986,37.35291657,-122.0347936,48.4447,0,-1,12,10,1478281987,-13.33377075,-7.442115784,-39.59227753,271.7169495,258.2582703,10,20030.73824,-0.981903076,0.005905151,-0.643005371,20030.74133,-0.045085453,-1.703228936,2.397754451,20030.74133,1.696173553,-1.086499513,0.008502286,0.031356663,-1.781177282,2.402188063,-0.144723028,-0.016461195,-0.240271747,-0.39010238,0.339168794,-0.640579719,-0.567840017,-0.884970546,-0.008502183,-0.465569317,-14.7822361,-5.933114052,-34.3804512,2
1025.952,102.5952,20030.74791,1478281986,37.35291657,-122.0347936,48.4447,0,-1,12,10,1478281987,-13.33377075,-7.442115784,-39.59227753,271.7169495,258.2582703,10,20030.74791,-0.943099976,0.000167847,-0.616195679,20030.74133,-0.045085453,-1.703228936,2.397754451,20030.74133,1.696173553,-1.086499513,0.008502286,0.031356663,-1.781177282,2.402188063,-0.144723028,-0.016461195,-0.240271747,-0.39010238,0.339168794,-0.640579719,-0.567840017,-0.884970546,-0.008502183,-0.465569317,-14.7822361,-5.933114052,-34.3804512,2
1035.647,103.5647,20030.75761,1478281986,37.35291657,-122.0347936,48.4447,0,-1,12,10,1478281987,-13.33377075,-7.442115784,-39.59227753,271.7169495,258.2582703,10,20030.75761,-0.938430786,-0.007598877,-0.60723877,20030.75131,0.207816846,-1.380996831,2.429756592,20030.75131,1.709245885,-1.101750337,-0.012165337,0.284258723,-1.458944917,2.434190273,-0.051166039,-0.01199719,-0.164193615,-0.391428042,0.347538566,-0.644812236,-0.556972363,-0.891933918,0.012165037,-0.452002078,-14.7822361,-5.933114052,-34.3804512,2
1045.325,104.5325,20030.76728,1478281986,37.35291657,-122.0347936,48.4447,0,-1,12,10,1478281987,-21.7155304,-7.581809998,-36.97789764,261.1312866,247.6726074,10,20030.76728,-0.958602905,-0.003616333,-0.559448242,20030.76131,0.523966292,-1.257885019,2.301736841,20030.76131,1.724337888,-1.114922539,-0.030822988,0.600407958,-1.335832834,2.306170464,-0.040980581,-0.038416985,-0.167200848,-0.393113263,0.354179335,-0.649534549,-0.546007171,-0.897450209,0.030818108,-0.440037936,-16.91982079,-4.936552048,-33.54224014,2
1055.005,105.5005,20030.77696,1478281986,37.35291657,-122.0347936,48.4447,0,-1,12,10,1478281987,-21.7155304,-7.581809998,-36.97789764,261.1312866,247.6726074,10,20030.77696,-1.030914307,0.058837891,-0.504043579,20030.7713,0.825799382,-1.305946022,2.076983622,20030.7713,1.741142471,-1.127851363,-0.046507226,0.902240992,-1.383893728,2.081417322,-0.056086458,-0.050106794,-0.131309599,-0.395963244,0.359365814,-0.654127821,-0.534963658,-0.902516425,0.046490461,-0.428138644,-16.91982079,-4.936552048,-33.54224014,2
1064.682,106.4682,20030.78664,1478281986,37.35291657,-122.0347936,48.4447,0,-1,12,10,1478281987,-21.7155304,-7.581809998,-36.97789764,261.1312866,247.6726074,10,20030.78664,-1.05796814,0.007125854,-0.489013672,20030.78129,1.036368606,-1.450084556,1.74986648,20030.78129,1.758571229,-1.141788527,-0.058667834,1.112810016,-1.528032184,1.754300117,-0.123099938,0.000203705,-0.088790514,-0.400332811,0.363465417,-0.657958771,-0.524134321,-0.907814384,0.058634184,-0.415253073,-16.91982079,-4.936552048,-33.54224014,2
1074.333,107.4333,20030.79629,1478281986,37.35291657,-122.0347936,48.4447,0,-1,12,10,1478281987,-21.7155304,-7.581809998,-36.97789764,261.1312866,247.6726074,10,20030.79629,-1.005783081,-0.10774231,-0.53012085,20030.79128,1.234923244,-1.748006262,1.534369343,20030.79128,1.776538641,-1.158020278,-0.067936817,1.311364412,-1.825953603,1.538802981,-0.144070476,-0.060758714,-0.088785298,-0.406438632,0.367006066,-0.660847139,-0.513220464,-0.913897634,0.067884572,-0.400228381,-18.63994217,-4.809457302,-32.63669205,2
1084.037,108.4037,20030.806,1478281986,37.35291657,-122.0347936,48.4447,0,-1,12,10,1478281987,-21.7155304,-7.581809998,-36.97789764,261.1312866,247.6726074,10,20030.806,-0.937744141,-0.108093262,-0.557434082,20030.80127,1.566543525,-2.213519896,1.41430259,20030.80127,1.79649575,-1.1782475,-0.075178841,1.642984629,-2.29146719,1.418736219,-0.08445581,-0.182850361,-0.148656771,-0.4148638,0.37034577,-0.662922335,-0.501264417,-0.921327293,0.075108044,-0.381464064,-18.63994217,-4.809457302,-32.63669205,2
1093.715,109.3715,20030.81567,1478281986,37.35291657,-122.0347936,48.4447,0,-1,12,10,1478281987,-21.7155304,-7.581809998,-36.97789764,261.1312866,247.6726074,10,20030.81567,-0.907806396,-0.089141846,-0.528182983,20030.80127,1.566543525,-2.213519896,1.41430259,20030.80127,1.79649575,-1.1782475,-0.075178841,1.642984629,-2.29146719,1.418736219,-0.08445581,-0.182850361,-0.148656771,-0.4148638,0.37034577,-0.662922335,-0.501264417,-0.921327293,0.075108044,-0.381464064,-18.63994217,-4.809457302,-32.63669205,2
1103.385,110.3385,20030.82534,1478281986,37.35291657,-122.0347936,48.4447,0,-1,12,10,1478281987,-24.89361572,-6.708717346,-35.53664398,258.7866211,245.3279419,10,20030.82534,-0.814163208,-0.061035156,-0.519607544,20030.82126,2.694945385,-3.212184532,1.305750812,20030.82126,1.849729093,-1.232856089,-0.083493637,2.771386147,-3.290131569,1.310184479,0.032346636,-0.172538504,-0.197793409,-0.440754549,0.374887502,-0.665522932,-0.471459453,-0.940153003,0.083396666,-0.330389589,-20.18505287,-5.260726929,-31.63258362,2
1113.072,111.3072,20030.83503,1478281986,37.35291657,-122.0347936,48.4447,0,-1,12,10,1478281987,-24.89361572,-6.708717346,-35.53664398,258.7866211,245.3279419,10,20030.83503,-0.812637329,-0.068145752,-0.503356934,20030.83125,3.330404916,-3.511596809,1.146709495,20030.83125,1.88445975,-1.264627765,-0.084231433,3.406846046,-3.589541912,1.151143193,0.135951683,-0.145167023,-0.219268546,-0.457659573,0.37467081,-0.66653841,-0.453757696,-0.950114906,0.084131867,-0.300338984,-20.18505287,-5.260726929,-31.63258362,2
1122.749,112.2749,20030.84471,1478281986,37.35291657,-122.0347936,48.4447,0,-1,12,10,1478281987,-24.89361572,-6.708717346,-35.53664398,258.7866211,245.3279419,10,20030.84471,-0.842224121,-0.102035522,-0.422729492,20030.83125,3.330404916,-3.511596809,1.146709495,20030.83125,1.88445975,-1.264627765,-0.084231433,3.406846046,-3.589541912,1.151143193,0.135951683,-0.145167023,-0.219268546,-0.457659573,0.37467081,-0.66653841,-0.453757696,-0.950114906,0.084131867,-0.300338984,-20.18505287,-5.260726929,-31.63258362,2
1132.422,113.2422,20030.85438,1478281986,37.35291657,-122.0347936,48.4447,0,-1,12,10,1478281987,-27.93200302,-6.743644714,-33.35799408,256.0389404,242.5802612,10,20030.85438,-0.901992798,-0.128845215,-0.326766968,20030.84124,3.893305558,-3.65627996,1.012730121,20030.84124,1.924363083,-1.297787981,-0.082826718,3.969747066,-3.734223127,1.017163992,0.117438786,-0.184767574,-0.154024243,-0.476512243,0.372267995,-0.667432134,-0.434611285,-0.959662914,0.082732044,-0.268705249,-23.40361595,-7.137879372,-28.93187332,2
1142.105,114.2105,20030.86406,1478281986,37.35291657,-122.0347936,48.4447,0,-1,12,10,1478281987,-27.93200302,-6.743644714,-33.35799408,256.0389404,242.5802612,10,20030.86406,-0.955581665,-0.123153687,-0.216293335,20030.84124,3.893305558,-3.65627996,1.012730121,20030.84124,1.924363083,-1.297787981,-0.082826718,3.969747066,-3.734223127,1.017163992,0.117438786,-0.184767574,-0.154024243,-0.476512243,0.372267995,-0.667432134,-0.434611285,-0.959662914,0.082732044,-0.268705249,-23.40361595,-7.137879372,-28.93187332,2
1151.783,115.1783,20030.87374,1478281986,37.35291657,-122.0347936,48.4447,0,-1,12,10,1478281987,-27.93200302,-6.743644714,-33.35799408,256.0389404,242.5802612,10,20030.87374,-0.985473633,-0.098724365,-0.140228271,20030.8612,4.590925399,-3.247614694,0.813822614,20030.8612,2.015447131,-1.360984706,-0.078790154,4.667367458,-3.325556755,0.818256557,0.019454196,-0.20186235,-0.008663822,-0.515289624,0.361471779,-0.669985607,-0.39361662,-0.975035846,0.078708656,-0.207629517,-23.40361595,-7.137879372,-28.93187332,2
1161.377625,116.1377625,20030.88334,1478281986,37.35291657,-122.0347936,48.4447,0,-1,12,10,1478281987,-30.93546677,-7.651664734,-30.40843964,250.9260254,237.4673462,10,20030.88334,-1.013900757,-0.136688232,-0.029541016,20030.87119,4.678223819,-2.912107796,0.643159262,20030.87119,2.06312168,-1.392251093,-0.063416591,4.7546978,-2.990045071,0.647592425,-0.003348738,-0.162098452,0.037012849,-0.537489281,0.34997816,-0.668556932,-0.376367094,-0.982124925,0.063374095,-0.177241117,-26.46866989,-10.07244205,-25.17314529,2
1171.036625,117.1036625,20030.893,1478281986,37.35291657,-122.0347936,48.4447,0,-1,12,10,1478281987,-30.93546677,-7.651664734,-30.40843964,250.9260254,237.4673462,10,20030.893,-1.009124756,-0.204040527,0.034820557,20030.87119,4.678223819,-2.912107796,0.643159262,20030.87119,2.06312168,-1.392251093,-0.063416591,4.7546978,-2.990045071,0.647592425,-0.003348738,-0.162098452,0.037012849,-0.537489281,0.34997816,-0.668556932,-0.376367094,-0.982124925,0.063374095,-0.177241117,-26.46866989,-10.07244205,-25.17314529,2
1180.705625,118.0705625,20030.90267,1478281986,37.35291657,-122.0347936,48.4447,0,-1,12,10,1478281987,-30.93546677,-7.651664734,-30.40843964,250.9260254,237.4673462,10,20030.90267,-1.05128479,-0.252380371,0.089950562,20030.89109,4.255314637,-2.145262278,0.71076627,20030.89109,2.155036591,-1.437372939,-0.061417278,4.331790447,-2.223199606,0.715199411,-0.01988115,-0.265419215,0.167597622,-0.568689796,0.331968953,-0.672201497,-0.338428246,-0.989243627,0.061378673,-0.132777065,-26.46866989,-10.07244205,-25.17314529,2
1190.412625,119.0412625,20030.91237,1478281986,37.35291657,-122.0347936,48.4447,0,-1,12,10,1478281987,-33.76431274,-8.943847656,-26.82202911,245.9785156,232.5198517,10,20030.91237,-1.108688354,-0.258529663,0.137908936,20030.9011,3.829467988,-1.803924389,0.942771809,20030.9011,2.196026438,-1.454578312,-0.064941347,3.905943871,-1.881861448,0.947204888,-0.060124233,-0.31727609,0.205662698,-0.580561395,0.324179573,-0.674517255,-0.320753089,-0.991160572,0.064895712,-0.115712143,-28.43873024,-13.06709194,-21.35934448,2
1200.091625,120.0091625,20030.92205,1478281986,37.35291657,-122.0347936,48.4447,0,-1,12,10,1478281987,-33.76431274,-8.943847656,-26.82202911,245.9785156,232.5198517,10,20030.92205,-1.168685913,-0.235519409,0.196044922,20030.9011,3.829467988,-1.803924389,0.942771809,20030.9011,2.196026438,-1.454578312,-0.064941347,3.905943871,-1.881861448,0.947204888,-0.060124233,-0.31727609,0.205662698,-0.580561395,0.324179573,-0.674517255,-0.320753089,-0.991160572,0.064895712,-0.115712143,-28.43873024,-13.06709194,-21.35934448,2
1209.758625,120.9758625,20030.93172,1478281986,37.35291657,-122.0347936,48.4447,0,-1,12,10,1478281987,-36.5233078,-10.44557953,-23.03453064,236.666687,223.2080078,10,20030.93172,-1.230163574,-0.182022095,0.258132935,20030.92106,2.783283504,-1.195806467,1.359108576,20030.92106,2.263719511,-1.479600328,-0.082792158,2.859759092,-1.27374351,1.363541603,-0.176252469,-0.318217009,0.28680262,-0.596721724,0.313917718,-0.679870307,-0.288366461,-0.992433429,0.082697608,-0.090757698,-28.43873024,-13.06709194,-21.35934448,2
1219.384625,121.9384625,20030.94134,1478281986,37.35291657,-122.0347936,48.4447,0,-1,12,10,1478281987,-36.5233078,-10.44557953,-23.03453064,236.666687,223.2080078,10,20030.94134,-1.290130615,-0.105834961,0.305145264,20030.93107,2.205643064,-0.864582465,1.374331205,20030.93107,2.289162224,-1.487614359,-0.094460634,2.28211832,-0.942519128,1.378764272,-0.238063872,-0.276342303,0.340848595,-0.601468091,0.311252792,-0.682529641,-0.274792876,-0.992099702,0.094320223,-0.082715668,-29.8380661,-13.96790123,-18.71682167,2
1229.062625,122.9062625,20030.95102,1478281986,37.35291657,-122.0347936,48.4447,0,-1,12,10,1478281987,-36.5233078,-10.44557953,-23.03453064,236.666687,223.2080078,10,20030.95102,-1.337600708,-0.032775879,0.341903687,20030.93107,2.205643064,-0.864582465,1.374331205,20030.93107,2.289162224,-1.487614359,-0.094460634,2.28211832,-0.942519128,1.378764272,-0.238063872,-0.276342303,0.340848595,-0.601468091,0.311252792,-0.682529641,-0.274792876,-0.992099702,0.094320223,-0.082715668,-29.8380661,-13.96790123,-18.71682167,2
1238.733625,123.8733625,20030.96069,1478281986,37.35291657,-122.0347936,48.4447,0,-1,12,10,1478281987,-36.5233078,-10.44557953,-23.03453064,236.666687,223.2080078,10,20030.96069,-1.344421387,0.026931763,0.347686768,20030.95105,1.088812373,-0.134715471,1.061682484,20030.95105,2.322737174,-1.494043302,-0.116015486,1.165287614,-0.212651953,1.066115499,-0.347247243,-0.148531288,0.418065935,-0.605316782,0.309047686,-0.687622379,-0.255453683,-0.990353465,0.115755409,-0.076162241,-29.8380661,-13.96790123,-18.71682167,2
1248.419625,124.8419625,20030.97038,1478281986,37.35291657,-122.0347936,48.4447,0,-1,12,10,1478281987,-38.79336929,-11.87746429,-19.71628571,229.5211792,216.0625153,10,20030.97038,-1.327758789,0.0050354,0.361816406,20030.96105,0.574932005,0.274396406,0.862020237,20030.96105,2.331251596,-1.492061849,-0.124517707,0.651406944,0.196460217,0.86645329,-0.355237693,-0.097264424,0.425730973,-0.60455662,0.309013258,-0.690267177,-0.250106624,-0.989183724,0.124196187,-0.078044198,-30.60346413,-13.7445507,-17.61383247,2
1258.081625,125.8081625,20030.98004,1478281986,37.35291657,-122.0347936,48.4447,0,-1,12,10,1478281987,-38.79336929,-11.87746429,-19.71628571,229.5211792,216.0625153,10,20030.98004,-1.359405518,-0.062240601,0.409957886,20030.98102,-0.356407653,1.190832215,0.713474172,20030.98102,2.333833966,-1.477000586,-0.139083439,-0.279932827,1.112896204,0.71790719,-0.341768473,-0.133600056,0.454570264,-0.597328701,0.311161524,-0.696721998,-0.246891447,-0.985990345,0.138635457,-0.092753857,-30.60346413,-13.7445507,-17.61383247,2
1267.755625,126.7755625,20030.98972,1478281986,37.35291657,-122.0347936,48.4447,0,-1,12,10,1478281987,-38.79336929,-11.87746429,-19.71628571,229.5211792,216.0625153,10,20030.98972,-1.340576172,-0.023590088,0.435928345,20030.98102,-0.356407653,1.190832215,0.713474172,20030.98102,2.333833966,-1.477000586,-0.139083439,-0.279932827,1.112896204,0.71790719,-0.341768473,-0.133600056,0.454570264,-0.597328701,0.311161524,-0.696721998,-0.246891447,-0.985990345,0.138635457,-0.092753857,-30.60346413,-13.7445507,-17.61383247,2
1277.451625,127.7451625,20030.99941,1478281986,37.35291657,-122.0347936,48.4447,0,-1,12,10,1478281987,-39.84108734,-12.29656219,-17.97336578,223.6642151,210.2055511,10,20030.99941,-1.291992188,0.074325562,0.414520264,20030.99102,-0.80891361,1.700472564,0.794514963,20030.99102,2.328359768,-1.462797397,-0.147429359,-0.732439101,1.622536898,0.79894799,-0.357187212,-0.170485958,0.54254818,-0.590108399,0.313786828,-0.701157324,-0.248371316,-0.98338896,0.146895871,-0.106619805,-30.60346413,-13.7445507,-17.61383247,2
1287.104625,128.7104625,20031.00906,1478281987,37.35291657,-122.0347936,44.76495,0,-1,12,10,1478281987,-40.08555603,-11.70285034,-17.5376358,220.9049377,207.4462585,10,20031.00906,-1.290725708,0.096206665,0.335708618,20031.01101,-1.517611935,1.997165754,1.02187302,20031.01101,2.306857837,-1.428006022,-0.169001269,-1.441137671,1.919230103,1.026306033,-0.316271186,-0.093872368,0.554798424,-0.570658588,0.32281525,-0.710811819,-0.254726614,-0.975721002,0.16819793,-0.140278175,-30.2923584,-12.67508888,-18.90626907,2
1296.803625,129.6803625,20031.01876,1478281987,37.35291657,-122.0347936,44.76495,0,-1,12,10,1478281987,-40.08555603,-11.70285034,-17.5376358,220.9049377,207.4462585,10,20031.01876,-1.305603027,0.091690063,0.268814087,20031.01101,-1.517611935,1.997165754,1.02187302,20031.01101,2.306857837,-1.428006022,-0.169001269,-1.441137671,1.919230103,1.026306033,-0.316271186,-0.093872368,0.554798424,-0.570658588,0.32281525,-0.710811819,-0.254726614,-0.975721002,0.16819793,-0.140278175,-30.2923584,-12.67508888,-18.90626907,2
1306.482625,130.6482625,20031.02844,1478281987,37.35291657,-122.0347936,44.76495,0,-1,12,10,1478281987,-40.08555603,-11.70285034,-17.5376358,220.9049377,207.4462585,10,20031.02844,-1.339157104,0.115692139,0.220352173,20031.021,-1.778567633,1.794218232,1.08715562,20031.021,2.292034369,-1.412900777,-0.182149729,-1.702093601,1.716282964,1.091588616,-0.334380299,-0.089454092,0.423453063,-0.560486167,0.329447663,-0.714528363,-0.258396425,-0.971222699,0.181144148,-0.154638991,-29.78240967,-11.54719639,-20.38141632,2
1316.161625,131.6161625,20031.03812,1478281987,37.35291657,-122.0347936,44.76495,0,-1,12,10,1478281987,-40.08555603,-11.70285034,-17.5376358,220.9049377,207.4462585,10,20031.03812,-1.356719971,0.178314209,0.14050293,20031.04096,-1.977492983,1.436253162,0.795357054,20031.04096,2.258083166,-1.389791649,-0.207275061,-1.901018977,1.35831809,0.799790025,-0.376548767,-0.090101913,0.396516889,-0.54175932,0.344114062,-0.718977042,-0.266747756,-0.962608337,0.205794051,-0.176164702,-29.78240967,-11.54719639,-20.38141632,2
1325.829625,132.5829625,20031.04779,1478281987,37.35291657,-122.0347936,44.76495,0,-1,12,10,1478281987,-40.08555603,-11.70285034,-17.5376358,220.9049377,207.4462585,10,20031.04779,-1.348892212,0.217666626,0.044403076,20031.04096,-1.977492983,1.436253162,0.795357054,20031.04096,2.258083166,-1.389791649,-0.207275061,-1.901018977,1.35831809,0.799790025,-0.376548767,-0.090101913,0.396516889,-0.54175932,0.344114062,-0.718977042,-0.266747756,-0.962608337,0.205794051,-0.176164702,-29.78240967,-11.54719639,-20.38141632,2
1335.514625,133.5514625,20031.05747,1478281987,37.35291657,-122.0347936,44.76495,0,-1,12,10,1478281987,-40.22525406,-10.37574768,-18.67724609,219.3493042,205.890625,10,20031.05747,-1.350830078,0.209396362,-0.039550781,20031.05097,-1.940740561,1.229701051,0.48794038,20031.05097,2.240285221,-1.381469388,-0.216333579,-1.864266992,1.1517663,0.492373317,-0.389653563,0.003016513,0.228214279,-0.53390264,0.35077396,-0.719727732,-0.271841116,-0.959238648,0.214650109,-0.183811203,-29.78240967,-11.54719639,-20.38141632,2
1345.190625,134.5190625,20031.06715,1478281987,37.35291657,-122.0347936,44.76495,0,-1,12,10,1478281987,-40.22525406,-10.37574768,-18.67724609,219.3493042,205.890625,10,20031.06715,-1.388458252,0.131439209,-0.135803223,20031.06096,-1.825799061,0.954623675,0.216112327,20031.06096,2.222932767,-1.375751214,-0.222508892,-1.749325514,0.876689017,0.220545277,-0.393976837,-0.011280992,0.149481967,-0.527542434,0.356626704,-0.719486668,-0.277227901,-0.956853271,0.220677361,-0.189032748,-28.92152596,-9.014968872,-22.75977707,2
1354.869625,135.4869625,20031.07683,1478281987,37.35291657,-122.0347936,44.76495,0,-1,12,10,1478281987,-40.22525406,-10.37574768,-18.67724609,219.3493042,205.890625,10,20031.07683,-1.239257813,0.201690674,-0.075302124,20031.07095,-1.746298909,0.554664017,0.247298742,20031.07095,2.206426443,-1.373771905,-0.228014552,-1.669825554,0.476729482,0.251731694,-0.433187008,-0.094604701,0.054882336,-0.522742727,0.362487602,-0.718261267,-0.281857291,-0.955271244,0.22604391,-0.190685555,-28.92152596,-9.014968872,-22.75977707,2
1364.547625,136.4547625,20031.08651,1478281987,37.35291657,-122.0347936,44.76495,0,-1,12,10,1478281987,-39.66646957,-8.83908844,-20.42016602,221.5427856,208.0841064,10,20031.08651,-1.209106445,0.270751953,-0.163284302,20031.07095,-1.746298909,0.554664017,0.247298742,20031.07095,2.206426443,-1.373771905,-0.228014552,-1.669825554,0.476729482,0.251731694,-0.433187008,-0.094604701,0.054882336,-0.522742727,0.362487602,-0.718261267,-0.281857291,-0.955271244,0.22604391,-0.190685555,-28.92152596,-9.014968872,-22.75977707,2
1374.201625,137.4201625,20031.09616,1478281987,37.35291657,-122.0347936,44.76495,0,-1,12,10,1478281987,-39.66646957,-8.83908844,-20.42016602,221.5427856,208.0841064,10,20031.09616,-1.262832642,0.268676758,-0.264648438,20031.09094,-1.378868166,0.039834765,0.040252348,20031.09094,2.177735333,-1.376636205,-0.236734543,-1.302394986,-0.038099535,0.044685278,-0.255263299,0.03622245,0.024276845,-0.516676579,0.373181912,-0.714331392,-0.288983107,-0.953843117,0.234529495,-0.187561154,-28.68574142,-8.105823517,-23.39136124,2
1383.898625,138.3898625,20031.10586,1478281987,37.35291657,-122.0347936,44.76495,0,-1,12,10,1478281987,-39.66646957,-8.83908844,-20.42016602,221.5427856,208.0841064,10,20031.10586,-1.274475098,0.268234253,-0.307876587,20031.10093,-1.161447162,-0.322917071,-0.063805345,20031.10093,2.166167901,-1.382490496,-0.238519953,-1.084974289,-0.40085113,-0.059372425,-0.308320671,0.032412019,-0.082753226,-0.516213767,0.377592028,-0.711331743,-0.291469996,-0.954512,0.236264735,-0.181895211,-28.68574142,-8.105823517,-23.39136124,2
1393.579625,139.3579625,20031.11554,1478281987,37.35291657,-122.0347936,44.76495,0,-1,12,10,1478281987,-39.24738312,-7.372276306,-21.89494324,224.9191895,211.4605103,10,20031.11554,-1.223480225,0.277114868,-0.335357666,20031.10093,-1.161447162,-0.322917071,-0.063805345,20031.10093,2.166167901,-1.382490496,-0.238519953,-1.084974289,-0.40085113,-0.059372425,-0.308320671,0.032412019,-0.082753226,-0.516213767,0.377592028,-0.711331743,-0.291469996,-0.954512,0.236264735,-0.181895211,-28.68574142,-8.105823517,-23.39136124,2
1403.252625,140.3252625,20031.12521,1478281987,37.35291657,-122.0347936,44.76495,0,-1,12,10,1478281987,-39.24738312,-7.372276306,-21.89494324,224.9191895,211.4605103,10,20031.12521,-1.136444092,0.244110107,-0.349472046,20031.12091,-0.620104543,-0.613062612,-0.252621868,20031.12091,2.149807018,-1.399448592,-0.238043351,-0.543631852,-0.690996468,-0.248188958,-0.265910208,0.041313265,-0.169655353,-0.519202313,0.384158563,-0.704494074,-0.294175555,-0.957570016,0.235801607,-0.165702313,-28.78874016,-7.198138714,-23.56113434,2
1412.928625,141.2928625,20031.13489,1478281987,37.35291657,-122.0347936,44.76495,0,-1,12,10,1478281987,-39.24738312,-7.372276306,-21.89494324,224.9191895,211.4605103,10,20031.13489,-1.157562256,0.273040771,-0.222885132,20031.1309,-0.164135944,-0.37543008,-0.366714086,20031.1309,2.147195233,-1.405356302,-0.23508959,-0.087663502,-0.453363687,-0.362281203,-0.177229062,0.011179996,-0.189315632,-0.521410564,0.38477632,-0.702238911,-0.294853726,-0.959215045,0.232930109,-0.160156414,-28.78874016,-7.198138714,-23.56113434,2
1422.615625,142.2615625,20031.14458,1478281987,37.35291657,-122.0347936,44.76495,0,-1,12,10,1478281987,-39.14260864,-6.429336548,-22.66584015,227.9963074,214.5376434,10,20031.14458,-1.12928772,0.296401978,-0.219696045,20031.14089,0.317434953,0.017993115,-0.462164177,20031.14089,2.149209695,-1.406479762,-0.230346296,0.393907219,-0.059940331,-0.457731277,-0.197088718,0.044726085,-0.063627519,-0.523204391,0.382920825,-0.70170177,-0.295369993,-0.960473537,0.228314683,-0.159257621,-28.78874016,-7.198138714,-23.56113434,2
1432.277625,143.2277625,20031.15424,1478281987,37.35291657,-122.0347936,44.76495,0,-1,12,10,1478281987,-39.14260864,-6.429336548,-22.66584015,227.9963074,214.5376434,10,20031.15424,-1.054016113,0.297729492,-0.264526367,20031.15088,0.735340855,0.33341392,-0.50500352,20031.15088,2.155632541,-1.403194776,-0.2243135,0.811813116,0.255480498,-0.500570655,-0.16800192,0.073964864,-0.05705734,-0.524554458,0.378844649,-0.702821904,-0.295568475,-0.96128577,0.222437114,-0.162638709,-29.08588219,-7.412281036,-23.12577248,2
1441.950625,144.1950625,20031.16391,1478281987,37.35291657,-122.0347936,44.76495,0,-1,12,10,1478281987,-39.1775322,-6.324562073,-23.0345459,228.8888855,215.4302063,10,20031.16391,-0.975280762,0.294067383,-0.285507202,20031.16087,0.95491822,0.510146883,-0.532106244,20031.16087,2.164708434,-1.39720572,-0.217501006,1.03139019,0.432213724,-0.527673364,-0.092251323,0.08193931,-0.095875598,-0.52558699,0.373407192,-0.70496086,-0.295559758,-0.961764812,0.215790182,-0.168650776,-29.08588219,-7.412281036,-23.12577248,2
1451.630625,145.1630625,20031.17359,1478281987,37.35291657,-122.0347936,44.76495,0,-1,12,10,1478281987,-39.1775322,-6.324562073,-23.0345459,228.8888855,215.4302063,10,20031.17359,-0.933898926,0.271438599,-0.396026611,20031.17087,0.977173725,0.408220517,-0.572637958,20031.17087,2.174375105,-1.391372335,-0.210156673,1.053645611,0.330287516,-0.568205118,-0.012982665,0.085454255,-0.110970855,-0.526848652,0.367644291,-0.707094586,-0.295441059,-0.962298095,0.208613127,-0.174536347,-29.08588219,-7.412281036,-23.12577248,2
1461.298625,146.1298625,20031.18326,1478281987,37.35291657,-122.0347936,44.76495,0,-1,12,10,1478281987,-39.1775322,-6.324562073,-23.0345459,228.8888855,215.4302063,10,20031.18326,-0.876571655,0.350845337,-0.366317749,20031.19083,1.089432357,0.014236727,-0.595846608,20031.19083,2.193539469,-1.388504123,-0.194750773,1.165904164,-0.06369625,-0.591413736,0.030940969,0.07791657,-0.218169346,-0.532460224,0.3571519,-0.708946995,-0.2938074,-0.964839876,0.193522021,-0.177857265,-28.73392487,-8.565998077,-23.16715622,2
1470.989625,147.0989625,20031.19295,1478281987,37.35291657,-122.0347936,44.76495,0,-1,12,10,1478281987,-39.1775322,-6.324562073,-23.0345459,228.8888855,215.4302063,10,20031.19295,-0.923110962,0.390731812,-0.232315063,20031.19083,1.089432357,0.014236727,-0.595846608,20031.19083,2.193539469,-1.388504123,-0.194750773,1.165904164,-0.06369625,-0.591413736,0.030940969,0.07791657,-0.218169346,-0.532460224,0.3571519,-0.708946995,-0.2938074,-0.964839876,0.193522021,-0.177857265,-28.73392487,-8.565998077,-23.16715622,2
1480.668625,148.0668625,20031.20263,1478281987,37.35291657,-122.0347936,44.76495,0,-1,12,10,1478281987,-39.1775322,-6.324562073,-23.0345459,228.8888855,215.4302063,10,20031.20263,-0.952758789,0.341171265,-0.321884155,20031.20084,1.282140291,-0.02948359,-0.505590747,20031.20084,2.205773327,-1.386951476,-0.187193433,1.358611584,-0.107416101,-0.50115788,0.042861927,0.204629719,-0.052697722,-0.535593191,0.351185512,-0.710308603,-0.292010888,-0.9659729,0.186102092,-0.179617345,-28.73392487,-8.565998077,-23.16715622,2
1490.346625,149.0346625,20031.21231,1478281987,37.35291657,-122.0347936,44.76495,0,-1,12,10,1478281987,-38.93306351,-6.918266296,-22.59881592,229.1260986,215.6674194,10,20031.21231,-0.856628418,0.34979248,-0.331954956,20031.21081,1.314111007,-0.097359044,-0.523363086,20031.21081,2.218696545,-1.386253945,-0.179688975,1.390582323,-0.175291553,-0.518930197,0.014434248,0.162447706,-0.141341865,-0.539079179,0.34514127,-0.711541908,-0.289791744,-0.967193007,0.178723559,-0.18054229,-28.65285873,-9.873971939,-22.74313736,2
1500.040625,150.0040625,20031.222,1478281987,37.35291657,-122.0347936,44.76495,0,-1,12,10,1478281987,-38.93306351,-6.918266296,-22.59881592,229.1260986,215.6674194,10,20031.222,-0.789886475,0.307296753,-0.258209229,20031.2208,1.400154546,-0.131732731,-0.59739417,20031.2208,2.232058035,-1.386013925,-0.171373665,1.476625681,-0.209664926,-0.592961371,0.111948647,0.179256424,-0.15091373,-0.542896049,0.338737756,-0.712616653,-0.287572805,-0.968577087,0.170536056,-0.181041226,-28.65285873,-9.873971939,-22.74313736,2
1509.718625,150.9718625,20031.23168,1478281987,37.35291657,-122.0347936,44.76495,0,-1,12,10,1478281987,-38.93306351,-6.918266296,-22.59881592,229.1260986,215.6674194,10,20031.23168,-0.792617798,0.16305542,-0.13482666,20031.2208,1.400154546,-0.131732731,-0.59739417,20031.2208,2.232058035,-1.386013925,-0.171373665,1.476625681,-0.209664926,-0.592961371,0.111948647,0.179256424,-0.15091373,-0.542896049,0.338737756,-0.712616653,-0.287572805,-0.968577087,0.170536056,-0.181041226,-28.65285873,-9.873971939,-22.74313736,2
1519.395625,151.9395625,20031.24136,1478281987,37.35291657,-122.0347936,44.76495,0,-1,12,10,1478281987,-38.51397324,-9.223243713,-21.59328461,226.616333,213.1576691,10,20031.24136,-0.765563965,0.114974976,-0.121505737,20031.23081,1.594620966,0.204575247,-0.518261801,20031.23081,2.247149429,-1.383210343,-0.162983015,1.671091795,0.12664327,-0.513828993,0.176819608,0.000793013,0.049189709,-0.54602807,0.331428969,-0.71462034,-0.285177059,-0.96943742,0.16226241,-0.184016377,-28.61058617,-10.85588646,-22.34537888,2
1529.073625,152.9073625,20031.25103,1478281987,37.35291657,-122.0347936,44.76495,0,-1,12,10,1478281987,-38.51397324,-9.223243713,-21.59328461,226.616333,213.1576691,10,20031.25103,-0.761123657,0.137161255,-0.075271606,20031.23081,1.594620966,0.204575247,-0.518261801,20031.23081,2.247149429,-1.383210343,-0.162983015,1.671091795,0.12664327,-0.513828993,0.176819608,0.000793013,0.049189709,-0.54602807,0.331428969,-0.71462034,-0.285177059,-0.96943742,0.16226241,-0.184016377,-28.61058617,-10.85588646,-22.34537888,2
1538.721625,153.8721625,20031.26068,1478281987,37.35291657,-122.0347936,44.76495,0,-1,12,10,1478281987,-38.51397324,-9.223243713,-21.59328461,226.616333,213.1576691,10,20031.26068,-0.731018066,0.192901611,-0.053787231,20031.25077,1.673806332,0.953558677,-0.027130954,20031.25077,2.281599838,-1.366141849,-0.152324612,1.750277042,0.875626862,-0.022698166,0.206670269,-0.014574981,0.125604078,-0.547454483,0.315999605,-0.72300604,-0.278747385,-0.967793941,0.15173623,-0.200875685,-28.61058617,-10.85588646,-22.34537888,2
1548.429625,154.8429625,20031.27039,1478281987,37.35291657,-122.0347936,44.76495,0,-1,12,10,1478281987,-38.51397324,-9.223243713,-21.59328461,226.616333,213.1576691,10,20031.27039,-0.676818848,0.269439697,-0.093475342,20031.26079,1.446962532,1.301690024,0.105606854,20031.26079,2.297527383,-1.35230456,-0.149812949,1.523432851,1.223758459,0.110039622,0.234272718,0.043648433,0.160542369,-0.54537729,0.308866982,-0.728736952,-0.275875429,-0.965290785,0.149253175,-0.2143296,-28.15004921,-12.18864727,-22.24282837,2
1558.107625,155.8107625,20031.28007,1478281987,37.35291657,-122.0347936,44.76495,0,-1,12,10,1478281987,-38.51397324,-9.223243713,-21.59328461,226.616333,213.1576691,10,20031.28007,-0.722213745,0.220947266,-0.035949707,20031.26079,1.446962532,1.301690024,0.105606854,20031.26079,2.297527383,-1.35230456,-0.149812949,1.523432851,1.223758459,0.110039622,0.234272718,0.043648433,0.160542369,-0.54537729,0.308866982,-0.728736952,-0.275875429,-0.965290785,0.149253175,-0.2143296,-28.15004921,-12.18864727,-22.24282837,2
1567.774625,156.7774625,20031.28973,1478281987,37.35291657,-122.0347936,44.76495,0,-1,12,10,1478281987,-38.51397324,-9.223243713,-21.59328461,226.616333,213.1576691,10,20031.28973,-0.761123657,0.131072998,-0.084075928,20031.28077,0.762022533,0.994390795,0.118703481,20031.28077,2.319076173,-1.326999891,-0.147053022,0.838492811,0.916459441,0.123136237,0.237741143,0.074423663,0.202833563,-0.539863647,0.298589368,-0.738285313,-0.272628737,-0.959954917,0.146523595,-0.23878327,-28.15004921,-12.18864727,-22.24282837,2
1577.464625,157.7464625,20031.29942,1478281987,37.35291657,-122.0347936,44.76495,0,-1,12,10,1478281987,-37.85041809,-10.23603821,-21.62680817,223.4885254,210.0298462,10,20031.29942,-0.787460327,0.141281128,-0.1277771,20031.29076,0.542402024,0.562414082,0.282024498,20031.29076,2.326240617,-1.319980295,-0.147719734,0.618871927,0.484483033,0.286457241,0.197036594,-0.016110087,0.161415592,-0.538213881,0.295939282,-0.7412142,-0.270827009,-0.958160222,0.14718309,-0.24549152,-27.48225784,-12.81852055,-22.71878052,2
1587.136625,158.7136625,20031.3091,1478281987,37.35291657,-122.0347936,44.76495,0,-1,12,10,1478281987,-37.85041809,-10.23603821,-21.62680817,223.4885254,210.0298462,10,20031.3091,-0.839767456,0.212692261,-0.116210938,20031.29076,0.542402024,0.562414082,0.282024498,20031.29076,2.326240617,-1.319980295,-0.147719734,0.618871927,0.484483033,0.286457241,0.197036594,-0.016110087,0.161415592,-0.538213881,0.295939282,-0.7412142,-0.270827009,-0.958160222,0.14718309,-0.24549152,-27.48225784,-12.81852055,-22.71878052,2
1596.794625,159.6794625,20031.31875,1478281987,37.35291657,-122.0347936,44.76495,0,-1,12,10,1478281987,-37.85041809,-10.23603821,-21.62680817,223.4885254,210.0298462,10,20031.31875,-0.869430542,0.214004517,-0.161239624,20031.31074,0.320748192,0.065078336,0.631515922,20031.31074,2.33755714,-1.31612219,-0.155660681,0.397217959,-0.012852542,0.635948658,0.116277285,0.057659436,0.132673129,-0.53705105,0.295184922,-0.744503155,-0.264871826,-0.956044734,0.155032828,-0.248884067,-27.48225784,-12.81852055,-22.71878052,2
1606.499625,160.6499625,20031.32846,1478281987,37.35291657,-122.0347936,44.76495,0,-1,12,10,1478281987,-37.50117874,-10.8646698,-21.9619751,222.1469727,208.6883087,10,20031.32846,-0.879379272,0.191360474,-0.188980103,20031.32074,0.36489568,-0.07963331,0.675955026,20031.32074,2.34345709,-1.316337629,-0.161111462,0.441404074,-0.157568514,0.680380046,0.085835755,0.053589143,0.087222055,-0.537043117,0.295556851,-0.745711877,-0.261045274,-0.955266297,0.160415366,-0.248461679,-27.58184052,-12.71676445,-22.65519333,2
1616.179625,161.6179625,20031.33814,1478281987,37.35291657,-122.0347936,44.76495,0,-1,12,10,1478281987,-37.50117874,-10.8646698,-21.9619751,222.1469727,208.6883087,10,20031.33814,-0.834396362,0.168792725,-0.288726807,20031.34072,0.807798278,-0.161099941,0.653671025,20031.34072,2.359144727,-1.319197923,-0.170602957,0.88430655,-0.239034981,0.658096075,0.075076111,0.021583891,0.056358106,-0.538765855,0.295063127,-0.747782366,-0.251973488,-0.954455376,0.169776589,-0.245338216,-27.58184052,-12.71676445,-22.65519333,2
1625.849625,162.5849625,20031.34781,1478281987,37.35291657,-122.0347936,44.76495,0,-1,12,10,1478281987,-37.08209229,-11.28375244,-21.9619751,219.8127747,206.3541107,10,20031.34781,-0.863769531,0.173294067,-0.35748291,20031.34072,0.807798278,-0.161099941,0.653671025,20031.34072,2.359144727,-1.319197923,-0.170602957,0.88430655,-0.239034981,0.658096075,0.075076111,0.021583891,0.056358106,-0.538765855,0.295063127,-0.747782366,-0.251973488,-0.954455376,0.169776589,-0.245338216,-27.58184052,-12.71676445,-22.65519333,2
1635.534625,163.5534625,20031.35749,1478281987,37.35291657,-122.0347936,44.76495,0,-1,12,10,1478281987,-37.08209229,-11.28375244,-21.9619751,219.8127747,206.3541107,10,20031.35749,-1.010696411,0.256515503,-0.190795898,20031.35071,1.36937666,-0.136288068,0.678332163,20031.35071,2.373940708,-1.31890419,-0.174017949,1.445884585,-0.214222789,0.682757199,0.090046689,0.000153065,-0.112010293,-0.540236928,0.292246049,-0.74998805,-0.24546738,-0.953816235,0.173141003,-0.245472625,-28.00080299,-12.62861824,-22.18569374,2
1645.212625,164.5212625,20031.36717,1478281987,37.35291657,-122.0347936,44.76495,0,-1,12,10,1478281987,-37.08209229,-11.28375244,-21.9619751,219.8127747,206.3541107,10,20031.36717,-0.951416016,0.238693237,-0.294998169,20031.3607,1.700634218,-0.002371545,0.579242064,20031.3607,2.392245774,-1.316720608,-0.175599855,1.777142048,-0.08030612,0.583667099,-0.057684764,0.081816703,0.056689717,-0.541800079,0.287593233,-0.752921125,-0.238437803,-0.953011632,0.1746988,-0.247485608,-28.00080299,-12.62861824,-22.18569374,2
1654.889625,165.4889625,20031.37685,1478281987,37.35291657,-122.0347936,44.76495,0,-1,12,10,1478281987,-37.08209229,-11.28375244,-21.9619751,219.8127747,206.3541107,10,20031.37685,-0.932037354,0.235717773,-0.190292358,20031.37069,1.809370287,-0.200673982,0.529178098,20031.37069,2.412026604,-1.315479811,-0.176195328,1.885877967,-0.278608471,0.533603132,0.001186994,0.063408151,-0.046356566,-0.544050626,0.282290836,-0.755625594,-0.23097784,-0.952602983,0.175285086,-0.248641595,-28.00080299,-12.62861824,-22.18569374,2
1664.545625,166.4545625,20031.38651,1478281987,37.35291657,-122.0347936,44.76495,0,-1,12,10,1478281987,-37.01224518,-11.28375244,-21.9619751,218.1790771,204.7203979,10,20031.38651,-0.938644409,0.173095703,-0.154403687,20031.37069,1.809370287,-0.200673982,0.529178098,20031.37069,2.412026604,-1.315479811,-0.176195328,1.885877967,-0.278608471,0.533603132,0.001186994,0.063408151,-0.046356566,-0.544050626,0.282290836,-0.755625594,-0.23097784,-0.952602983,0.175285086,-0.248641595,-28.00080299,-12.62861824,-22.18569374,2
1674.246625,167.4246625,20031.39621,1478281987,37.35291657,-122.0347936,44.76495,0,-1,12,10,1478281987,-37.01224518,-11.28375244,-21.9619751,218.1790771,204.7203979,10,20031.39621,-0.916168213,0.153152466,-0.161071777,20031.39068,1.652234728,-0.330328648,0.473466899,20031.39068,2.449973668,-1.316146473,-0.176015755,1.728742123,-0.408262908,0.477891922,0.014154594,-0.002012585,0.093610719,-0.54959022,0.271925332,-0.759675982,-0.216563169,-0.952799022,0.175108284,-0.248014405,-28.35366058,-13.2803936,-21.34087753,2
1683.924625,168.3924625,20031.40588,1478281987,37.35291657,-122.0347936,44.76495,0,-1,12,10,1478281987,-37.60595322,-11.52822113,-21.05699158,214.8838196,201.4251556,10,20031.40588,-0.909896851,0.158126831,-0.102279663,20031.40067,1.488517432,-0.410159032,0.573058471,20031.40067,2.467160123,-1.317846577,-0.177323039,1.565024614,-0.488093048,0.577483475,0.036828618,-0.023242759,0.085264914,-0.552350098,0.267845148,-0.761128334,-0.209408706,-0.95299685,0.176395223,-0.246336699,-28.35366058,-13.2803936,-21.34087753,2
1693.603625,169.3603625,20031.41556,1478281987,37.35291657,-122.0347936,44.76495,0,-1,12,10,1478281987,-37.60595322,-11.52822113,-21.05699158,214.8838196,201.4251556,10,20031.41556,-0.931228638,0.184387207,-0.107574463,20031.40067,1.488517432,-0.410159032,0.573058471,20031.40067,2.467160123,-1.317846577,-0.177323039,1.565024614,-0.488093048,0.577483475,0.036828618,-0.023242759,0.085264914,-0.552350098,0.267845148,-0.761128334,-0.209408706,-0.95299685,0.176395223,-0.246336699,-28.35366058,-13.2803936,-21.34087753,2
1703.277625,170.3277625,20031.42524,1478281987,37.35291657,-122.0347936,44.76495,0,-1,12,10,1478281987,-37.60595322,-11.52822113,-21.05699158,214.8838196,201.4251556,10,20031.42524,-0.986251831,0.190841675,-0.172668457,20031.42065,1.228878401,-0.256699168,0.728400657,20031.42065,2.497877463,-1.32047288,-0.183732559,1.30538547,-0.334632963,0.732825637,0.021296909,0.001686635,0.135973454,-0.556436109,0.261925375,-0.763926138,-0.19542469,-0.952525556,0.182700574,-0.243547916,-28.83071899,-13.88431358,-20.29155731,2
1712.958625,171.2958625,20031.43492,1478281987,37.35291657,-122.0347936,44.76495,0,-1,12,10,1478281987,-37.60595322,-11.52822113,-21.05699158,214.8838196,201.4251556,10,20031.43492,-1.068374634,0.174102783,-0.184371948,20031.43064,1.190522489,-0.290548212,0.735542989,20031.43064,2.512317579,-1.321259675,-0.187762784,1.267029285,-0.368481755,0.739968002,-0.034256212,0.004180206,0.069946125,-0.5580144,0.259446794,-0.765338188,-0.188586182,-0.951995611,0.186661467,-0.242614582,-28.83071899,-13.88431358,-20.29155731,2
1722.632625,172.2632625,20031.44459,1478281987,37.35291657,-122.0347936,44.76495,0,-1,12,10,1478281988,-38.33935928,-11.28375244,-20.01794434,212.2425537,198.7838898,10,20031.44459,-1.067825317,0.189956665,-0.094482422,20031.44061,1.050189613,-0.444903697,0.630470099,20031.44061,2.525481853,-1.32367125,-0.191381896,1.126696229,-0.522837102,0.634895086,-0.116457961,-0.016112959,0.055779297,-0.560102738,0.25731168,-0.766094387,-0.182140089,-0.951916695,0.190215737,-0.240151241,-29.26531982,-14.0195179,-19.56338501,2
1732.293625,173.2293625,20031.45425,1478281987,37.35291657,-122.0347936,44.76495,0,-1,12,10,1478281988,-38.33935928,-11.28375244,-20.01794434,212.2425537,198.7838898,10,20031.45425,-0.942962646,0.071746826,-0.013748169,20031.45062,1.047978124,-0.251276439,0.465875292,20031.45062,2.53784109,-1.325148022,-0.193528878,1.124484777,-0.329209834,0.470300257,-0.115953356,-0.00236642,0.144162938,-0.561937418,0.254761969,-0.766908145,-0.176563231,-0.951871932,0.192323089,-0.23864536,-29.26531982,-14.0195179,-19.56338501,2
1741.996625,174.1996625,20031.46396,1478281987,37.35291657,-122.0347936,44.76495,0,-1,12,10,1478281988,-38.33935928,-11.28375244,-20.01794434,212.2425537,198.7838898,10,20031.46396,-0.887512207,0.048995972,0.122390747,20031.46061,0.525072835,-0.306506139,0.478263784,20031.46061,2.546412286,-1.327500779,-0.19615888,0.601579785,-0.384439588,0.482688516,0.008973945,-0.123156495,0.222534329,-0.563549114,0.253517541,-0.767135016,-0.17217758,-0.951936603,0.194903314,-0.236282498,-29.26531982,-14.0195179,-19.56338501,2
1751.673625,175.1673625,20031.47363,1478281987,37.35291657,-122.0347936,44.76495,0,-1,12,10,1478281988,-39.14261246,-11.38852692,-19.04593658,209.2537231,195.7950439,10,20031.47363,-0.871765137,0.086288452,0.11227417,20031.47061,0.033952907,-0.124601851,0.483421528,20031.47061,2.549742224,-1.329529874,-0.200392252,0.110459715,-0.202535152,0.487846255,0.064092129,-0.150057778,0.356541961,-0.564141657,0.25430019,-0.767069245,-0.169352819,-0.951604366,0.199053749,-0.234151214,-29.73901939,-14.12116814,-18.75939941,2
1761.348625,176.1348625,20031.48331,1478281987,37.35291657,-122.0347936,44.76495,0,-1,12,10,1478281988,-39.94586182,-11.35359955,-18.47613525,207.6509094,194.1922455,10,20031.48331,-0.858291626,0.14465332,-0.063201904,20031.4806,-0.255858408,0.108816762,0.42392358,20031.4806,2.549690446,-1.329659396,-0.204982489,-0.179351583,0.03088345,0.428348303,0.078972228,-0.117261566,0.346081465,-0.563523621,0.256002899,-0.767264358,-0.1679555,-0.950737357,0.203550011,-0.233807296,-29.73901939,-14.12116814,-18.75939941,2
1771.028625,177.1028625,20031.49299,1478281987,37.35291657,-122.0347936,44.76495,0,-1,12,10,1478281988,-39.94586182,-11.35359955,-18.47613525,207.6509094,194.1922455,10,20031.49299,-0.865524292,0.160842896,-0.188964844,20031.49059,-0.346230649,0.186340849,0.315832796,20031.49059,2.54793627,-1.329104105,-0.209027766,-0.26972416,0.108407855,0.320257485,0.091508508,-0.062855609,0.17093429,-0.562499409,0.257926966,-0.767478699,-0.167465045,-0.949800134,0.207508922,-0.234136194,-29.73901939,-14.12116814,-18.75939941,2
1780.705625,178.0705625,20031.50267,1478281987,37.35291657,-122.0347936,44.76495,0,-1,12,10,1478281988,-39.94586182,-11.35359955,-18.47613525,207.6509094,194.1922455,10,20031.50267,-0.795150757,0.113754272,-0.24810791,20031.49059,-0.346230649,0.186340849,0.315832796,20031.49059,2.54793627,-1.329104105,-0.209027766,-0.26972416,0.108407855,0.320257485,0.091508508,-0.062855609,0.17093429,-0.562499409,0.257926966,-0.767478699,-0.167465045,-0.949800134,0.207508922,-0.234136194,-29.73901939,-14.12116814,-18.75939941,2
1790.368625,179.0368625,20031.51233,1478281987,37.35291657,-122.0347936,44.76495,0,-1,12,10,1478281988,-39.94586182,-11.35359955,-18.47613525,207.6509094,194.1922455,10,20031.51233,-0.681472778,0.055496216,-0.220153809,20031.51057,-0.0208158,0.193522862,0.115116203,20031.51057,2.547375038,-1.32612191,-0.212648238,0.055690479,0.115590096,0.119540893,0.153211787,-0.097294949,-0.01132382,-0.56075461,0.259156751,-0.768450309,-0.166961575,-0.948362529,0.211049229,-0.236784086,-29.95609474,-13.65031242,-18.76254654,2
1800.061625,180.0061625,20031.52202,1478281987,37.35291657,-122.0347936,44.76495,0,-1,12,10,1478281988,-39.94586182,-11.35359955,-18.47613525,207.6509094,194.1922455,10,20031.52202,-0.654266357,0.032546997,-0.173934937,20031.52056,0.09890421,0.118541561,0.133547941,20031.52056,2.549130992,-1.325197372,-0.213564269,0.175410256,0.040609032,0.137972623,0.266482532,-0.15644832,0.017459873,-0.560493097,0.258922088,-0.768900896,-0.166127218,-0.94795531,0.211944535,-0.237613678,-29.95609474,-13.65031242,-18.76254654,2
1809.740625,180.9740625,20031.5317,1478281987,37.35291657,-122.0347936,44.76495,0,-1,12,10,1478281988,-40.22525406,-11.5631485,-17.60467529,205.909729,192.4510498,10,20031.5317,-0.644805908,0.007629395,-0.178512573,20031.52056,0.09890421,0.118541561,0.133547941,20031.52056,2.549130992,-1.325197372,-0.213564269,0.175410256,0.040609032,0.137972623,0.266482532,-0.15644832,0.017459873,-0.560493097,0.258922088,-0.768900896,-0.166127218,-0.94795531,0.211944535,-0.237613678,-29.95609474,-13.65031242,-18.76254654,2
1819.417625,181.9417625,20031.54138,1478281987,37.35291657,-122.0347936,44.76495,0,-1,12,10,1478281988,-40.22525406,-11.5631485,-17.60467529,205.909729,192.4510498,10,20031.54138,-0.671768188,0.012786865,-0.206451416,20031.53055,0.249869491,0.073602582,0.204585633,20031.53055,2.55243517,-1.324418619,-0.214682275,0.326375306,-0.004329715,0.209010288,0.30273366,-0.205407619,0.05978132,-0.560458145,0.258340321,-0.769446796,-0.164616447,-0.947539568,0.213037014,-0.238293886,-29.95821571,-13.56566715,-18.82046509,2
1829.096625,182.9096625,20031.55106,1478281987,37.35291657,-122.0347936,44.76495,0,-1,12,10,1478281988,-40.22525406,-11.5631485,-17.60467529,205.909729,192.4510498,10,20031.55106,-0.731216431,0.007400513,-0.204772949,20031.53055,0.249869491,0.073602582,0.204585633,20031.53055,2.55243517,-1.324418619,-0.214682275,0.326375306,-0.004329715,0.209010288,0.30273366,-0.205407619,0.05978132,-0.560458145,0.258340321,-0.769446796,-0.164616447,-0.947539568,0.213037014,-0.238293886,-29.95821571,-13.56566715,-18.82046509,2
1838.770625,183.8770625,20031.56073,1478281987,37.35291657,-122.0347936,44.76495,0,-1,12,10,1478281988,-40.5046463,-11.28375244,-17.60467529,205.1301575,191.6714783,10,20031.56073,-0.834197998,0.059173584,-0.183609009,20031.55051,0.659123581,-0.264578396,0.410326012,20031.55051,2.565883316,-1.324814582,-0.218380114,0.735629261,-0.342510551,0.414750665,0.215646893,-0.209247977,0.032952275,-0.56180582,0.255952355,-0.770594851,-0.158259877,-0.946863294,0.216648489,-0.237725228,-29.95821571,-13.56566715,-18.82046509,2
1848.452625,184.8452625,20031.57041,1478281987,37.35291657,-122.0347936,44.76495,0,-1,12,10,1478281988,-40.5046463,-11.28375244,-17.60467529,205.1301575,191.6714783,10,20031.57041,-0.882919312,0.077850342,-0.188552856,20031.56053,0.79834592,-0.553287962,0.447954348,20031.56053,2.575326033,-1.328434877,-0.220697742,0.874851286,-0.631219804,0.452378988,0.113029771,-0.159736916,0.050565608,-0.564074788,0.25442548,-0.770415454,-0.153451416,-0.947227776,0.2189105,-0.234174624,-30.20300293,-13.58927631,-18.40766335,2
1858.129625,185.8129625,20031.58009,1478281987,37.35291657,-122.0347936,44.76495,0,-1,12,10,1478281988,-40.78403473,-11.5631485,-17.40356445,203.8537598,190.3950806,10,20031.58009,-0.910217285,0.062332153,-0.176574707,20031.56053,0.79834592,-0.553287962,0.447954348,20031.56053,2.575326033,-1.328434877,-0.220697742,0.874851286,-0.631219804,0.452378988,0.113029771,-0.159736916,0.050565608,-0.564074788,0.25442548,-0.770415454,-0.153451416,-0.947227776,0.2189105,-0.234174624,-30.20300293,-13.58927631,-18.40766335,2
1867.785625,186.7785625,20031.58975,1478281987,37.35291657,-122.0347936,44.76495,0,-1,12,10,1478281988,-40.78403473,-11.5631485,-17.40356445,203.8537598,190.3950806,10,20031.58975,-0.886657715,0.009124756,-0.034194946,20031.58051,0.890332037,-0.881562247,0.435020174,20031.58051,2.597142864,-1.33993104,-0.224634541,0.966837227,-0.959493876,0.43944481,0.038793638,-0.160417944,0.046496265,-0.570701849,0.250527274,-0.768934151,-0.142392962,-0.949010909,0.222750098,-0.223070964,-30.20300293,-13.58927631,-18.40766335,2
1877.489625,187.7489625,20031.59945,1478281987,37.35291657,-122.0347936,44.76495,0,-1,12,10,1478281988,-40.78403473,-11.5631485,-17.40356445,203.8537598,190.3950806,10,20031.59945,-0.857940674,-0.00920105,0.054382324,20031.5905,0.564275632,-1.013520548,0.511709359,20031.5905,2.605560311,-1.348822587,-0.227793653,0.640780509,-1.091452003,0.516133964,0.063607946,-0.216703966,0.180273145,-0.574734688,0.249891957,-0.767102413,-0.13706909,-0.950265646,0.225828722,-0.214468092,-30.82794952,-13.68418598,-17.26593399,2
1887.140625,188.7140625,20031.6091,1478281987,37.35291657,-122.0347936,44.76495,0,-1,12,10,1478281988,-40.78403473,-11.5631485,-17.40356445,203.8537598,190.3950806,10,20031.6091,-0.83644104,0.014755249,0.060958862,20031.5905,0.564275632,-1.013520548,0.511709359,20031.5905,2.605560311,-1.348822587,-0.227793653,0.640780509,-1.091452003,0.516133964,0.063607946,-0.216703966,0.180273145,-0.574734688,0.249891957,-0.767102413,-0.13706909,-0.950265646,0.225828722,-0.214468092,-30.82794952,-13.68418598,-17.26593399,2
1896.845625,189.6845625,20031.61881,1478281987,37.35291657,-122.0347936,44.76495,0,-1,12,10,1478281988,-41.06342697,-11.14405823,-16.66617584,202.7571411,189.2984772,10,20031.61881,-0.846115112,0.080062866,0.043884277,20031.61048,-0.123091572,-0.574589256,0.93372585,20031.61048,2.612900173,-1.364464888,-0.241547899,-0.046586823,-0.652520478,0.938150465,0.113932692,-0.224450618,0.259881765,-0.579758703,0.253807777,-0.763596618,-0.127990874,-0.950373709,0.239205867,-0.198922917,-30.82794952,-13.68418598,-17.26593399,2
1906.520625,190.6520625,20031.62848,1478281987,37.35291657,-122.0347936,44.76495,0,-1,12,10,1478281988,-41.06342697,-11.14405823,-16.66617584,202.7571411,189.2984772,10,20031.62848,-0.818466187,0.225646973,0.012237549,20031.62048,-0.477227016,-0.212842231,1.201148769,20031.62048,2.612190772,-1.368464623,-0.253363265,-0.400722563,-0.290773124,1.20557332,0.102211677,-0.170598403,0.238422811,-0.579561184,0.258533499,-0.762814547,-0.124029152,-0.948326766,0.250661254,-0.194538534,-31.55897522,-13.07269859,-16.39717865,2
1916.192625,191.6192625,20031.63815,1478281987,37.35291657,-122.0347936,44.76495,0,-1,12,10,1478281988,-41.06342697,-11.14405823,-16.66617584,202.7571411,189.2984772,10,20031.63815,-0.742095947,0.268249512,-0.035522461,20031.62048,-0.477227016,-0.212842231,1.201148769,20031.62048,2.612190772,-1.368464623,-0.253363265,-0.400722563,-0.290773124,1.20557332,0.102211677,-0.170598403,0.238422811,-0.579561184,0.258533499,-0.762814547,-0.124029152,-0.948326766,0.250661254,-0.194538534,-31.55897522,-13.07269859,-16.39717865,2
1925.867625,192.5867625,20031.64783,1478281987,37.35291657,-122.0347936,44.76495,0,-1,12,10,1478281988,-41.62221527,-10.09633636,-16.26396179,199.8077393,186.3490601,10,20031.64783,-0.687026978,0.300125122,-0.114501953,20031.64046,-1.160300671,0.54914142,1.492965977,20031.64046,2.600660841,-1.367575963,-0.283984834,-1.083796382,0.471210659,1.497390509,0.198096573,-0.011933579,0.15821825,-0.573331625,0.272801201,-0.763372768,-0.118879649,-0.940192521,0.280183077,-0.193740711,-31.55897522,-13.07269859,-16.39717865,2
1935.541625,193.5541625,20031.6575,1478281987,37.35291657,-122.0347936,44.76495,0,-1,12,10,1478281988,-41.62221527,-10.09633636,-16.26396179,199.8077393,186.3490601,10,20031.6575,-0.698898315,0.391098022,-0.200271606,20031.65045,-1.335053041,0.711801707,1.743394199,20031.65045,2.591699156,-1.364146476,-0.302890145,-1.258549094,0.633871257,1.747818708,0.247143745,0.001845093,0.081340015,-0.567985387,0.281907107,-0.764380329,-0.116806232,-0.934170723,0.29828003,-0.195841968,-31.98049355,-11.32786369,-16.87185287,2
1945.220625,194.5220625,20031.66718,1478281987,37.35291657,-122.0347936,44.76495,0,-1,12,10,1478281988,-41.62221527,-10.09633636,-16.26396179,199.8077393,186.3490601,10,20031.66718,-0.780639648,0.426834106,-0.276504517,20031.65045,-1.335053041,0.711801707,1.743394199,20031.65045,2.591699156,-1.364146476,-0.302890145,-1.258549094,0.633871257,1.747818708,0.247143745,0.001845093,0.081340015,-0.567985387,0.281907107,-0.764380329,-0.116806232,-0.934170723,0.29828003,-0.195841968,-31.98049355,-11.32786369,-16.87185287,2
1954.899625,195.4899625,20031.67686,1478281987,37.35291657,-122.0347936,44.76495,0,-1,12,10,1478281988,-41.62221527,-10.09633636,-16.26396179,199.8077393,186.3490601,10,20031.67686,-1.221908569,0.445541382,-0.279418945,20031.67043,-1.16786032,0.357058529,2.164681783,20031.67043,2.574980818,-1.360362791,-0.347317858,-1.091356397,0.279128253,2.169106245,0.13890703,0.086457059,-0.080093287,-0.557229136,0.302142472,-0.765616182,-0.109715445,-0.919546664,0.340377033,-0.196411237,-31.98049355,-11.32786369,-16.87185287,2
1964.579625,196.4579625,20031.68654,1478281987,37.35291657,-122.0347936,44.76495,0,-1,12,10,1478281988,-42.25084686,-8.699378967,-15.99582672,197.451355,183.992691,10,20031.68654,-1.727554321,0.565658569,-0.22857666,20031.68042,-0.790251774,0.161935641,2.096432421,20031.68042,2.571455178,-1.360250034,-0.370423072,-0.713748217,0.084005602,2.100857019,-0.310319602,0.083531544,-0.084599964,-0.552922758,0.311234532,-0.765924968,-0.103771056,-0.911588967,0.362009853,-0.194818974,-32.2712326,-9.222075462,-17.58558464,2
1974.258625,197.4258625,20031.69622,1478281987,37.35291657,-122.0347936,44.76495,0,-1,12,10,1478281988,-42.25084686,-8.699378967,-15.99582672,197.451355,183.992691,10,20031.69622,-1.434188843,0.359283447,-0.288543701,20031.69042,-0.466461986,-0.010068347,1.422040937,20031.69042,2.570055038,-1.361413264,-0.386724022,-0.38995862,-0.087998152,1.426465511,-0.821632445,0.188502178,-0.03607047,-0.550470453,0.317378615,-0.765807223,-0.098956513,-0.905921876,0.377156407,-0.192506194,-32.2712326,-9.222075462,-17.58558464,2
1983.937625,198.3937625,20031.7059,1478281987,37.35291657,-122.0347936,44.76495,0,-1,12,10,1478281988,-42.25084686,-8.699378967,-15.99582672,197.451355,183.992691,10,20031.7059,-1.188613892,0.136749268,-0.403594971,20031.70041,-0.192064781,-0.086147136,1.424408487,20031.70041,2.571136434,-1.362389873,-0.400637869,-0.115561478,-0.164076865,1.428833008,-0.533301115,-0.030722331,-0.098026603,-0.548702449,0.321973715,-0.765786306,-0.093967454,-0.900887728,0.390005767,-0.190517098,-32.2712326,-9.222075462,-17.58558464,2
1993.632625,199.3632625,20031.71559,1478281987,37.35291657,-122.0347936,44.76495,0,-1,12,10,1478281988,-42.49531174,-7.197647095,-15.76120758,193.6110229,180.1523438,10,20031.71559,-1.077575684,0.200561523,-0.324874878,20031.71037,-0.028186897,-0.233529134,1.676969369,20031.71037,2.574966643,-1.363570192,-0.416479086,0.048316248,-0.311458707,1.681393862,-0.2936607,-0.267793745,-0.21543619,-0.54711441,0.326475775,-0.765808966,-0.087269798,-0.894953191,0.404543012,-0.18815878,-32.7068634,-7.294096947,-17.68584633,2
2003.290625,200.3290625,20031.72525,1478281987,37.35291657,-122.0347936,44.76495,0,-1,12,10,1478281988,-43.01917267,-4.787895203,-15.66064453,191.3484497,177.8897858,10,20031.72525,-1.047668457,0.453811646,-0.183654785,20031.72039,0.019798738,-0.237572079,1.846662531,20031.72039,2.57992406,-1.364970794,-0.43396089,0.096301652,-0.315501422,1.851086974,-0.189419135,-0.219906315,-0.139443606,-0.545502905,0.33122643,-0.765757398,-0.079569093,-0.888156533,0.420467824,-0.185431272,-32.7068634,-7.294096947,-17.68584633,2
2012.992625,201.2992625,20031.73495,1478281987,37.35291657,-122.0347936,44.76495,0,-1,12,10,1478281988,-43.01917267,-4.787895203,-15.66064453,191.3484497,177.8897858,10,20031.73495,-0.978256226,0.499008179,-0.121734619,20031.73038,-0.072427862,0.020691696,1.98807026,20031.73038,2.584826088,-1.364114731,-0.453047479,0.004074976,-0.057237562,1.992494702,-0.167686746,0.016104043,0.000856019,-0.542727054,0.336440103,-0.766229985,-0.071742679,-0.879981697,0.437707603,-0.184510797,-32.7068634,-7.294096947,-17.68584633,2
2022.672625,202.2672625,20031.74463,1478281987,37.35291657,-122.0347936,44.76495,0,-1,12,10,1478281988,-43.01917267,-4.787895203,-15.66064453,191.3484497,177.8897858,10,20031.74463,-0.86177063,0.4009552,-0.061920166,20031.74037,-0.374773877,0.282220241,2.156253943,20031.74037,2.587399373,-1.361575317,-0.47417935,-0.298271179,0.204291135,2.160678387,-0.107989468,0.042399682,0.063047558,-0.538530498,0.342919546,-0.766966999,-0.064441527,-0.870266736,0.456608504,-0.184782177,-33.18247223,-5.544036865,-17.43327332,2
2032.343625,203.2343625,20031.7543,1478281987,37.35291657,-122.0347936,44.76495,0,-1,12,10,1478281988,-43.01917267,-4.787895203,-15.66064453,191.3484497,177.8897858,10,20031.7543,-0.842834473,0.540023804,0.017730713,20031.75036,-0.700398051,0.679643504,2.377054765,20031.75036,2.586810176,-1.35694158,-0.497974331,-0.623895347,0.601714432,2.381479263,-0.003232045,-0.076691665,0.124533504,-0.532460882,0.351082005,-0.768034233,-0.057881371,-0.858538568,0.477646858,-0.18645367,-33.18247223,-5.544036865,-17.43327332,2
2042.028625,204.2028625,20031.76399,1478281987,37.35291657,-122.0347936,44.76495,0,-1,12,10,1478281988,-43.01917267,-4.787895203,-15.66064453,191.3484497,177.8897858,10,20031.76399,-0.563812256,0.573394775,-0.025268555,20031.76035,-1.246835563,1.081361913,2.621441873,20031.76035,2.58191889,-1.350091453,-0.525030952,-1.170333266,1.003433108,2.625866413,0.001484499,0.038784016,0.207161829,-0.524089885,0.361405913,-0.769397974,-0.05236713,-0.844318986,0.501239777,-0.189431116,-33.18247223,-5.544036865,-17.43327332,2
2051.706625,205.1706625,20031.77367,1478281987,37.35291657,-122.0347936,44.76495,0,-1,12,10,1478281988,-43.12394714,-2.098747253,-16.56562042,187.1650391,173.7063599,10,20031.77367,-0.839874268,0.815155029,-0.220230103,20031.77032,-1.773094038,1.033825819,2.965927619,20031.77032,2.571290131,-1.345897267,-0.556989487,-1.696591854,0.955897093,2.970352173,0.263661236,0.044761654,0.164031848,-0.514606684,0.374872991,-0.769697767,-0.047069624,-0.827473521,0.528633118,-0.189300403,-33.20487976,-2.910775185,-18.01930046,2
2061.360625,206.1360625,20031.78332,1478281987,37.35291657,-122.0347936,44.76495,0,-1,12,10,1478281988,-43.12394714,-2.098747253,-16.56562042,187.1650391,173.7063599,10,20031.78332,-0.776000977,0.54699707,-0.361221313,20031.78034,-1.715020082,0.79697599,3.006233496,20031.78034,2.559630614,-1.344264384,-0.59002638,-1.638517857,0.719047308,3.010658026,-0.030177446,0.258772075,-0.033604596,-0.505440608,0.388866351,-0.769156474,-0.041365097,-0.809696794,0.556382954,-0.18662551,-33.20487976,-2.910775185,-18.01930046,2
2071.039625,207.1039625,20031.793,1478281987,37.35291657,-122.0347936,44.76495,0,-1,12,10,1478281988,-43.12394714,-2.098747253,-16.56562042,187.1650391,173.7063599,10,20031.793,-0.672866821,0.636505127,-0.343292236,20031.79033,-1.244035249,0.44778284,3.002600678,20031.79033,2.552549807,-1.343705926,-0.622292388,-1.167533278,0.36985451,3.007025003,0.015681792,-0.035902288,-0.178282157,-0.497479715,0.401303325,-0.768321684,-0.033931771,-0.79168278,0.582899332,-0.182939157,-33.20487976,-2.910775185,-18.01930046,2
2080.743625,208.0743625,20031.8027,1478281987,37.35291657,-122.0347936,44.76495,0,-1,12,10,1478281988,-42.70485687,0.974571228,-16.76673126,184.7351379,171.276474,10,20031.8027,-0.599105835,0.758407593,-0.287384033,20031.79033,-1.244035249,0.44778284,3.002600678,20031.79033,2.552549807,-1.343705926,-0.622292388,-1.167533278,0.36985451,3.007025003,0.015681792,-0.035902288,-0.178282157,-0.497479715,0.401303325,-0.768321684,-0.033931771,-0.79168278,0.582899332,-0.182939157,-33.20487976,-2.910775185,-18.01930046,2
2090.415625,209.0415625,20031.81238,1478281987,37.35291657,-122.0347936,44.76495,0,-1,12,10,1478281988,-42.60009003,4.362197876,-17.47060394,180.3253174,166.8666382,10,20031.81238,-0.576293945,0.767486572,-0.21031189,20031.81031,-0.549661269,-0.265144851,2.465729507,20031.81031,2.551497237,-1.345624654,-0.677010905,-0.473159581,-0.343072951,2.470153809,0.160666361,0.131941617,-0.113353617,-0.486902845,0.419416753,-0.765991365,-0.016505596,-0.759772182,0.626465976,-0.174030408,-32.88402557,0.885637283,-18.80394745,2
2100.101625,210.0101625,20031.82206,1478281987,37.35291657,-122.0347936,44.76495,0,-1,12,10,1478281988,-42.60009003,4.362197876,-17.47060394,180.3253174,166.8666382,10,20031.82206,-0.541030884,0.707931519,-0.169494629,20031.8203,-0.435354933,-0.433487258,2.458668934,20031.8203,2.553632164,-1.34914295,-0.701670691,-0.358853459,-0.511415124,2.463093281,0.168785602,0.12199197,-0.042403653,-0.483580585,0.426843882,-0.764136189,-0.007071325,-0.745079577,0.64549458,-0.167908236,-32.88402557,0.885637283,-18.80394745,2
2109.782625,210.9782625,20031.83174,1478281987,37.35291657,-122.0347936,44.76495,0,-1,12,10,1478281988,-42.60009003,4.362197876,-17.47060394,180.3253174,166.8666382,10,20031.83174,-0.577255249,0.719924927,-0.158798218,20031.8203,-0.435354933,-0.433487258,2.458668934,20031.8203,2.553632164,-1.34914295,-0.701670691,-0.358853459,-0.511415124,2.463093281,0.168785602,0.12199197,-0.042403653,-0.483580585,0.426843882,-0.764136189,-0.007071325,-0.745079577,0.64549458,-0.167908236,-32.88402557,0.885637283,-18.80394745,2
2119.455625,211.9455625,20031.84142,1478281987,37.35291657,-122.0347936,44.76495,0,-1,12,10,1478281988,-42.60009003,4.362197876,-17.47060394,180.3253174,166.8666382,10,20031.84142,-0.639541626,0.72467041,-0.177978516,20031.83029,-0.296078266,-0.285477819,2.564745836,20031.83029,2.557659038,-1.350726098,-0.727128159,-0.219577029,-0.363405436,2.569170237,0.151813075,0.055198062,0.004289384,-0.479700076,0.433986217,-0.762584509,0.002944062,-0.729068339,0.664726853,-0.163087606,-32.81813812,3.750125885,-18.56443214,2
2129.138625,212.9138625,20031.8511,1478281987,37.35291657,-122.0347936,44.76495,0,-1,12,10,1478281988,-42.60009003,4.362197876,-17.47060394,180.3253174,166.8666382,10,20031.8511,-0.646835327,0.696060181,-0.18460083,20031.85025,-0.189600025,0.152803395,2.402584626,20031.85025,2.569676264,-1.343914861,-0.77581487,-0.113098942,0.074875921,2.407008886,0.056014869,0.024372406,-0.017404951,-0.469365419,0.446552708,-0.761460574,0.021554038,-0.695556521,0.700298011,-0.160573557,-32.81813812,3.750125885,-18.56443214,2
2138.788625,213.8788625,20031.86075,1478281987,37.35291657,-122.0347936,44.76495,0,-1,12,10,1478281988,-42.21592331,8.029220581,-17.5041275,177.6746826,164.2160187,10,20031.86075,-0.650543213,0.665222168,-0.154205322,20031.86027,-0.257167884,0.257304771,2.363084887,20031.86027,2.575066767,-1.338546272,-0.79929977,-0.180667028,0.179377526,2.367509127,0.031654142,-0.020807879,-0.024125839,-0.463461088,0.452732067,-0.761147816,0.029857969,-0.678489447,0.716868043,-0.160474986,-32.5448761,6.290817261,-18.35725021,2
2148.496625,214.8496625,20031.87046,1478281987,37.35291657,-122.0347936,44.76495,0,-1,12,10,1478281988,-42.21592331,8.029220581,-17.5041275,177.6746826,164.2160187,10,20031.87046,-0.653991699,0.673675537,-0.120513916,20031.86027,-0.257167884,0.257304771,2.363084887,20031.86027,2.575066767,-1.338546272,-0.79929977,-0.180667028,0.179377526,2.367509127,0.031654142,-0.020807879,-0.024125839,-0.463461088,0.452732067,-0.761147816,0.029857969,-0.678489447,0.716868043,-0.160474986,-32.5448761,6.290817261,-18.35725021,2
2158.175625,215.8175625,20031.88014,1478281987,37.35291657,-122.0347936,44.76495,0,-1,12,10,1478281988,-42.21592331,8.029220581,-17.5041275,177.6746826,164.2160187,10,20031.88014,-0.650436401,0.735290527,-0.08631897,20031.87023,-0.285168626,0.374632729,2.337582723,20031.87023,2.580112289,-1.332220004,-0.82259456,-0.208667994,0.296705723,2.342006922,0.007060368,-0.059237894,0.040259428,-0.457132708,0.458958621,-0.760897493,0.037705138,-0.661052048,0.732913435,-0.160773337,-32.5448761,6.290817261,-18.35725021,2
2167.833625,216.7833625,20031.88979,1478281987,37.35291657,-122.0347936,44.76495,0,-1,12,10,1478281988,-41.65713882,11.59147263,-18.04040527,175.8651123,162.4064331,10,20031.88979,-0.662063599,0.759918213,-0.086242676,20031.89024,-0.147853377,0.527690989,2.117029841,20031.89024,2.591852973,-1.315031481,-0.866313864,-0.071352832,0.449764073,2.121454239,-0.023864482,-0.026656304,0.077524424,-0.443712101,0.470316783,-0.761070256,0.05190145,-0.626571894,0.761946857,-0.163843393,-32.13271332,7.885661125,-18.46718216,2
2177.531625,217.7531625,20031.89949,1478281987,37.35291657,-122.0347936,44.76495,0,-1,12,10,1478281988,-41.65713882,11.59147263,-18.04040527,175.8651123,162.4064331,10,20031.89949,-0.562820435,0.831481934,-0.063400269,20031.89024,-0.147853377,0.527690989,2.117029841,20031.89024,2.591852973,-1.315031481,-0.866313864,-0.071352832,0.449764073,2.121454239,-0.023864482,-0.026656304,0.077524424,-0.443712101,0.470316783,-0.761070256,0.05190145,-0.626571894,0.761946857,-0.163843393,-32.13271332,7.885661125,-18.46718216,2
2187.207625,218.7207625,20031.90917,1478281987,37.35291657,-122.0347936,44.76495,0,-1,12,10,1478281988,-40.64434052,14.49015808,-18.0739212,170.9918518,157.5331879,10,20031.90917,-0.510681152,0.91192627,-0.019195557,20031.90021,0.073790069,0.549605609,2.057409121,20031.90021,2.60166999,-1.302825284,-0.88611919,0.150290236,0.471679062,2.061833382,0.047031399,0.056858659,0.104049794,-0.437007088,0.474657533,-0.761744513,0.058909492,-0.609851837,0.774623275,-0.16745007,-32.13271332,7.885661125,-18.46718216,2
2196.864625,219.6864625,20031.91882,1478281987,37.35291657,-122.0347936,44.76495,0,-1,12,10,1478281988,-40.64434052,14.49015808,-18.0739212,170.9918518,157.5331879,10,20031.91882,-0.457305908,0.94418335,-0.104629517,20031.92022,0.334382245,0.6056268,1.733360473,20031.92022,2.629157895,-1.27033739,-0.919899164,0.410882324,0.527700365,1.737784743,0.068075351,0.116385743,0.160125881,-0.423742071,0.480397688,-0.764512853,0.071977881,-0.578756511,0.795540512,-0.179321438,-31.30607414,9.990810394,-18.86386108,2
2206.562625,220.6562625,20031.92852,1478281987,37.35291657,-122.0347936,44.76495,0,-1,12,10,1478281988,-40.64434052,14.49015808,-18.0739212,170.9918518,157.5331879,10,20031.92852,-0.46321106,0.981689453,-0.244064331,20031.92022,0.334382245,0.6056268,1.733360473,20031.92022,2.629157895,-1.27033739,-0.919899164,0.410882324,0.527700365,1.737784743,0.068075351,0.116385743,0.160125881,-0.423742071,0.480397688,-0.764512853,0.071977881,-0.578756511,0.795540512,-0.179321438,-31.30607414,9.990810394,-18.86386108,2
2216.239625,221.6239625,20031.9382,1478281987,37.35291657,-122.0347936,44.76495,0,-1,12,10,1478281988,-40.64434052,14.49015808,-18.0739212,170.9918518,157.5331879,10,20031.9382,-0.460876465,1.020584106,-0.328765869,20031.93021,0.350457885,0.306609204,1.525371853,20031.93021,2.643807923,-1.255497213,-0.93364504,0.426957577,0.228683144,1.529796124,0.102370232,0.17789571,-0.059582826,-0.418594756,0.482221608,-0.765594006,0.078144547,-0.565581322,0.803793728,-0.184481502,-31.30607414,9.990810394,-18.86386108,2
2225.906625,222.5906625,20031.94787,1478281987,37.35291657,-122.0347936,44.76495,0,-1,12,10,1478281988,-40.12047958,16.96976089,-18.44261169,166.6330261,153.1743469,10,20031.94787,-0.487792969,1.003570557,-0.338989258,20031.9402,0.363674088,-0.022731145,1.37045817,20031.9402,2.658471435,-1.243835787,-0.945643344,0.440173715,-0.100657135,1.37488246,0.093341529,0.209710509,-0.140812635,-0.415074963,0.483462672,-0.766050874,0.084514367,-0.554217994,0.810873628,-0.187953234,-31.30607414,9.990810394,-18.86386108,2
