time(ms),time(ds),locationTimestamp_since1970,locationLatitude,locationLongitude,locationAltitude,locationSpeed,locationCourse,locationVerticalAccuracy,locationHorizontalAccuracy,locationHeadingTimestamp_since1970,locationHeadingX,locationHeadingY,locationHeadingZ,locationTrueHeading,locationMagneticHeading,locationHeadingAccuracy,accelerometerTimestamp_sinceReboot,accelerometerAccelerationX,accelerometerAccelerationY,accelerometerAccelerationZ,gyroTimestamp_sinceReboot,gyroRotationX,gyroRotationY,gyroRotationZ,motionTimestamp_sinceReboot,motionYaw,motionRoll,motionPitch,motionRotationRateX,motionRotationRateY,motionRotationRateZ,motionUserAccelerationX,motionUserAccelerationY,motionUserAccelerationZ,motionQuaternionX,motionQuaternionY,motionQuaternionZ,motionQuaternionW,motionGravityX,motionGravityY,motionGravityZ,motionMagneticFieldX,motionMagneticFieldY,motionMagneticFieldZ,motionMagneticFieldCalibrationAccuracy,activityTimestamp_sinceReboot
0,0,1478282699,37.35286837,-122.0355891,53.01953,0,2.109375,6,10,1478282699,23.8918705,-11.16049957,-31.13417816,285.448761,271.9900818,10,20727.96651,0.02722168,-0.385192871,-1.000930786,20727.9627,-0.394164353,-0.258695474,0.271867202,20727.9627,0.458994382,-0.026455164,0.37316419,-0.316285849,-0.334501117,0.276491404,0.018848523,0.008850787,-0.025949743,-0.183578721,-0.029538799,-0.221130759,-0.957354427,-0.024631605,-0.364563674,-0.930852652,25.08695221,-10.01282978,-31.69493866,2,20724.34949
9.675,0.9675,1478282699,37.35286837,-122.0355891,53.01953,0,2.109375,6,10,1478282699,23.71725273,-11.47481537,-31.23473358,285.0921631,271.6334839,10,20727.97619,-0.004272461,-0.359024048,-0.956222534,20727.9627,-0.394164353,-0.258695474,0.271867202,20727.9627,0.458994382,-0.026455164,0.37316419,-0.316285849,-0.334501117,0.276491404,0.018848523,0.008850787,-0.025949743,-0.183578721,-0.029538799,-0.221130759,-0.957354427,-0.024631605,-0.364563674,-0.930852652,25.08695221,-10.01282978,-31.69493866,2,20724.34949
19.361,1.9361,1478282699,37.35286837,-122.0355891,53.01953,0,2.109375,6,10,1478282699,23.40293694,-11.85897827,-31.26825714,285.313385,271.8547058,10,20727.98587,-0.030975342,-0.324005127,-0.917221069,20727.97271,-0.401640911,-0.269303377,0.269627217,20727.97271,0.461830798,-0.030927037,0.369745941,-0.323762715,-0.345108718,0.274251401,0.024559906,0.002354506,-0.024249231,-0.182399821,-0.027270026,-0.222174841,-0.957405343,-0.028832367,-0.361378551,-0.931973279,24.58333397,-10.10289383,-32.05888748,2,20724.34949
29.042,2.9042,1478282699,37.35286837,-122.0355891,53.01953,0,2.109375,6,10,1478282699,23.19339561,-11.99868011,-31.20122528,284.7692566,271.3105774,10,20727.99555,0.007217407,-0.273132324,-0.891983032,20727.97271,-0.401640911,-0.269303377,0.269627217,20727.97271,0.461830798,-0.030927037,0.369745941,-0.323762715,-0.345108718,0.274251401,0.024559906,0.002354506,-0.024249231,-0.182399821,-0.027270026,-0.222174841,-0.957405343,-0.028832367,-0.361378551,-0.931973279,24.58333397,-10.10289383,-32.05888748,2,20724.34949
38.697,3.8697,1478282699,37.35286837,-122.0355891,53.01953,0,2.109375,6,10,1478282699,23.19339561,-11.99868011,-31.20122528,284.7692566,271.3105774,10,20728.00521,0.054000854,-0.279602051,-0.888336182,20727.99267,-0.040231043,-0.20712043,0.205038104,20727.99267,0.466865181,-0.038688549,0.366503877,0.037644856,-0.282926172,0.209662601,0.043327481,0.085221373,0.040904254,-0.181651971,-0.023641445,-0.223973444,-0.957224916,-0.036110073,-0.358353704,-0.932887316,24.58333397,-10.10289383,-32.05888748,2,20724.34949
48.4,4.84,1478282699,37.35286837,-122.0355891,53.01953,0,2.109375,6,10,1478282699,23.19339561,-11.99868011,-31.20122528,284.7692566,271.3105774,10,20728.01491,0.024459839,-0.29826355,-0.889022827,20728.00269,0.192510594,-0.153952549,0.220459937,20728.00269,0.469265402,-0.041989699,0.368513295,0.270386189,-0.229757994,0.225084424,0.093160018,0.080626883,0.043705486,-0.182954422,-0.022513218,-0.224759128,-0.95681982,-0.039159168,-0.360228926,-0.932041645,24.20476151,-10.08036232,-32.35269165,2,20724.34949
58.08,5.808,1478282699,37.35286837,-122.0355891,53.01953,0,2.109375,6,10,1478282699,23.19339561,-11.99868011,-31.20122528,284.7692566,271.3105774,10,20728.02459,-0.008895874,-0.314071655,-0.846115112,20728.02267,0.376790423,-0.277030805,0.318460271,20728.02267,0.475711504,-0.049785467,0.376807988,0.454665869,-0.352836102,0.323084742,0.070733428,0.069690727,0.039668944,-0.187722698,-0.020354443,-0.226847699,-0.955450683,-0.046273589,-0.367954284,-0.928691745,24.20476151,-10.08036232,-32.35269165,2,20724.34949
67.75,6.775,1478282699,37.35286837,-122.0355891,53.01953,0,2.109375,6,10,1478282699,23.19339561,-11.99868011,-31.20122528,284.7692566,271.3105774,10,20728.03426,-0.013458252,-0.392440796,-0.559707642,20728.02267,0.376790423,-0.277030805,0.318460271,20728.02267,0.475711504,-0.049785467,0.376807988,0.454665869,-0.352836102,0.323084742,0.070733428,0.069690727,0.039668944,-0.187722698,-0.020354443,-0.226847699,-0.955450683,-0.046273589,-0.367954284,-0.928691745,24.20476151,-10.08036232,-32.35269165,2,20724.34949
77.424,7.7424,1478282699,37.35286837,-122.0355891,53.01953,0,2.109375,6,10,1478282699,23.19339561,-11.99868011,-31.20122528,284.7692566,271.3105774,10,20728.04394,-0.008666992,-0.3409729,-0.717681885,20728.03266,0.41650135,0.138708082,0.41124214,20728.03266,0.480104232,-0.052620283,0.381312366,0.494376451,0.062903091,0.415866584,0.03536015,-0.020301899,0.367184699,-0.190146897,-0.019949663,-0.228522058,-0.954580451,-0.048818402,-0.372138888,-0.92689234,23.86875725,-10.6126461,-32.43201065,2,20724.34949
87.119,8.7119,1478282699,37.35286837,-122.0355891,53.01953,0,2.109375,6,10,1478282699,23.19339561,-11.99868011,-31.20122528,284.7692566,271.3105774,10,20728.05363,-0.03729248,-0.321029663,-0.892623901,20728.03266,0.41650135,0.138708082,0.41124214,20728.03266,0.480104232,-0.052620283,0.381312366,0.494376451,0.062903091,0.415866584,0.03536015,-0.020301899,0.367184699,-0.190146897,-0.019949663,-0.228522058,-0.954580451,-0.048818402,-0.372138888,-0.92689234,23.86875725,-10.6126461,-32.43201065,2,20724.34949
96.793,9.6793,1478282699,37.35286837,-122.0355891,53.01953,0,2.109375,6,10,1478282699,23.19339561,-11.99868011,-31.20122528,284.7692566,271.3105774,10,20728.06331,-0.050338745,-0.309951782,-1.029556274,20728.05262,0.321186815,0.947994801,0.468516881,20728.05262,0.490774159,-0.042845646,0.390514085,0.399061769,0.872189939,0.473141342,0.002315346,0.059634183,0.031240946,-0.193268368,-0.026737879,-0.234229304,-0.952401731,-0.039607827,-0.380663842,-0.923864841,23.86875725,-10.6126461,-32.43201065,2,20724.34949
106.479,10.6479,1478282699,37.35286837,-122.0355891,53.01953,0,2.109375,6,10,1478282699,23.19339561,-11.99868011,-31.20122528,284.7692566,271.3105774,10,20728.07299,-0.099578857,-0.284561157,-1.108459473,20728.06263,0.081795531,0.795962391,0.398722886,20728.06263,0.495482732,-0.036844772,0.392604665,0.159632683,0.720063269,0.403334141,-0.016304985,0.07264442,-0.106267668,-0.193487429,-0.030303659,-0.236981348,-0.951569306,-0.03403376,-0.382596195,-0.923288584,24.12712479,-11.3940506,-31.97246361,2,20724.34949
116.137,11.6137,1478282699,37.35286837,-122.0355891,53.01953,0,2.109375,6,10,1478282699,23.19339561,-11.99868011,-31.20122528,284.7692566,271.3105774,10,20728.08265,-0.063491821,-0.132049561,-1.091766357,20728.08262,-0.817422409,-0.460734592,0.327591984,20728.08262,0.503083906,-0.040065112,0.385160612,-0.7395854,-0.536633551,0.332203239,-0.062458925,0.091146827,-0.182465076,-0.190225345,-0.028585322,-0.24053429,-0.951388697,-0.037119932,-0.375707984,-0.925994396,24.12712479,-11.3940506,-31.97246361,2,20724.34949
125.838,12.5838,1478282699,37.35286837,-122.0355891,53.01953,0,2.109375,6,10,1478282699,23.19339561,-11.99868011,-31.20122528,284.7692566,271.3105774,10,20728.09235,-0.122772217,-0.048583984,-1.013839722,20728.08262,-0.817422409,-0.460734592,0.327591984,20728.08262,0.503083906,-0.040065112,0.385160612,-0.7395854,-0.536633551,0.332203239,-0.062458925,0.091146827,-0.182465076,-0.190225345,-0.028585322,-0.24053429,-0.951388697,-0.037119932,-0.375707984,-0.925994396,24.12712479,-11.3940506,-31.97246361,2,20724.34949
135.519,13.5519,1478282699,37.35286837,-122.0355891,53.01953,0,2.109375,6,10,1478282699,23.19339561,-11.99868011,-31.20122528,284.7692566,271.3105774,10,20728.10203,-0.173019409,-0.155136108,-0.906463623,20728.08262,-0.817422409,-0.460734592,0.327591984,20728.08262,0.503083906,-0.040065112,0.385160612,-0.7395854,-0.536633551,0.332203239,-0.062458925,0.091146827,-0.182465076,-0.190225345,-0.028585322,-0.24053429,-0.951388697,-0.037119932,-0.375707984,-0.925994396,24.12712479,-11.3940506,-31.97246361,2,20724.34949
145.173,14.5173,1478282699,37.35286837,-122.0355891,53.01953,0,2.109375,6,10,1478282699,23.19339561,-11.99868011,-31.20122528,284.7692566,271.3105774,10,20728.11169,-0.244400024,-0.193984985,-0.830841064,20728.11259,-2.097759474,-1.479458956,0.100949518,20728.11259,0.508075998,-0.08309167,0.33480872,-2.01992774,-1.555359244,0.105561577,-0.094631828,0.173452407,0.034751002,-0.17142884,-0.002199875,-0.240888928,-0.955290447,-0.078387581,-0.328588516,-0.941214621,24.23130608,-11.51914215,-31.84861374,2,20724.34949
154.878,15.4878,1478282699,37.35286837,-122.0355891,53.01953,0,2.109375,6,10,1478282699,22.63460732,-12.13837433,-31.26824188,280.2906799,266.8320007,10,20728.12139,-0.232299805,-0.204284668,-0.774078369,20728.11259,-2.097759474,-1.479458956,0.100949518,20728.11259,0.508075998,-0.08309167,0.33480872,-2.01992774,-1.555359244,0.105561577,-0.094631828,0.173452407,0.034751002,-0.17142884,-0.002199875,-0.240888928,-0.955290447,-0.078387581,-0.328588516,-0.941214621,24.23130608,-11.51914215,-31.84861374,2,20724.34949
164.558,16.4558,1478282699,37.35286837,-122.0355891,53.01953,0,2.109375,6,10,1478282699,21.90120888,-11.26528168,-31.97212982,281.3079529,267.8492737,10,20728.13107,-0.204437256,-0.178268433,-0.738586426,20728.11259,-2.097759474,-1.479458956,0.100949518,20728.11259,0.508075998,-0.08309167,0.33480872,-2.01992774,-1.555359244,0.105561577,-0.094631828,0.173452407,0.034751002,-0.17142884,-0.002199875,-0.240888928,-0.955290447,-0.078387581,-0.328588516,-0.941214621,24.23130608,-11.51914215,-31.84861374,2,20724.34949
174.227,17.4227,1478282699,37.35286837,-122.0355891,53.01953,0,2.109375,6,10,1478282699,21.90120888,-11.26528168,-31.97212982,281.3079529,267.8492737,10,20728.14074,-0.201705933,-0.154785156,-0.709609985,20728.12256,-2.233016632,-1.36386871,-0.011017231,20728.12256,0.506225789,-0.097282189,0.31359816,-2.155185461,-1.439768553,-0.0064052,-0.112045437,0.13021487,0.208145738,-0.163029475,0.007436726,-0.239703489,-0.957030994,-0.092391819,-0.308483303,-0.946732163,22.80171204,-10.07188416,-33.35895538,2,20724.34949
183.919,18.3919,1478282699,37.35286837,-122.0355891,53.01953,0,2.109375,6,10,1478282699,21.90120888,-11.26528168,-31.97212982,281.3079529,267.8492737,10,20728.15043,-0.194992065,-0.131973267,-0.708465576,20728.14257,-2.240368554,-0.896568361,-0.105599664,20728.14257,0.499875684,-0.118638416,0.270519372,-2.162537336,-0.972468019,-0.100987643,-0.087650128,0.1124468,0.247248605,-0.144957506,0.023622618,-0.236907548,-0.960366653,-0.114055805,-0.267231941,-0.956858575,22.07798386,-8.986063957,-34.14665985,2,20724.34949
193.599,19.3599,1478282699,37.35286837,-122.0355891,53.01953,0,2.109375,6,10,1478282699,21.90120888,-11.26528168,-31.97212982,281.3079529,267.8492737,10,20728.16011,-0.20602417,-0.092300415,-0.717330933,20728.15253,-2.1831287,-0.612985647,-0.133721313,20728.15253,0.495962751,-0.125196564,0.249644496,-2.105297565,-0.688885093,-0.129109293,-0.073993228,0.115086228,0.252950519,-0.13568866,0.029673976,-0.235510906,-0.961895345,-0.120998837,-0.247059494,-0.961416066,22.07798386,-8.986063957,-34.14665985,2,20724.34949
203.249,20.3249,1478282699,37.35286837,-122.0355891,53.01953,0,2.109375,6,10,1478282699,21.90120888,-11.26528168,-31.97212982,281.3079529,267.8492737,10,20728.16976,-0.20211792,-0.054748535,-0.729522705,20728.17254,-2.063719481,-0.243439822,-0.284833867,20728.17254,0.48618723,-0.131765112,0.209971931,-1.98588872,-0.319339037,-0.280221879,-0.077525631,0.116132036,0.252227753,-0.11725105,0.038377722,-0.232165573,-0.964820444,-0.128498539,-0.208432451,-0.969558656,22.07798386,-8.986063957,-34.14665985,2,20724.34949
212.893,21.2893,1478282699,37.35286837,-122.0355891,53.01953,0,2.109375,6,10,1478282699,21.23764992,-9.903244019,-32.20676422,277.5313416,264.0726624,10,20728.17941,-0.196777344,-0.059524536,-0.755493164,20728.17254,-2.063719481,-0.243439822,-0.284833867,20728.17254,0.48618723,-0.131765112,0.209971931,-1.98588872,-0.319339037,-0.280221879,-0.077525631,0.116132036,0.252227753,-0.11725105,0.038377722,-0.232165573,-0.964820444,-0.128498539,-0.208432451,-0.969558656,22.07798386,-8.986063957,-34.14665985,2,20724.34949
222.572,22.2572,1478282699,37.35286837,-122.0355891,53.01953,0,2.109375,6,10,1478282699,21.23764992,-9.903244019,-32.20676422,277.5313416,264.0726624,10,20728.18908,-0.20539856,-0.097427368,-0.777877808,20728.17254,-2.063719481,-0.243439822,-0.284833867,20728.17254,0.48618723,-0.131765112,0.209971931,-1.98588872,-0.319339037,-0.280221879,-0.077525631,0.116132036,0.252227753,-0.11725105,0.038377722,-0.232165573,-0.964820444,-0.128498539,-0.208432451,-0.969558656,22.07798386,-8.986063957,-34.14665985,2,20724.34949
232.224,23.2224,1478282699,37.35286837,-122.0355891,53.01953,0,2.109375,6,10,1478282699,20.88840675,-8.296737671,-32.6760025,278.1150513,264.6563721,10,20728.19874,-0.198944092,-0.119857788,-0.812988281,20728.2025,-1.367723636,0.555632342,-0.523584395,20728.2025,0.466779511,-0.125820687,0.162379839,-1.28989315,0.479733467,-0.518972397,-0.081560351,0.06423983,0.201166525,-0.093238069,0.042243265,-0.225098372,-0.968944215,-0.123838209,-0.161667198,-0.979044318,20.98020935,-5.544454575,-35.54252243,2,20724.34949
241.933,24.1933,1478282699,37.35286837,-122.0355891,53.01953,0,2.109375,6,10,1478282699,20.71378899,-6.725151062,-33.37987518,279.4940796,266.0354004,10,20728.20845,-0.172531128,-0.148788452,-0.879226685,20728.2025,-1.367723636,0.555632342,-0.523584395,20728.2025,0.466779511,-0.125820687,0.162379839,-1.28989315,0.479733467,-0.518972397,-0.081560351,0.06423983,0.201166525,-0.093238069,0.042243265,-0.225098372,-0.968944215,-0.123838209,-0.161667198,-0.979044318,20.98020935,-5.544454575,-35.54252243,2,20724.34949
251.612,25.1612,1478282699,37.35286837,-122.0355891,53.01953,0,2.109375,6,10,1478282699,20.71378899,-6.725151062,-33.37987518,279.4940796,266.0354004,10,20728.21812,-0.150604248,-0.187576294,-0.917694092,20728.2025,-1.367723636,0.555632342,-0.523584395,20728.2025,0.466779511,-0.125820687,0.162379839,-1.28989315,0.479733467,-0.518972397,-0.081560351,0.06423983,0.201166525,-0.093238069,0.042243265,-0.225098372,-0.968944215,-0.123838209,-0.161667198,-0.979044318,20.98020935,-5.544454575,-35.54252243,2,20724.34949
261.276,26.1276,1478282699,37.35286837,-122.0355891,53.01953,0,2.109375,6,10,1478282699,20.71378899,-6.725151062,-33.37987518,279.4940796,266.0354004,10,20728.22779,-0.120437622,-0.217391968,-0.893203735,20728.22248,-0.801534523,0.788357468,-0.591847871,20728.22248,0.453102278,-0.110216939,0.145640041,-0.723704576,0.712458968,-0.587235868,-0.041774802,-0.04245057,0.065715626,-0.083128226,0.037213418,-0.219777741,-0.971289146,-0.108829446,-0.145125732,-0.983409703,21.12176895,-3.505627155,-35.7178154,2,20724.34949
270.973,27.0973,1478282699,37.35286837,-122.0355891,53.01953,0,2.109375,6,10,1478282699,20.71378899,-6.725151062,-33.37987518,279.4940796,266.0354004,10,20728.23749,0.243927002,-0.363998413,-1.146759033,20728.23247,-0.650791349,0.817338786,-0.547823688,20728.23247,0.446808971,-0.102031509,0.140225066,-0.572961628,0.741440535,-0.543211758,-0.019582801,-0.07762599,0.091831177,-0.079495196,0.034103635,-0.217235337,-0.972278902,-0.100854822,-0.139765978,-0.985034883,21.12176895,-3.505627155,-35.7178154,2,20724.34949
280.653,28.0653,1478282699,37.35286837,-122.0355891,53.01953,0,2.109375,6,10,1478282699,20.71378899,-6.725151062,-33.37987518,279.4940796,266.0354004,10,20728.24717,0.296478271,-0.417053223,-1.383911133,20728.23247,-0.650791349,0.817338786,-0.547823688,20728.23247,0.446808971,-0.102031509,0.140225066,-0.572961628,0.741440535,-0.543211758,-0.019582801,-0.07762599,0.091831177,-0.079495196,0.034103635,-0.217235337,-0.972278902,-0.100854822,-0.139765978,-0.985034883,21.12176895,-3.505627155,-35.7178154,2,20724.34949
290.322,29.0322,1478282699,37.35286837,-122.0355891,53.01953,0,2.109375,6,10,1478282699,20.71378899,-6.725151062,-33.37987518,279.4940796,266.0354004,10,20728.25683,0.143112183,-0.337265015,-1.021377563,20728.25247,-0.712705051,-0.87282335,0.290324506,20728.25247,0.445141365,-0.1056678,0.129686432,-0.634875536,-0.948721349,0.294936419,0.40106383,-0.287730008,-0.397839457,-0.074743752,0.037115092,-0.216628837,-0.972680723,-0.104585573,-0.129323214,-0.986071706,21.90933037,-2.275934219,-35.3409462,2,20724.34949
300.003,30.0003,1478282699,37.35286837,-122.0355891,53.01953,0,2.109375,6,10,1478282699,20.64394188,-5.118644714,-33.7820816,281.6061401,268.1474609,10,20728.26652,0.014892578,-0.322265625,-0.814193726,20728.26246,-0.85806571,-1.018930227,0.594221014,20728.26246,0.449568513,-0.11731757,0.121645447,-0.780236483,-1.09482801,0.598832905,0.259295881,-0.215919361,-0.035590272,-0.072197243,0.04351911,-0.218627337,-0.972160343,-0.116183683,-0.121345662,-0.985787272,21.90933037,-2.275934219,-35.3409462,2,20724.34949
309.693,30.9693,1478282699,37.35286837,-122.0355891,53.01953,0,2.109375,6,10,1478282699,20.64394188,-5.118644714,-33.7820816,281.6061401,268.1474609,10,20728.27621,0.046478271,-0.273895264,-0.718780518,20728.26246,-0.85806571,-1.018930227,0.594221014,20728.26246,0.449568513,-0.11731757,0.121645447,-0.780236483,-1.09482801,0.598832905,0.259295881,-0.215919361,-0.035590272,-0.072197243,0.04351911,-0.218627337,-0.972160343,-0.116183683,-0.121345662,-0.985787272,21.90933037,-2.275934219,-35.3409462,2,20724.34949
319.373,31.9373,1478282699,37.35286837,-122.0355891,53.01953,0,2.109375,6,10,1478282699,21.06302834,-4.350311279,-33.7820816,281.1417847,267.6831055,10,20728.28589,-0.008651733,-0.142807007,-0.630813599,20728.28242,-0.806494394,0.163221415,0.811076895,20728.28242,0.463046117,-0.124899378,0.105009327,-0.728665352,0.087323889,0.815688789,0.170366958,-0.169078812,0.267964184,-0.065281358,0.048641477,-0.225509446,-0.97083358,-0.123888686,-0.104816444,-0.986744702,21.36945915,-1.733454466,-35.70045471,2,20724.34949
329.028,32.9028,1478282699,37.35286837,-122.0355891,53.01953,0,2.109375,6,10,1478282699,21.06302834,-4.350311279,-33.7820816,281.1417847,267.6831055,10,20728.29554,-0.095748901,-0.016983032,-0.644622803,20728.29241,-0.823802811,0.636453156,0.658907066,20728.29241,0.469239169,-0.121152779,0.096771892,-0.745974004,0.560555875,0.663518906,0.111639425,-0.046186086,0.357211918,-0.061012957,0.047588417,-0.22892714,-0.970363399,-0.120291159,-0.096620925,-0.988025546,21.36945915,-1.733454466,-35.70045471,2,20724.34949
338.731,33.8731,1478282699,37.35286837,-122.0355891,53.01953,0,2.109375,6,10,1478282699,21.06302834,-4.350311279,-33.7820816,281.1417847,267.6831055,10,20728.30524,-0.090072632,0.053604126,-0.935287476,20728.29241,-0.823802811,0.636453156,0.658907066,20728.29241,0.469239169,-0.121152779,0.096771892,-0.745974004,0.560555875,0.663518906,0.111639425,-0.046186086,0.357211918,-0.061012957,0.047588417,-0.22892714,-0.970363399,-0.120291159,-0.096620925,-0.988025546,21.36945915,-1.733454466,-35.70045471,2,20724.34949
348.408,34.8408,1478282699,37.35286837,-122.0355891,53.01953,0,2.109375,6,10,1478282699,21.06302834,-4.350311279,-33.7820816,281.1417847,267.6831055,10,20728.31492,-0.124465942,-0.018218994,-0.994949341,20728.30243,-0.895581926,0.95783092,0.302382234,20728.30243,0.472342295,-0.112915091,0.088455155,-0.817753315,0.881933808,0.30699411,0.022162154,0.141943976,0.054459676,-0.056107466,0.044478945,-0.230954952,-0.970326433,-0.112234786,-0.08833985,-0.989747167,21.27368927,-1.41110754,-35.77177429,2,20724.34949
358.088,35.8088,1478282699,37.35286837,-122.0355891,53.01953,0,2.109375,6,10,1478282699,21.06302834,-4.350311279,-33.7820816,281.1417847,267.6831055,10,20728.3246,-0.175064087,-0.099853516,-0.881408691,20728.32241,-1.078666528,0.214946927,-0.070158848,20728.32241,0.470598602,-0.105891136,0.06928945,-1.000838161,0.139050007,-0.065546989,-0.019026205,0.051015027,-0.002936684,-0.045966382,0.043367766,-0.230885111,-0.970926565,-0.105439737,-0.069234021,-0.99201268,21.27368927,-1.41110754,-35.77177429,2,20724.34949
367.744,36.7744,1478282699,37.35286837,-122.0355891,53.01953,0,2.109375,6,10,1478282700,21.06302834,-3.372444153,-33.84911346,281.6226501,268.1639709,10,20728.33426,-0.191513062,-0.093322754,-0.887268066,20728.32241,-1.078666528,0.214946927,-0.070158848,20728.32241,0.470598602,-0.105891136,0.06928945,-1.000838161,0.139050007,-0.065546989,-0.019026205,0.051015027,-0.002936684,-0.045966382,0.043367766,-0.230885111,-0.970926565,-0.105439737,-0.069234021,-0.99201268,21.27368927,-1.41110754,-35.77177429,2,20724.34949
377.432,37.7432,1478282699,37.35286837,-122.0355891,53.01953,0,2.109375,6,10,1478282700,21.06302834,-3.372444153,-33.84911346,281.6226501,268.1639709,10,20728.34394,-0.19291687,-0.045059204,-0.991149902,20728.3324,-1.088576683,0.312080402,-0.107612214,20728.3324,0.468602587,-0.103651434,0.059400183,-1.010748625,0.236183792,-0.10300038,-0.088229604,-0.033957496,0.105610728,-0.040866908,0.043479883,-0.23025318,-0.971299577,-0.103283457,-0.059365258,-0.992878795,21.81682014,-0.54001689,-35.46710968,2,20724.34949
387.114,38.7114,1478282699,37.35286837,-122.0355891,53.01953,0,2.109375,6,10,1478282700,21.06302834,-3.372444153,-33.84911346,281.6226501,268.1639709,10,20728.35363,-0.153686523,-0.017379761,-0.95223999,20728.3324,-1.088576683,0.312080402,-0.107612214,20728.3324,0.468602587,-0.103651434,0.059400183,-1.010748625,0.236183792,-0.10300038,-0.088229604,-0.033957496,0.105610728,-0.040866908,0.043479883,-0.23025318,-0.971299577,-0.103283457,-0.059365258,-0.992878795,21.81682014,-0.54001689,-35.46710968,2,20724.34949
396.796,39.6796,1478282699,37.35286837,-122.0355891,53.01953,0,2.109375,6,10,1478282700,20.88840675,-1.731025696,-33.81560516,282.3057251,268.8470459,10,20728.36331,-0.102966309,0.008087158,-0.851135254,20728.35237,-1.097210119,0.106353604,-0.151315487,20728.35237,0.463731252,-0.100136883,0.039383715,-1.019382238,0.030457133,-0.146703646,-0.053794429,0.021993775,0.041978948,-0.03063801,0.044179678,-0.228502065,-0.972057753,-0.099892095,-0.039373536,-0.994218946,21.93650627,0.032865167,-35.39731216,2,20724.34949
406.479,40.6479,1478282699,37.35286837,-122.0355891,53.01953,0,2.109375,6,10,1478282700,20.88840675,-1.731025696,-33.81560516,282.3057251,268.8470459,10,20728.37299,-0.164031982,0.000656128,-0.857650757,20728.36238,-1.100060766,-0.071276044,-0.116803849,20728.36238,0.461482187,-0.101139014,0.029345527,-1.022233009,-0.147172213,-0.112192035,-0.002043104,0.037428472,0.143326208,-0.025824146,0.045851759,-0.227660096,-0.972317649,-0.100923203,-0.029341316,-0.994461477,21.93650627,0.032865167,-35.39731216,2,20724.34949
416.17,41.617,1478282699,37.35286837,-122.0355891,53.01953,0,2.109375,6,10,1478282700,20.88840675,-1.731025696,-33.81560516,282.3057251,268.8470459,10,20728.38268,-0.158096313,0.057235718,-0.954559326,20728.36238,-1.100060766,-0.071276044,-0.116803849,20728.36238,0.461482187,-0.101139014,0.029345527,-1.022233009,-0.147172213,-0.112192035,-0.002043104,0.037428472,0.143326208,-0.025824146,0.045851759,-0.227660096,-0.972317649,-0.100923203,-0.029341316,-0.994461477,21.93650627,0.032865167,-35.39731216,2,20724.34949
425.823,42.5823,1478282699,37.35286837,-122.0355891,53.01953,0,2.109375,6,10,1478282700,20.88840675,-1.731025696,-33.81560516,282.3057251,268.8470459,10,20728.39234,-0.369552612,0.111877441,-0.923126221,20728.38235,-0.892427678,0.112854114,0.001362473,20728.38235,0.459076288,-0.101581095,0.011100161,-0.814600229,0.036958102,0.005974274,-0.056696072,0.068335652,0.040224459,-0.016948629,0.048175206,-0.226956516,-0.972564976,-0.101400241,-0.011099933,-0.994783759,21.93480682,1.196822882,-35.37814331,2,20724.34949
435.527,43.5527,1478282699,37.35286837,-122.0355891,53.01953,0,2.109375,6,10,1478282700,20.88840675,-1.731025696,-33.81560516,282.3057251,268.8470459,10,20728.40204,-0.386871338,0.207687378,-0.992095947,20728.39235,-0.72031823,0.243383363,-0.115870144,20728.39235,0.457644312,-0.100683214,0.004234325,-0.642491043,0.167487651,-0.111258358,-0.269040316,0.116111755,0.071800582,-0.013473529,0.04852897,-0.226438906,-0.972722378,-0.100512296,-0.004234312,-0.99492681,21.93480682,1.196822882,-35.37814331,2,20724.34949
445.206,44.5206,1478282699,37.35286837,-122.0355891,53.01953,0,2.109375,6,10,1478282700,20.88840675,-1.731025696,-33.81560516,282.3057251,268.8470459,10,20728.41172,-0.306030273,0.187454224,-1.011749268,20728.39235,-0.72031823,0.243383363,-0.115870144,20728.39235,0.457644312,-0.100683214,0.004234325,-0.642491043,0.167487651,-0.111258358,-0.269040316,0.116111755,0.071800582,-0.013473529,0.04852897,-0.226438906,-0.972722378,-0.100512296,-0.004234312,-0.99492681,21.93480682,1.196822882,-35.37814331,2,20724.34949
454.878,45.4878,1478282699,37.35286837,-122.0355891,53.01953,0,2.109375,6,10,1478282700,21.167799,-0.892852783,-33.48044586,282.1143188,268.6556396,10,20728.42139,-0.233123779,0.10005188,-0.916091919,20728.41233,-0.273062961,-0.121645742,-0.697219834,20728.41233,0.447240091,-0.099019932,-0.001438204,-0.195235923,-0.197541296,-0.692608058,-0.207172185,0.186016023,-0.016648766,-0.010274553,0.04841676,-0.221523885,-0.973898054,-0.098858096,0.001438203,-0.995100498,22.02492332,2.048588037,-35.28295898,2,20724.34949
464.563,46.4563,1478282699,37.35286837,-122.0355891,53.01953,0,2.109375,6,10,1478282700,21.167799,-0.892852783,-33.48044586,282.1143188,268.6556396,10,20728.43108,-0.275390625,0.046691895,-0.864990234,20728.42232,-0.155873221,-0.343593054,-0.942891918,20728.42232,0.438383685,-0.102856002,-0.001616691,-0.078046523,-0.419488311,-0.938280165,-0.130449176,0.098435186,0.078621767,-0.010389656,0.050350903,-0.217193876,-0.974773646,-0.102674603,0.001616691,-0.994713664,22.02492332,2.048588037,-35.28295898,2,20724.34949
474.241,47.4241,1478282699,37.35286837,-122.0355891,53.01953,0,2.109375,6,10,1478282700,21.0979557,0.015167236,-33.27933502,283.5403748,270.0816956,10,20728.44075,-0.315933228,-0.112915039,-0.808868408,20728.42232,-0.155873221,-0.343593054,-0.942891918,20728.42232,0.438383685,-0.102856002,-0.001616691,-0.078046523,-0.419488311,-0.938280165,-0.130449176,0.098435186,0.078621767,-0.010389656,0.050350903,-0.217193876,-0.974773646,-0.102674603,0.001616691,-0.994713664,22.02492332,2.048588037,-35.28295898,2,20724.34949
483.922,48.3922,1478282699,37.35286837,-122.0355891,53.01953,0,2.109375,6,10,1478282700,21.65674019,1.132736206,-32.67601776,282.8296814,269.3710022,10,20728.45043,-0.247879028,-0.132293701,-0.834457397,20728.44231,-0.344940348,0.161688499,-0.89719234,20728.44231,0.418356596,-0.106871707,-0.001416694,-0.267113775,0.085793383,-0.892580628,-0.209264949,-0.11433173,0.185425252,-0.010399085,0.052393049,-0.207396737,-0.976797533,-0.106668279,0.001416693,-0.99429363,21.77464676,2.731861591,-35.3918457,2,20724.34949
493.602,49.3602,1478282699,37.35286837,-122.0355891,53.01953,0,2.109375,6,10,1478282700,21.65674019,1.132736206,-32.67601776,282.8296814,269.3710022,10,20728.46011,-0.092224121,-0.014511108,-0.862411499,20728.44231,-0.344940348,0.161688499,-0.89719234,20728.44231,0.418356596,-0.106871707,-0.001416694,-0.267113775,0.085793383,-0.892580628,-0.209264949,-0.11433173,0.185425252,-0.010399085,0.052393049,-0.207396737,-0.976797533,-0.106668279,0.001416693,-0.99429363,21.77464676,2.731861591,-35.3918457,2,20724.34949
503.266,50.3266,1478282699,37.35286837,-122.0355891,53.01953,0,2.109375,6,10,1478282700,21.65674019,1.132736206,-32.67601776,282.8296814,269.3710022,10,20728.46978,-0.017822266,0.046142578,-0.759567261,20728.47228,-2.387664266,1.323036858,-0.337317848,20728.47228,0.401329457,-0.078890571,-0.045892362,-2.309838057,1.247141957,-0.332706124,-0.013498332,-0.060387362,0.133428663,0.014608131,0.043203284,-0.199999939,-0.978733929,-0.078725792,0.045876253,-0.995840132,21.77464676,2.731861591,-35.3918457,2,20724.34949
512.96,51.296,1478282699,37.35286837,-122.0355891,53.01953,0,2.109375,6,10,1478282700,21.65674019,1.132736206,-32.67601776,282.8296814,269.3710022,10,20728.47947,-0.056015015,0.034286499,-0.854721069,20728.47228,-2.387664266,1.323036858,-0.337317848,20728.47228,0.401329457,-0.078890571,-0.045892362,-2.309838057,1.247141957,-0.332706124,-0.013498332,-0.060387362,0.133428663,0.014608131,0.043203284,-0.199999939,-0.978733929,-0.078725792,0.045876253,-0.995840132,21.77464676,2.731861591,-35.3918457,2,20724.34949
522.64,52.264,1478282699,37.35286837,-122.0355891,53.01953,0,2.109375,6,10,1478282700,21.65674019,1.132736206,-32.67601776,282.8296814,269.3710022,10,20728.48915,-0.017990112,0.060241699,-0.906387329,20728.47228,-2.387664266,1.323036858,-0.337317848,20728.47228,0.401329457,-0.078890571,-0.045892362,-2.309838057,1.247141957,-0.332706124,-0.013498332,-0.060387362,0.133428663,0.014608131,0.043203284,-0.199999939,-0.978733929,-0.078725792,0.045876253,-0.995840132,21.77464676,2.731861591,-35.3918457,2,20724.34949
532.301,53.2301,1478282699,37.35286837,-122.0355891,53.01953,0,2.109375,6,10,1478282700,21.65674019,1.132736206,-32.67601776,282.8296814,269.3710022,10,20728.49881,0.023681641,0.095275879,-0.935943604,20728.50225,-2.734236066,0.935592992,-0.156435148,20728.50225,0.389815768,-0.046423925,-0.126316177,-2.656410217,0.859698653,-0.151823446,0.0280474,-0.065738834,0.084576569,0.057418119,0.034945804,-0.194675121,-0.97856198,-0.04603751,0.125980526,-0.990963876,22.60314369,5.006579876,-34.6152153,2,20724.34949
541.998,54.1998,1478282699,37.35286837,-122.0355891,53.01953,0,2.109375,6,10,1478282700,21.93613243,2.669387817,-32.27379608,282.4933167,269.0346375,10,20728.50851,0.049240112,0.13508606,-0.919967651,20728.50225,-2.734236066,0.935592992,-0.156435148,20728.50225,0.389815768,-0.046423925,-0.126316177,-2.656410217,0.859698653,-0.151823446,0.0280474,-0.065738834,0.084576569,0.057418119,0.034945804,-0.194675121,-0.97856198,-0.04603751,0.125980526,-0.990963876,22.60314369,5.006579876,-34.6152153,2,20724.34949
551.679,55.1679,1478282699,37.35286837,-122.0355891,53.01953,0,2.109375,6,10,1478282700,21.93613243,2.669387817,-32.27379608,282.4933167,269.0346375,10,20728.51819,0.056335449,0.1668396,-0.924163818,20728.50225,-2.734236066,0.935592992,-0.156435148,20728.50225,0.389815768,-0.046423925,-0.126316177,-2.656410217,0.859698653,-0.151823446,0.0280474,-0.065738834,0.084576569,0.057418119,0.034945804,-0.194675121,-0.97856198,-0.04603751,0.125980526,-0.990963876,22.60314369,5.006579876,-34.6152153,2,20724.34949
561.356,56.1356,1478282699,37.35286837,-122.0355891,53.01953,0,2.109375,6,10,1478282700,22.07583046,4.345741272,-31.20124054,281.9917603,268.5330811,10,20728.52787,0.034225464,0.198028564,-0.921508789,20728.53222,-1.355572431,-0.104976218,-0.366892784,20728.53222,0.379833983,-0.038794375,-0.183213378,-1.277747154,-0.180870101,-0.362281114,0.09447097,-0.015350506,0.05835969,0.086170758,0.036233211,-0.189692894,-0.977383426,-0.038135517,0.182190105,-0.982523501,23.6980629,7.907777309,-33.31741333,2,20724.34949
571.034,57.1034,1478282699,37.35286837,-122.0355891,53.01953,0,2.109375,6,10,1478282700,22.07583046,4.345741272,-31.20124054,281.9917603,268.5330811,10,20728.53755,0.00932312,0.223434448,-0.893493652,20728.53222,-1.355572431,-0.104976218,-0.366892784,20728.53222,0.379833983,-0.038794375,-0.183213378,-1.277747154,-0.180870101,-0.362281114,0.09447097,-0.015350506,0.05835969,0.086170758,0.036233211,-0.189692894,-0.977383426,-0.038135517,0.182190105,-0.982523501,23.6980629,7.907777309,-33.31741333,2,20724.34949
580.713,58.0713,1478282699,37.35286837,-122.0355891,53.01953,0,2.109375,6,10,1478282700,22.07583046,4.345741272,-31.20124054,281.9917603,268.5330811,10,20728.54723,-0.004928589,0.227798462,-0.861083984,20728.54222,-0.905241211,-0.527759166,-0.442788881,20728.54222,0.375153275,-0.044689354,-0.192330394,-0.827416301,-0.603652656,-0.438177228,0.053173866,0.032287613,0.08708781,0.090162059,0.039750137,-0.187678326,-0.977275588,-0.043850746,0.191146836,-0.980581462,23.93357658,9.972328186,-32.58707809,2,20724.34949
590.389,59.0389,1478282699,37.35286837,-122.0355891,53.01953,0,2.109375,6,10,1478282700,22.07583046,4.345741272,-31.20124054,281.9917603,268.5330811,10,20728.5569,-0.033584595,0.247436523,-0.829620361,20728.55221,-0.605078722,-0.859067591,-0.450468638,20728.55221,0.37029802,-0.054189792,-0.198032064,-0.527253985,-0.934960842,-0.445856988,0.048176099,0.031058222,0.117932446,0.092166175,0.044689833,-0.185756404,-0.977242433,-0.053104687,0.19674024,-0.979016423,23.93357658,9.972328186,-32.58707809,2,20724.34949
600.07,60.007,1478282699,37.35286837,-122.0355891,53.01953,0,2.109375,6,10,1478282700,22.25044823,6.057022095,-30.83255768,284.3811646,270.9224854,10,20728.56658,-0.034240723,0.272064209,-0.807327271,20728.5622,-0.451747755,-1.14219011,-0.373287034,20728.5622,0.366036372,-0.066508754,-0.201813975,-0.373923153,-1.218083262,-0.368675381,0.031526309,0.046989705,0.147918195,0.092978325,0.050850264,-0.184265632,-0.97714659,-0.065110907,0.200446814,-0.977538586,23.93357658,9.972328186,-32.58707809,2,20724.34949
609.746,60.9746,1478282699,37.35286837,-122.0355891,53.01953,0,2.109375,6,10,1478282700,22.25044823,6.057022095,-30.83255768,284.3811646,270.9224854,10,20728.57626,0.002548218,0.280700684,-0.765960693,20728.57219,-0.452763218,-1.353866143,-0.215278491,20728.57219,0.363195307,-0.080919318,-0.205256638,-0.374938756,-1.429759145,-0.210666865,0.044893567,0.068245791,0.168477938,0.093414545,0.058061308,-0.18357965,-0.976832186,-0.079134293,0.203818411,-0.975805223,22.98048019,10.89891815,-32.97411346,2,20724.34949
619.419,61.9419,1478282699,37.35286837,-122.0355891,53.01953,0,2.109375,6,10,1478282700,22.25044823,6.057022095,-30.83255768,284.3811646,270.9224854,10,20728.58593,0.018829346,0.303817749,-0.719116211,20728.59218,-0.683565009,-1.527631279,0.076618079,20728.59218,0.3617705,-0.112180419,-0.215523396,-0.605740547,-1.603524327,0.081229694,0.1119036,0.066841938,0.204763696,0.095605258,0.074144726,-0.184506778,-0.97535606,-0.109355383,0.213858739,-0.970724404,22.98048019,10.89891815,-32.97411346,2,20724.34949
629.106,62.9106,1478282699,37.35286837,-122.0355891,53.01953,0,2.109375,6,10,1478282700,22.04090309,7.9429245,-30.56441498,286.7506104,273.2919312,10,20728.59562,0.005081177,0.326766968,-0.70375061,20728.59218,-0.683565009,-1.527631279,0.076618079,20728.59218,0.3617705,-0.112180419,-0.215523396,-0.605740547,-1.603524327,0.081229694,0.1119036,0.066841938,0.204763696,0.095605258,0.074144726,-0.184506778,-0.97535606,-0.109355383,0.213858739,-0.970724404,22.98048019,10.89891815,-32.97411346,2,20724.34949
638.786,63.8786,1478282699,37.35286837,-122.0355891,53.01953,0,2.109375,6,10,1478282700,20.88840675,9.235115051,-31.2012558,288.1426086,274.6839294,10,20728.6053,-0.012512207,0.344146729,-0.707382202,20728.59218,-0.683565009,-1.527631279,0.076618079,20728.59218,0.3617705,-0.112180419,-0.215523396,-0.605740547,-1.603524327,0.081229694,0.1119036,0.066841938,0.204763696,0.095605258,0.074144726,-0.184506778,-0.97535606,-0.109355383,0.213858739,-0.970724404,22.98048019,10.89891815,-32.97411346,2,20724.34949
648.464,64.8464,1478282699,37.35286837,-122.0355891,53.01953,0,2.109375,6,10,1478282700,20.88840675,9.235115051,-31.2012558,288.1426086,274.6839294,10,20728.61498,-0.027313232,0.370529175,-0.705108643,20728.60217,-0.706219987,-1.725892437,0.187793337,20728.60217,0.362667283,-0.129373778,-0.221977917,-0.628396094,-1.801784992,0.192404911,0.11333549,0.123987287,0.259929627,0.09713147,0.083123776,-0.18589943,-0.974216258,-0.125847697,0.220159441,-0.967311859,21.4516716,11.43259621,-33.8127594,2,20724.34949
658.143,65.8143,1478282699,37.35286837,-122.0355891,53.01953,0,2.109375,6,10,1478282700,20.88840675,9.235115051,-31.2012558,288.1426086,274.6839294,10,20728.62466,-0.067398071,0.403274536,-0.71572876,20728.62212,-0.328641802,-2.776942517,0.354342638,20728.62212,0.367486854,-0.1759598,-0.231420892,-0.250818044,-2.85283494,0.358954221,0.143073305,0.141168401,0.253203452,0.097123102,0.10682255,-0.190761145,-0.970961499,-0.170386538,0.229360774,-0.958312094,21.4516716,11.43259621,-33.8127594,2,20724.34949
667.822,66.7822,1478282699,37.35286837,-122.0355891,53.01953,0,2.109375,6,10,1478282700,20.88840675,9.235115051,-31.2012558,288.1426086,274.6839294,10,20728.63433,-0.111114502,0.461181641,-0.733856201,20728.62212,-0.328641802,-2.776942517,0.354342638,20728.62212,0.367486854,-0.1759598,-0.231420892,-0.250818044,-2.85283494,0.358954221,0.143073305,0.141168401,0.253203452,0.097123102,0.10682255,-0.190761145,-0.970961499,-0.170386538,0.229360774,-0.958312094,21.4516716,11.43259621,-33.8127594,2,20724.34949
677.501,67.7501,1478282699,37.35286837,-122.0355891,53.01953,0,2.109375,6,10,1478282700,20.88840675,9.235115051,-31.2012558,288.1426086,274.6839294,10,20728.64401,-0.140457153,0.468490601,-0.804992676,20728.63211,-0.029024994,-3.570770384,0.370834795,20728.63211,0.371252376,-0.209472024,-0.232393729,0.048798446,-3.646662235,0.375446349,0.091239035,0.230874076,0.217990145,0.094154648,0.123335831,-0.194225129,-0.968607131,-0.202353537,0.230307564,-0.951846361,19.30442047,11.787323,-34.9654007,2,20724.34949
687.18,68.718,1478282699,37.35286837,-122.0355891,53.01953,0,2.109375,6,10,1478282700,18.8278904,9.898674011,-31.97216034,288.8598938,275.4012146,10,20728.65369,-0.169769287,0.45703125,-0.828399658,20728.65212,0.537240019,-5.555736464,0.369938109,20728.65212,0.380437797,-0.304732683,-0.226784531,0.615062833,-5.631628513,0.374549687,0.151898384,0.243645042,0.124508649,0.081308448,0.169228461,-0.202546976,-0.961106335,-0.292355537,0.224845558,-0.929501355,17.42174339,11.66087341,-35.98176956,2,20724.34949
696.854,69.6854,1478282699,37.35286837,-122.0355891,53.01953,0,2.109375,6,10,1478282700,18.8278904,9.898674011,-31.97216034,288.8598938,275.4012146,10,20728.66337,-0.200820923,0.464614868,-0.858322144,20728.65212,0.537240019,-5.555736464,0.369938109,20728.65212,0.380437797,-0.304732683,-0.226784531,0.615062833,-5.631628513,0.374549687,0.151898384,0.243645042,0.124508649,0.081308448,0.169228461,-0.202546976,-0.961106335,-0.292355537,0.224845558,-0.929501355,17.42174339,11.66087341,-35.98176956,2,20724.34949
706.538,70.6538,1478282699,37.35286837,-122.0355891,53.01953,0,2.109375,6,10,1478282700,18.8278904,9.898674011,-31.97216034,288.8598938,275.4012146,10,20728.67305,-0.249084473,0.485794067,-0.884765625,20728.66212,0.865251451,-6.446279423,0.480465153,20728.66212,0.38795689,-0.365207467,-0.222761839,0.943067193,-6.522169113,0.485076845,0.14749752,0.243690804,0.05264812,0.072465558,0.198150475,-0.208190179,-0.955061245,-0.348318428,0.220924065,-0.910970271,17.42174339,11.66087341,-35.98176956,2,20724.34949
716.215,71.6215,1478282699,37.35286837,-122.0355891,53.01953,0,2.109375,6,10,1478282700,10.20166206,9.02557373,-35.08930206,286.8468323,273.3881531,10,20728.68273,-0.357879639,0.504714966,-0.929519653,20728.6821,1.506776597,-7.699034661,0.847759276,20728.6821,0.412526075,-0.506796731,-0.204420644,1.584592223,-7.774924278,0.852370918,0.226188436,0.282794178,-0.028665926,0.045605118,0.264329952,-0.222265533,-0.937362194,-0.475272924,0.202999905,-0.856099725,17.42174339,11.66087341,-35.98176956,2,20724.34949
725.876,72.5876,1478282699,37.35286837,-122.0355891,53.01953,0,2.109375,6,10,1478282700,10.20166206,9.02557373,-35.08930206,286.8468323,273.3881531,10,20728.69239,-0.455780029,0.528839111,-0.963485718,20728.6821,1.506776597,-7.699034661,0.847759276,20728.6821,0.412526075,-0.506796731,-0.204420644,1.584592223,-7.774924278,0.852370918,0.226188436,0.282794178,-0.028665926,0.045605118,0.264329952,-0.222265533,-0.937362194,-0.475272924,0.202999905,-0.856099725,17.42174339,11.66087341,-35.98176956,2,20724.34949
735.565,73.5565,1478282699,37.35286837,-122.0355891,53.01953,0,2.109375,6,10,1478282700,10.20166206,9.02557373,-35.08930206,286.8468323,273.3881531,10,20728.70208,-0.510955811,0.54145813,-0.991622925,20728.69209,1.865200796,-8.14167547,1.106908552,20728.69209,0.431440936,-0.584081036,-0.194080791,1.943016052,-8.217564583,1.11152029,0.085300013,0.335974455,-0.144928694,0.029298311,0.29977174,-0.231271808,-0.925090192,-0.541080058,0.192864671,-0.818557024,6.787447929,9.832660675,-39.89273834,2,20724.34949
745.25,74.525,1478282699,37.35286837,-122.0355891,53.01953,0,2.109375,6,10,1478282700,10.20166206,9.02557373,-35.08930206,286.8468323,273.3881531,10,20728.71176,-0.608352661,0.544921875,-0.982574463,20728.71207,2.806345946,-8.718488465,1.512954066,20728.71207,0.484758692,-0.746865151,-0.171716885,2.884160995,-8.794378281,1.517565608,0.158394694,0.370583892,-0.268593252,-0.009728394,0.372008767,-0.253017783,-0.893026784,-0.669350505,0.170874238,-0.723029673,1.974075317,8.58245182,-40.70166397,2,20724.34949
754.919,75.4919,1478282699,37.35286837,-122.0355891,53.01953,0,2.109375,6,10,1478282700,10.20166206,9.02557373,-35.08930206,286.8468323,273.3881531,10,20728.72143,-0.730422974,0.553985596,-0.933258057,20728.71207,2.806345946,-8.718488465,1.512954066,20728.71207,0.484758692,-0.746865151,-0.171716885,2.884160995,-8.794378281,1.517565608,0.158394694,0.370583892,-0.268593252,-0.009728394,0.372008767,-0.253017783,-0.893026784,-0.669350505,0.170874238,-0.723029673,1.974075317,8.58245182,-40.70166397,2,20724.34949
764.608,76.4608,1478282699,37.35286837,-122.0355891,53.01953,0,2.109375,6,10,1478282700,10.20166206,9.02557373,-35.08930206,286.8468323,273.3881531,10,20728.73112,-0.856628418,0.548294067,-0.898101807,20728.72207,3.369197852,-8.677300016,1.752364258,20728.72207,0.520600987,-0.828640307,-0.160475531,3.447012663,-8.753188133,1.756975889,-0.002879486,0.394197941,-0.26606366,-0.032377442,0.40663804,-0.266016363,-0.873402828,-0.727543473,0.15978764,-0.667194426,1.974075317,8.58245182,-40.70166397,2,20724.34949
774.287,77.4287,1478282699,37.35286837,-122.0355891,53.01953,0,2.109375,6,10,1478282700,2.762849808,7.174598694,-35.72614288,282.2715759,268.8128967,10,20728.7408,-0.981826782,0.538619995,-0.853927612,20728.74205,4.459710387,-8.342889008,2.092807858,20728.74205,0.611445695,-0.98581119,-0.141265627,4.5375247,-8.418777466,2.0974195,-0.031213151,0.407497823,-0.351415366,-0.082776016,0.468833569,-0.296339232,-0.827965142,-0.825415254,0.140796244,-0.546686411,1.974075317,8.58245182,-40.70166397,2,20724.34949
783.966,78.3966,1478282699,37.35286837,-122.0355891,53.01953,0,2.109375,6,10,1478282700,2.762849808,7.174598694,-35.72614288,282.2715759,268.8128967,10,20728.75048,-1.110931396,0.516876221,-0.780670166,20728.74205,4.459710387,-8.342889008,2.092807858,20728.74205,0.611445695,-0.98581119,-0.141265627,4.5375247,-8.418777466,2.0974195,-0.031213151,0.407497823,-0.351415366,-0.082776016,0.468833569,-0.296339232,-0.827965142,-0.825415254,0.140796244,-0.546686411,1.974075317,8.58245182,-40.70166397,2,20724.34949
793.645,79.3645,1478282699,37.35286837,-122.0355891,53.01953,0,2.109375,6,10,1478282700,-5.269670486,4.380683899,-35.05579376,276.1289978,262.6703186,10,20728.76016,-1.218353271,0.472106934,-0.70552063,20728.75204,4.917586608,-8.142394523,2.113924862,20728.75204,0.664647478,-1.061138652,-0.133972299,4.995401382,-8.2182827,2.118536472,-0.245841876,0.383304328,-0.297163516,-0.110140596,0.496100524,-0.312775675,-0.802449186,-0.865089536,0.133571893,-0.48350665,-13.34725571,2.807474136,-39.34653473,2,20724.34949
803.299,80.3299,1478282699,37.35286837,-122.0355891,53.01953,0,2.109375,6,10,1478282700,-5.269670486,4.380683899,-35.05579376,276.1289978,262.6703186,10,20728.76981,-1.310592651,0.431442261,-0.622299194,20728.77202,5.55257902,-7.492985887,1.827778056,20728.77202,0.780545729,-1.203043822,-0.123826735,5.630393028,-7.568873882,1.832389712,-0.292360336,0.348596394,-0.348754257,-0.16770064,0.541750226,-0.345444422,-0.747697358,-0.925992906,0.12351054,-0.356766373,-18.03364372,0.427487373,-37.53379822,2,20724.34949
812.973,81.2973,1478282699,37.35286837,-122.0355891,53.01953,0,2.109375,6,10,1478282700,-5.269670486,4.380683899,-35.05579376,276.1289978,262.6703186,10,20728.77949,-1.405288696,0.393585205,-0.526260376,20728.77202,5.55257902,-7.492985887,1.827778056,20728.77202,0.780545729,-1.203043822,-0.123826735,5.630393028,-7.568873882,1.832389712,-0.292360336,0.348596394,-0.348754257,-0.16770064,0.541750226,-0.345444422,-0.747697358,-0.925992906,0.12351054,-0.356766373,-18.03364372,0.427487373,-37.53379822,2,20724.34949
822.682,82.2682,1478282699,37.35286837,-122.0355891,53.01953,0,2.109375,6,10,1478282700,-5.269670486,4.380683899,-35.05579376,276.1289978,262.6703186,10,20728.78919,-1.473297119,0.351669312,-0.420837402,20728.78199,5.692463154,-7.01744119,1.545346094,20728.78199,0.840514628,-1.267875851,-0.120294358,5.770277023,-7.09332943,1.549957752,-0.457716942,0.27358076,-0.230107173,-0.197010567,0.559562538,-0.360634786,-0.719735475,-0.947571754,0.120004445,-0.296153218,-18.03364372,0.427487373,-37.53379822,2,20724.34949
832.35,83.235,1478282699,37.35286837,-122.0355891,53.01953,0,2.109375,6,10,1478282700,-13.79112625,1.02796936,-33.17881012,265.9235535,252.4648895,10,20728.79886,-1.512023926,0.327163696,-0.320449829,20728.802,5.652236639,-5.653131993,0.896111096,20728.802,0.958790105,-1.379569281,-0.114337983,5.730050087,-5.729019642,0.900722682,-0.497935802,0.237580299,-0.232014701,-0.2539351,0.584042477,-0.387475469,-0.666538905,-0.975361288,0.11408902,-0.188822702,-26.998909,-5.101083279,-31.29247284,2,20724.34949
842.031,84.2031,1478282699,37.35286837,-122.0355891,53.01953,0,2.109375,6,10,1478282700,-13.79112625,1.02796936,-33.17881012,265.9235535,252.4648895,10,20728.80854,-1.537261963,0.292037964,-0.246917725,20728.802,5.652236639,-5.653131993,0.896111096,20728.802,0.958790105,-1.379569281,-0.114337983,5.730050087,-5.729019642,0.900722682,-0.497935802,0.237580299,-0.232014701,-0.2539351,0.584042477,-0.387475469,-0.666538905,-0.975361288,0.11408902,-0.188822702,-26.998909,-5.101083279,-31.29247284,2,20724.34949
851.716,85.1716,1478282699,37.35286837,-122.0355891,53.01953,0,2.109375,6,10,1478282700,-13.79112625,1.02796936,-33.17881012,265.9235535,252.4648895,10,20728.81823,-1.476303101,0.193649292,-0.1537323,20728.802,5.652236639,-5.653131993,0.896111096,20728.802,0.958790105,-1.379569281,-0.114337983,5.730050087,-5.729019642,0.900722682,-0.497935802,0.237580299,-0.232014701,-0.2539351,0.584042477,-0.387475469,-0.666538905,-0.975361288,0.11408902,-0.188822702,-26.998909,-5.101083279,-31.29247284,2,20724.34949
861.374,86.1374,1478282699,37.35286837,-122.0355891,53.01953,0,2.109375,6,10,1478282700,-21.64902878,-2.848594666,-29.39130402,256.9096069,243.4509277,10,20728.82789,-1.448516846,0.170135498,-0.077316284,20728.83197,4.801741231,-2.988717353,0.582572347,20728.83197,1.120350877,-1.487148394,-0.112371085,4.879554749,-3.064604759,0.587183893,-0.486084491,0.081514545,-0.070708834,-0.324088779,0.594520588,-0.422677291,-0.602375001,-0.990218639,0.112134747,-0.083023466,-31.51218605,-9.173086166,-25.63235283,2,20724.34949
871.061,87.1061,1478282699,37.35286837,-122.0355891,53.01953,0,2.109375,6,10,1478282700,-21.64902878,-2.848594666,-29.39130402,256.9096069,243.4509277,10,20728.83757,-1.394073486,0.151321411,-0.016052246,20728.83197,4.801741231,-2.988717353,0.582572347,20728.83197,1.120350877,-1.487148394,-0.112371085,4.879554749,-3.064604759,0.587183893,-0.486084491,0.081514545,-0.070708834,-0.324088779,0.594520588,-0.422677291,-0.602375001,-0.990218639,0.112134747,-0.083023466,-31.51218605,-9.173086166,-25.63235283,2,20724.34949
880.742,88.0742,1478282699,37.35286837,-122.0355891,53.01953,0,2.109375,6,10,1478282700,-27.90042496,-6.445762634,-24.93346405,245.5091858,232.0505219,10,20728.84725,-1.334701538,0.1015625,0.03187561,20728.83197,4.801741231,-2.988717353,0.582572347,20728.83197,1.120350877,-1.487148394,-0.112371085,4.879554749,-3.064604759,0.587183893,-0.486084491,0.081514545,-0.070708834,-0.324088779,0.594520588,-0.422677291,-0.602375001,-0.990218639,0.112134747,-0.083023466,-31.51218605,-9.173086166,-25.63235283,2,20724.34949
890.436,89.0436,1478282700,37.3529138,-122.0355847,54.03052,0,2.109375,4,10,1478282700,-27.90042496,-6.445762634,-24.93346405,245.5091858,232.0505219,10,20728.85695,-1.310501099,0.074401855,0.09034729,20728.85195,3.664298205,-1.638796949,0.655159466,20728.85195,1.205200811,-1.520777215,-0.119150794,3.742110968,-1.71468401,0.659771025,-0.343033433,-0.017306564,0.08151938,-0.354395901,0.591254312,-0.443754611,-0.572628787,-0.991668105,0.118869066,-0.049643766,-31.51218605,-9.173086166,-25.63235283,2,20724.34949
900.118,90.0118,1478282700,37.3529138,-122.0355847,54.03052,0,2.109375,4,10,1478282700,-27.90042496,-6.445762634,-24.93346405,245.5091858,232.0505219,10,20728.86663,-1.325195313,0.077285767,0.139663696,20728.86194,3.051848386,-1.153412938,0.760551403,20728.86194,1.238535397,-1.530137226,-0.125027465,3.129661083,-1.229299784,0.765162945,-0.319126874,-0.050300129,0.130677909,-0.3645232,0.58903101,-0.453106295,-0.561123864,-0.991374254,0.124701984,-0.040330611,-33.51724625,-11.73502254,-21.75004387,2,20724.34949
909.798,90.9798,1478282700,37.3529138,-122.0355847,54.03052,0,2.109375,4,10,1478282700,-27.90042496,-6.445762634,-24.93346405,245.5091858,232.0505219,10,20728.87631,-1.349151611,0.090805054,0.177597046,20728.86194,3.051848386,-1.153412938,0.760551403,20728.86194,1.238535397,-1.530137226,-0.125027465,3.129661083,-1.229299784,0.765162945,-0.319126874,-0.050300129,0.130677909,-0.3645232,0.58903101,-0.453106295,-0.561123864,-0.991374254,0.124701984,-0.040330611,-33.51724625,-11.73502254,-21.75004387,2,20724.34949
919.461,91.9461,1478282700,37.3529138,-122.0355847,54.03052,0,2.109375,4,10,1478282700,-27.90042496,-6.445762634,-24.93346405,245.5091858,232.0505219,10,20728.88597,-1.360153198,0.107421875,0.196029663,20728.87194,2.457533096,-0.763418829,0.851100478,20728.87194,1.265849436,-1.535941737,-0.132376318,2.535345554,-0.839305401,0.855711937,-0.358502626,-0.041184988,0.212139696,-0.371645131,0.587033704,-0.461597273,-0.55154264,-0.990648985,0.131990045,-0.034542654,-33.51724625,-11.73502254,-21.75004387,2,20724.34949
929.154,92.9154,1478282700,37.3529138,-122.0355847,54.03052,0,2.109375,4,10,1478282700,-31.63729477,-9.20476532,-21.2800293,237.2278137,223.7691498,10,20728.89567,-1.372009277,0.123001099,0.214782715,20728.89192,1.40807532,-0.27689818,0.704664968,20728.89192,1.303853372,-1.540690264,-0.147221406,1.485887647,-0.352784634,0.709276438,-0.371418953,-0.039268289,0.225805551,-0.379408566,0.584090057,-0.474956767,-0.537869887,-0.988734245,0.14669016,-0.029775891,-34.30859375,-12.53077698,-20.0020256,2,20724.34949
938.825,93.8825,1478282700,37.3529138,-122.0355847,54.03052,0,2.109375,4,10,1478282700,-31.63729477,-9.20476532,-21.2800293,237.2278137,223.7691498,10,20728.90534,-1.363815308,0.130935669,0.216262817,20728.90191,0.986270551,-0.145080228,0.513933099,20728.90191,1.315802145,-1.541400485,-0.152534948,1.064082623,-0.220966443,0.518544614,-0.38404721,-0.028943034,0.243833065,-0.381472438,0.583055406,-0.47939885,-0.533574657,-0.987962067,0.151944131,-0.029050345,-34.30859375,-12.53077698,-20.0020256,2,20724.34949
948.511,94.8511,1478282700,37.3529138,-122.0355847,54.03052,0,2.109375,4,10,1478282700,-31.63729477,-9.20476532,-21.2800293,237.2278137,223.7691498,10,20728.91502,-1.330749512,0.114974976,0.221496582,20728.90191,0.986270551,-0.145080228,0.513933099,20728.90191,1.315802145,-1.541400485,-0.152534948,1.064082623,-0.220966443,0.518544614,-0.38404721,-0.028943034,0.243833065,-0.381472438,0.583055406,-0.47939885,-0.533574657,-0.987962067,0.151944131,-0.029050345,-34.30859375,-12.53077698,-20.0020256,2,20724.34949
958.19,95.819,1478282700,37.3529138,-122.0355847,54.03052,0,2.109375,4,10,1478282700,-35.7583313,-12.20822144,-16.25236511,226.3186951,212.8600159,10,20728.9247,-1.303283691,0.095687866,0.212631226,20728.92187,0.342957358,0.072860359,0.241919956,20728.92187,1.329026223,-1.541148284,-0.158779051,0.420769215,-0.003025636,0.246531427,-0.343762398,-0.043137759,0.25076741,-0.383395979,0.581697616,-0.484564286,-0.528992306,-0.986987114,0.158112735,-0.029270813,-34.78477097,-12.68328667,-19.06135178,2,20724.34949
967.85,96.785,1478282700,37.3529138,-122.0355847,54.03052,0,2.109375,4,10,1478282700,-35.7583313,-12.20822144,-16.25236511,226.3186951,212.8600159,10,20728.93436,-1.255386353,0.085739136,0.203094482,20728.92187,0.342957358,0.072860359,0.241919956,20728.92187,1.329026223,-1.541148284,-0.158779051,0.420769215,-0.003025636,0.246531427,-0.343762398,-0.043137759,0.25076741,-0.383395979,0.581697616,-0.484564286,-0.528992306,-0.986987114,0.158112735,-0.029270813,-34.78477097,-12.68328667,-19.06135178,2,20724.34949
977.547,97.7547,1478282700,37.3529138,-122.0355847,54.03052,0,2.109375,4,10,1478282700,-35.7583313,-12.20822144,-16.25236511,226.3186951,212.8600159,10,20728.94406,-1.198135376,0.075546265,0.188140869,20728.93188,0.107661483,0.219494009,0.183670231,20728.93188,1.331525842,-1.539695893,-0.160704993,0.18547304,0.143608302,0.18828167,-0.268748969,-0.074275017,0.233789235,-0.383195153,0.581217775,-0.48599523,-0.528352165,-0.986637354,0.160014153,-0.030694747,-34.78477097,-12.68328667,-19.06135178,2,20724.34949
987.227,98.7227,1478282700,37.3529138,-122.0355847,54.03052,0,2.109375,4,10,1478282700,-35.7583313,-12.20822144,-16.25236511,226.3186951,212.8600159,10,20728.95374,-1.158111572,0.060211182,0.171340942,20728.95184,-0.188909734,0.543855311,0.255334298,20728.95184,1.331393724,-1.532528145,-0.164841221,-0.111098334,0.467969775,0.25994572,-0.212413162,-0.088549443,0.225881085,-0.380172616,0.580171243,-0.488379762,-0.5294859,-0.985722184,0.1640957,-0.037740219,-34.8201561,-12.63640213,-19.02785301,2,20724.34949
996.903,99.6903,1478282700,37.3529138,-122.0355847,54.03052,0,2.109375,4,10,1478282700,-35.7583313,-12.20822144,-16.25236511,226.3186951,212.8600159,10,20728.96342,-1.124572754,0.050811768,0.181396484,20728.95184,-0.188909734,0.543855311,0.255334298,20728.95184,1.331393724,-1.532528145,-0.164841221,-0.111098334,0.467969775,0.25994572,-0.212413162,-0.088549443,0.225881085,-0.380172616,0.580171243,-0.488379762,-0.5294859,-0.985722184,0.1640957,-0.037740219,-34.8201561,-12.63640213,-19.02785301,2,20724.34949
1006.584,100.6584,1478282700,37.3529138,-122.0355847,54.03052,0,2.109375,4,10,1478282700,-35.7583313,-12.20822144,-16.25236511,226.3186951,212.8600159,10,20728.9731,-1.102462769,0.039108276,0.183746338,20728.96186,-0.218040189,0.643319585,0.395128417,20728.96186,1.330122802,-1.527273843,-0.168518863,-0.140229091,0.567434371,0.399739861,-0.139672026,-0.116910607,0.224288896,-0.37741354,0.579752373,-0.489968237,-0.530450123,-0.984900713,0.167722374,-0.042892411,-34.8201561,-12.63640213,-19.02785301,2,20724.34949
1016.251,101.6251,1478282700,37.3529138,-122.0355847,54.03052,0,2.109375,4,10,1478282700,-36.42188644,-12.31299591,-15.81663513,224.8347168,211.3760529,10,20728.98276,-1.101531982,0.032058716,0.207885742,20728.98184,-0.00100268,0.681182012,0.637795922,20728.98184,1.330125426,-1.515344168,-0.179996897,0.076808259,0.605296969,0.642407358,-0.120130762,-0.139918238,0.238274664,-0.371005148,0.578870464,-0.49507924,-0.531188019,-0.982331991,0.179026514,-0.054528333,-34.65711212,-12.26217079,-19.56283951,2,20724.34949
1025.925,102.5925,1478282700,37.3529138,-122.0355847,54.03052,0,2.109375,4,10,1478282700,-36.42188644,-12.31299591,-15.81663513,224.8347168,211.3760529,10,20728.99244,-1.12059021,0.050750732,0.257537842,20728.98184,-0.00100268,0.681182012,0.637795922,20728.98184,1.330125426,-1.515344168,-0.179996897,0.076808259,0.605296969,0.642407358,-0.120130762,-0.139918238,0.238274664,-0.371005148,0.578870464,-0.49507924,-0.531188019,-0.982331991,0.179026514,-0.054528333,-34.65711212,-12.26217079,-19.56283951,2,20724.34949
1035.619,103.5619,1478282700,37.3529138,-122.0355847,54.03052,0,2.109375,4,10,1478282700,-36.66635513,-11.92882538,-15.71608734,222.4754028,209.0167236,10,20729.00213,-1.109466553,0.02130127,0.337234497,20728.99183,0.144254914,0.644271132,0.648063473,20728.99183,1.332437408,-1.509148973,-0.186422287,0.222065538,0.568386376,0.652674854,-0.139783263,-0.134593636,0.318078697,-0.36818,0.578077032,-0.498432348,-0.530881933,-0.980806947,0.185344368,-0.060540866,-34.65711212,-12.26217079,-19.56283951,2,20724.34949
1045.3,104.53,1478282700,37.3529138,-122.0355847,54.03052,0,2.109375,4,10,1478282700,-36.66635513,-11.92882538,-15.71608734,222.4754028,209.0167236,10,20729.01181,-1.111343384,0.030593872,0.344116211,20729.01181,-0.134101879,0.706715069,0.517449537,20729.01181,1.335941641,-1.496338954,-0.197650198,-0.056291409,0.630830407,0.522060931,-0.131652579,-0.175064549,0.410174787,-0.362544077,0.576273929,-0.50445637,-0.531030999,-0.977813959,0.196365818,-0.072940305,-34.50481796,-11.5984869,-20.22557449,2,20724.34949
1054.977,105.4977,1478282700,37.3529138,-122.0355847,54.03052,0,2.109375,4,10,1478282700,-36.66635513,-11.92882538,-15.71608734,222.4754028,209.0167236,10,20729.02149,-1.076766968,0.083435059,0.392181396,20729.01181,-0.134101879,0.706715069,0.517449537,20729.01181,1.335941641,-1.496338954,-0.197650198,-0.056291409,0.630830407,0.522060931,-0.131652579,-0.175064549,0.410174787,-0.362544077,0.576273929,-0.50445637,-0.531030999,-0.977813959,0.196365818,-0.072940305,-34.50481796,-11.5984869,-20.22557449,2,20724.34949
1064.659,106.4659,1478282700,37.3529138,-122.0355847,54.03052,0,2.109375,4,10,1478282700,-36.87590027,-11.50973511,-15.78312683,221.4466553,207.9879761,10,20729.03117,-1.042922974,0.114593506,0.449081421,20729.02181,-0.626592802,0.705959797,0.447106664,20729.02181,1.332064795,-1.49085728,-0.202669398,-0.548782647,0.630075455,0.451718032,-0.100362271,-0.117849752,0.470400929,-0.358497405,0.576515254,-0.505632669,-0.532395884,-0.976404667,0.201284811,-0.078219548,-34.50481796,-11.5984869,-20.22557449,2,20724.34949
1074.339,107.4339,1478282700,37.3529138,-122.0355847,54.03052,0,2.109375,4,10,1478282700,-36.87590027,-11.50973511,-15.78312683,221.4466553,207.9879761,10,20729.04085,-1.060913086,0.124099731,0.408859253,20729.04178,-1.7934065,0.963566303,0.279181574,20729.04178,1.306788005,-1.480361311,-0.211570639,-1.715596437,0.88768214,0.283792943,-0.06921602,-0.095402271,0.537379444,-0.345776001,0.579905106,-0.502864032,-0.539700649,-0.973706961,0.209995776,-0.088298053,-34.31529236,-11.01712608,-20.86299515,2,20724.34949
1084.011,108.4011,1478282700,37.3529138,-122.0355847,54.03052,0,2.109375,4,10,1478282700,-36.87590027,-11.50973511,-15.78312683,221.4466553,207.9879761,10,20729.05052,-1.074493408,0.116973877,0.323440552,20729.04178,-1.7934065,0.963566303,0.279181574,20729.04178,1.306788005,-1.480361311,-0.211570639,-1.715596437,0.88768214,0.283792943,-0.06921602,-0.095402271,0.537379444,-0.345776001,0.579905106,-0.502864032,-0.539700649,-0.973706961,0.209995776,-0.088298053,-34.31529236,-11.01712608,-20.86299515,2,20724.34949
1093.699,109.3699,1478282700,37.3529138,-122.0355847,54.03052,0,2.109375,4,10,1478282700,-36.87590027,-11.50973511,-15.78312683,221.4466553,207.9879761,10,20729.06021,-1.093643188,0.094772339,0.254852295,20729.05178,-2.324168647,1.028689114,0.243673913,20729.05178,1.285435821,-1.475521557,-0.216069616,-2.246358871,0.952805281,0.248285249,-0.102175526,-0.09741842,0.416359246,-0.336939841,0.583105653,-0.498991638,-0.545405067,-0.972317874,0.21439229,-0.092918679,-34.31529236,-11.01712608,-20.86299515,2,20724.34949
1103.379,110.3379,1478282700,37.3529138,-122.0355847,54.03052,0,2.109375,4,10,1478282700,-37.05052185,-10.84618378,-16.41996765,222.4072876,208.9486237,10,20729.06989,-1.09413147,0.103744507,0.181488037,20729.06175,-2.693647893,1.097200265,0.226308239,20729.06175,1.259853568,-1.471042658,-0.220856532,-2.615838289,1.021316528,0.23091957,-0.122783542,-0.124293089,0.352021635,-0.326822655,0.587028353,-0.493887239,-0.551960198,-0.970859647,0.219065428,-0.097169332,-33.82906723,-9.544252396,-22.33119965,2,20724.34949
1113.058,111.3058,1478282700,37.3529138,-122.0355847,54.03052,0,2.109375,4,10,1478282700,-37.05052185,-10.84618378,-16.41996765,222.4072876,208.9486237,10,20729.07957,-1.077484131,0.147720337,0.09185791,20729.07174,-2.912562131,1.159502788,0.218450049,20729.07174,1.231671941,-1.466609452,-0.225934192,-2.834786415,1.083527565,0.223048836,-0.124830946,-0.120272405,0.282843441,-0.315801031,0.591263065,-0.48802277,-0.559027256,-0.969300508,0.224016905,-0.101355396,-33.82906723,-9.544252396,-22.33119965,2,20724.34949
1122.735,112.2735,1478282700,37.3529138,-122.0355847,54.03052,0,2.109375,4,10,1478282700,-36.42189026,-9.44921875,-17.6266098,225.1703491,211.7116699,10,20729.08925,-1.032699585,0.183914185,0.018585205,20729.08173,-3.040551257,1.173335513,0.236770734,20729.08173,1.201981583,-1.46239225,-0.231375657,-2.962775469,1.097360492,0.241369516,-0.109845825,-0.081596404,0.197166681,-0.304200369,0.59565741,-0.481674717,-0.566254229,-0.967638314,0.229316741,-0.105308771,-33.82906723,-9.544252396,-22.33119965,2,20724.34949
1132.414,113.2414,1478282700,37.3529138,-122.0355847,54.03052,0,2.109375,4,10,1478282700,-36.42189026,-9.44921875,-17.6266098,225.1703491,211.7116699,10,20729.09893,-1.017440796,0.188598633,-0.036514282,20729.10172,-2.953236591,1.097874844,0.191150784,20729.10172,1.142250032,-1.455303291,-0.242356564,-2.875461102,1.021900058,0.195749551,-0.068391688,-0.056076799,0.130453885,-0.280970869,0.604252455,-0.468351427,-0.580156256,-0.964307904,0.239990979,-0.11186868,-33.14082718,-7.330441952,-24.12739563,2,20724.34949
1142.086,114.2086,1478282700,37.3529138,-122.0355847,54.03052,0,2.109375,4,10,1478282700,-36.42189026,-9.44921875,-17.6266098,225.1703491,211.7116699,10,20729.1086,-1.030929565,0.175338745,-0.124710083,20729.10172,-2.953236591,1.097874844,0.191150784,20729.10172,1.142250032,-1.455303291,-0.242356564,-2.875461102,1.021900058,0.195749551,-0.068391688,-0.056076799,0.130453885,-0.280970869,0.604252455,-0.468351427,-0.580156256,-0.964307904,0.239990979,-0.11186868,-33.14082718,-7.330441952,-24.12739563,2,20724.34949
1151.772,115.1772,1478282700,37.3529138,-122.0355847,54.03052,0,2.109375,4,10,1478282700,-36.42189026,-9.44921875,-17.6266098,225.1703491,211.7116699,10,20729.11828,-1.027297974,0.200134277,-0.146957397,20729.11171,-2.767680842,0.951503249,0.142657284,20729.11171,1.114431242,-1.452847806,-0.247132831,-2.689905643,0.875528693,0.147256032,-0.068048552,-0.069286168,-0.010610087,-0.270367651,0.608154039,-0.461791966,-0.586343055,-0.962881029,0.244624913,-0.114099994,-33.14082718,-7.330441952,-24.12739563,2,20724.34949
1161.448,116.1448,1478282700,37.3529138,-122.0355847,54.03052,0,2.109375,4,10,1478282700,-35.86310577,-8.261802673,-18.90029144,229.0565186,215.5978546,10,20729.12796,-1.044311523,0.260299683,-0.154937744,20729.12172,-2.501034235,0.829510764,0.092253232,20729.12172,1.089011018,-1.451318234,-0.251156412,-2.423259258,0.753536403,0.096851967,-0.065577656,-0.048389979,-0.031502992,-0.260905537,0.611719787,-0.455539391,-0.591786334,-0.961720347,0.248524249,-0.115454406,-32.45575714,-5.05756855,-25.59737968,2,20724.34949
1171.129,117.1129,1478282700,37.3529138,-122.0355847,54.03052,0,2.109375,4,10,1478282700,-35.86310577,-8.261802673,-18.90029144,229.0565186,215.5978546,10,20729.13764,-1.0181427,0.279815674,-0.197723389,20729.13171,-2.14448357,0.648505558,0.074327761,20729.13171,1.066970469,-1.450578373,-0.254533003,-2.066708565,0.572531343,0.078926489,-0.083515473,0.008506197,-0.038873132,-0.252831463,0.614852784,-0.449959806,-0.59629563,-0.960796058,0.251793474,-0.116064608,-32.45575714,-5.05756855,-25.59737968,2,20724.34949
1180.806,118.0806,1478282700,37.3529138,-122.0355847,54.03052,0,2.109375,4,10,1478282700,-35.86310577,-8.261802673,-18.90029144,229.0565186,215.5978546,10,20729.14732,-0.981063843,0.247543335,-0.233779907,20729.13171,-2.14448357,0.648505558,0.074327761,20729.13171,1.066970469,-1.450578373,-0.254533003,-2.066708565,0.572531343,0.078926489,-0.083515473,0.008506197,-0.038873132,-0.252831463,0.614852784,-0.449959806,-0.59629563,-0.960796058,0.251793474,-0.116064608,-32.45575714,-5.05756855,-25.59737968,2,20724.34949
1190.476,119.0476,1478282700,37.3529138,-122.0355847,54.03052,0,2.109375,4,10,1478282700,-35.3741684,-6.79499054,-20.37506866,232.3890381,218.9303741,10,20729.15699,-0.953994751,0.205657959,-0.244247437,20729.15168,-1.30055605,0.028689435,0.104175405,20729.15168,1.035365386,-1.45453859,-0.260152152,-1.22278142,-0.047284588,0.108774118,-0.021236172,-0.009684253,-0.121687047,-0.242028521,0.620786409,-0.44147529,-0.60095424,-0.959827662,0.2572276,-0.11209286,-32.14760208,-3.887138367,-26.18401337,2,20724.34949
1200.162,120.0162,1478282700,37.3529138,-122.0355847,54.03052,0,2.109375,4,10,1478282700,-34.99000549,-5.363105774,-21.41412354,234.9762878,221.5176086,10,20729.16667,-0.969406128,0.165786743,-0.132659912,20729.16167,-0.660985131,-0.203912652,0.105942945,20729.16167,1.027750147,-1.458819826,-0.262114141,-0.583210707,-0.279886425,0.110541649,0.005800654,-0.053465102,-0.13632144,-0.239929276,0.623274374,-0.43918753,-0.600897088,-0.959795415,0.259123057,-0.107925996,-32.14760208,-3.887138367,-26.18401337,2,20724.34949
1209.841,120.9841,1478282700,37.3529138,-122.0355847,54.03052,0,2.109375,4,10,1478282700,-34.99000549,-5.363105774,-21.41412354,234.9762878,221.5176086,10,20729.17635,-0.968917847,0.147476196,-0.17906189,20729.16167,-0.660985131,-0.203912652,0.105942945,20729.16167,1.027750147,-1.458819826,-0.262114141,-0.583210707,-0.279886425,0.110541649,0.005800654,-0.053465102,-0.13632144,-0.239929276,0.623274374,-0.43918753,-0.600897088,-0.959795415,0.259123057,-0.107925996,-32.14760208,-3.887138367,-26.18401337,2,20724.34949
1219.499,121.9499,1478282700,37.3529138,-122.0355847,54.03052,0,2.109375,4,10,1478282700,-34.99000549,-5.363105774,-21.41412354,234.9762878,221.5176086,10,20729.18601,-0.946990967,0.206634521,-0.229385376,20729.19164,0.757850425,-0.608799424,0.09510308,20729.19164,1.039271785,-1.470389778,-0.264575731,0.835624576,-0.684772968,0.09970177,-0.008575564,-0.114023589,-0.082311891,-0.245233087,0.625688207,-0.441876596,-0.594239072,-0.960342288,0.261499792,-0.096749999,-32.21164703,-2.985175133,-26.22364235,2,20724.34949
1229.2,122.92,1478282700,37.3529138,-122.0355847,54.03052,0,2.109375,4,10,1478282700,-34.99000549,-5.363105774,-21.41412354,234.9762878,221.5176086,10,20729.19571,-0.911773682,0.275192261,-0.138671875,20729.19164,0.757850425,-0.608799424,0.09510308,20729.19164,1.039271785,-1.470389778,-0.264575731,0.835624576,-0.684772968,0.09970177,-0.008575564,-0.114023589,-0.082311891,-0.245233087,0.625688207,-0.441876596,-0.594239072,-0.960342288,0.261499792,-0.096749999,-32.21164703,-2.985175133,-26.22364235,2,20724.34949
1238.879,123.8879,1478282700,37.3529138,-122.0355847,54.03052,0,2.109375,4,10,1478282700,-34.99000549,-5.363105774,-21.41412354,234.9762878,221.5176086,10,20729.20539,-0.878768921,0.250869751,-0.076980591,20729.20165,0.996473121,-0.659064992,0.009129849,20729.20165,1.049814996,-1.474860552,-0.263948987,1.074246883,-0.735038221,0.013728515,0.049154501,0.014297462,-0.046200618,-0.249735069,0.625617109,-0.444280931,-0.59063532,-0.960928202,0.260894805,-0.092471257,-32.21164703,-2.985175133,-26.22364235,2,20724.34949
1248.55,124.855,1478282700,37.3529138,-122.0355847,54.03052,0,2.109375,4,10,1478282700,-34.46614456,-4.490013123,-22.05096436,235.8536682,222.3950043,10,20729.21506,-0.87588501,0.147689819,-0.084945679,20729.20165,0.996473121,-0.659064992,0.009129849,20729.20165,1.049814996,-1.474860552,-0.263948987,1.074246883,-0.735038221,0.013728515,0.049154501,0.014297462,-0.046200618,-0.249735069,0.625617109,-0.444280931,-0.59063532,-0.960928202,0.260894805,-0.092471257,-32.21164703,-2.985175133,-26.22364235,2,20724.34949
1258.238,125.8238,1478282700,37.3529138,-122.0355847,54.03052,0,2.109375,4,10,1478282700,-34.46614456,-4.490013123,-22.05096436,235.8536682,222.3950043,10,20729.22475,-0.895355225,0.150131226,-0.108215332,20729.22161,1.203843355,-0.787904731,0.040876061,20729.22161,1.075349998,-1.484418642,-0.261695635,1.281616926,-0.863877714,0.045474712,0.086466365,-0.111029007,-0.00161264,-0.260616348,0.624830056,-0.449956002,-0.582414042,-0.962351382,0.258718818,-0.083333038,-32.8406601,-3.599825859,-25.35179138,2,20724.34949
1267.899,126.7899,1478282700,37.3529138,-122.0355847,54.03052,0,2.109375,4,10,1478282700,-34.46614456,-4.490013123,-22.05096436,235.8536682,222.3950043,10,20729.23441,-0.930358887,0.215194702,0.000747681,20729.23163,1.167187606,-0.727722883,0.1663983,20729.23163,1.08841498,-1.48945463,-0.262035818,1.244960904,-0.803695619,0.170996934,0.067315832,-0.108916186,-0.029736875,-0.265720283,0.624622688,-0.453172388,-0.577818324,-0.962671041,0.259047419,-0.078478456,-32.8406601,-3.599825859,-25.35179138,2,20724.34949
1277.573,127.7573,1478282700,37.3529138,-122.0355847,54.03052,0,2.109375,4,10,1478282700,-34.78046036,-4.594779968,-22.21855164,234.6913452,221.2326813,10,20729.24409,-0.951782227,0.237915039,-0.018280029,20729.23163,1.167187606,-0.727722883,0.1663983,20729.23163,1.08841498,-1.48945463,-0.262035818,1.244960904,-0.803695619,0.170996934,0.067315832,-0.108916186,-0.029736875,-0.265720283,0.624622688,-0.453172388,-0.577818324,-0.962671041,0.259047419,-0.078478456,-32.8406601,-3.599825859,-25.35179138,2,20724.34949
1287.247,128.7247,1478282700,37.3529138,-122.0355847,54.03052,0,2.109375,4,10,1478282700,-34.99000549,-4.594779968,-22.01745605,233.3135071,219.8548279,10,20729.25376,-0.960235596,0.210769653,-0.07359314,20729.25158,0.989794712,-0.200030562,0.382066411,20729.25158,1.112687992,-1.49182191,-0.266457852,1.067567825,-0.276003063,0.386665016,0.00992056,-0.025400912,0.05782818,-0.272354335,0.622711017,-0.460977867,-0.570572967,-0.961702764,0.263315946,-0.07610821,-33.4493866,-4.446269989,-24.40389633,2,20724.34949
1296.921,129.6921,1478282700,37.3529138,-122.0355847,54.03052,0,2.109375,4,10,1478282700,-34.99000549,-4.594779968,-22.01745605,233.3135071,219.8548279,10,20729.26343,-0.951141357,0.228378296,-0.116226196,20729.25158,0.989794712,-0.200030562,0.382066411,20729.25158,1.112687992,-1.49182191,-0.266457852,1.067567825,-0.276003063,0.386665016,0.00992056,-0.025400912,0.05782818,-0.272354335,0.622711017,-0.460977867,-0.570572967,-0.961702764,0.263315946,-0.07610821,-33.4493866,-4.446269989,-24.40389633,2,20724.34949
1306.605,130.6605,1478282700,37.3529138,-122.0355847,54.03052,0,2.109375,4,10,1478282700,-34.99000549,-4.594779968,-22.01745605,233.3135071,219.8548279,10,20729.27312,-0.896347046,0.308883667,-0.160491943,20729.2616,0.921686764,-0.090653205,0.431225435,20729.2616,1.123456194,-1.490887561,-0.269932758,0.999459565,-0.16662541,0.435824037,0.009572015,-0.038288336,-0.039292958,-0.274331584,0.62151071,-0.465069491,-0.567606368,-0.960713387,0.266666621,-0.076933242,-33.6428833,-4.736754417,-24.08112717,2,20724.34949
1316.281,131.6281,1478282700,37.3529138,-122.0355847,54.03052,0,2.109375,4,10,1478282700,-34.99000549,-4.594779968,-22.01745605,233.3135071,219.8548279,10,20729.28279,-0.921676636,0.191833496,-0.064620972,20729.28158,1.255360342,0.050793673,0.201965082,20729.28158,1.148135929,-1.485974105,-0.27416606,1.333132982,-0.025178375,0.206563681,0.0628433,0.038139429,-0.078935601,-0.279417058,0.617371797,-0.473805877,-0.562393246,-0.959190369,0.270744234,-0.081556343,-33.6428833,-4.736754417,-24.08112717,2,20724.34949
1325.985,132.5985,1478282700,37.3529138,-122.0355847,54.03052,0,2.109375,4,10,1478282700,-34.99000549,-4.594779968,-22.01745605,233.3135071,219.8548279,10,20729.2925,-0.952804565,0.162109375,-0.056488037,20729.28158,1.255360342,0.050793673,0.201965082,20729.28158,1.148135929,-1.485974105,-0.27416606,1.333132982,-0.025178375,0.206563681,0.0628433,0.038139429,-0.078935601,-0.279417058,0.617371797,-0.473805877,-0.562393246,-0.959190369,0.270744234,-0.081556343,-33.6428833,-4.736754417,-24.08112717,2,20724.34949
1335.65,133.565,1478282700,37.3529138,-122.0355847,54.03052,0,2.109375,4,10,1478282700,-34.99000549,-4.594779968,-22.01745605,233.3135071,219.8548279,10,20729.30216,-0.869293213,0.31300354,0.011123657,20729.29155,1.371648869,0.076218339,0.19578575,20729.29155,1.163133774,-1.481905173,-0.274939907,1.449421287,0.000246592,0.200384319,0.00583702,-0.109379724,0.028951876,-0.282809761,0.614246435,-0.478781456,-0.559900236,-0.958641589,0.271489114,-0.085439913,-33.6428833,-4.736754417,-24.08112717,2,20724.34949
1345.334,134.5334,1478282700,37.3529138,-122.0355847,54.03052,0,2.109375,4,10,1478282701,-35.58370972,-5.258346558,-21.11247253,228.9940186,215.5353546,10,20729.31185,-0.815765381,0.333602905,0.047912598,20729.31155,1.068611763,0.420180241,-0.096397909,20729.31155,1.190271593,-1.4704124,-0.273050036,1.146383882,0.344208628,-0.091799334,0.088811927,0.043333814,0.107626379,-0.288942113,0.606845197,-0.487532963,-0.557281772,-0.958105147,0.269669741,-0.096502721,-33.75327682,-5.551041603,-23.75043297,2,20724.34949
1355.016,135.5016,1478282700,37.3529138,-122.0355847,54.03052,0,2.109375,4,10,1478282701,-35.58370972,-5.258346558,-21.11247253,228.9940186,215.5353546,10,20729.32153,-0.809707642,0.244857788,0.061599731,20729.31155,1.068611763,0.420180241,-0.096397909,20729.31155,1.190271593,-1.4704124,-0.273050036,1.146383882,0.344208628,-0.091799334,0.088811927,0.043333814,0.107626379,-0.288942113,0.606845197,-0.487532963,-0.557281772,-0.958105147,0.269669741,-0.096502721,-33.75327682,-5.551041603,-23.75043297,2,20724.34949
1364.686,136.4686,1478282700,37.3529138,-122.0355847,54.03052,0,2.109375,4,10,1478282701,-35.58370972,-5.258346558,-21.11247253,228.9940186,215.5353546,10,20729.3312,-0.756942749,0.251541138,0.055801392,20729.32155,0.765338169,0.520552386,-0.104919226,20729.32155,1.19963575,-1.463682298,-0.27103773,0.843110025,0.444581121,-0.100320674,0.148263946,-0.02287364,0.164606169,-0.290792867,0.603271321,-0.490623362,-0.557487164,-0.957971573,0.267731428,-0.103006445,-33.75327682,-5.551041603,-23.75043297,2,20724.34949
1374.374,137.4374,1478282700,37.3529138,-122.0355847,54.03052,0,2.109375,4,10,1478282701,-35.58370972,-5.258346558,-21.11247253,228.9940186,215.5353546,10,20729.34089,-0.765609741,0.268096924,-0.032897949,20729.34153,0.470201064,0.731954646,0.012581838,20729.34153,1.212050022,-1.448568441,-0.26900138,0.547972798,0.655983508,0.017180381,0.199901804,-0.014227725,0.173340395,-0.291462574,0.596892006,-0.495794926,-0.559425502,-0.956844568,0.265768856,-0.117539003,-33.49156189,-6.362076759,-23.91694641,2,20724.34949
1384.052,138.4052,1478282700,37.3529138,-122.0355847,54.03052,0,2.109375,4,10,1478282701,-35.58370972,-5.258346558,-21.11247253,228.9940186,215.5353546,10,20729.35056,-0.830718994,0.239837646,-0.124984741,20729.34153,0.470201064,0.731954646,0.012581838,20729.34153,1.212050022,-1.448568441,-0.26900138,0.547972798,0.655983508,0.017180381,0.199901804,-0.014227725,0.173340395,-0.291462574,0.596892006,-0.495794926,-0.559425502,-0.956844568,0.265768856,-0.117539003,-33.49156189,-6.362076759,-23.91694641,2,20724.34949
1393.739,139.3739,1478282700,37.3529138,-122.0355847,54.03052,0,2.109375,4,10,1478282701,-35.58370972,-5.258346558,-21.11247253,228.9940186,215.5353546,10,20729.36025,-0.870819092,0.210861206,-0.172515869,20729.35152,0.588531703,0.669531215,0.157115319,20729.35152,1.218652575,-1.440637535,-0.269431561,0.666303039,0.593560398,0.161713839,0.125049829,-0.026345903,0.000124277,-0.291313556,0.593786075,-0.498901589,-0.560046171,-0.955768824,0.266183555,-0.125109017,-33.49156189,-6.362076759,-23.91694641,2,20724.34949
1403.418,140.3418,1478282700,37.3529138,-122.0355847,54.03052,0,2.109375,4,10,1478282701,-35.79325485,-5.817131042,-20.91136169,227.0968018,213.6381226,10,20729.36993,-0.944869995,0.175064087,-0.184799194,20729.3715,1.00182927,0.537747618,0.353187625,20729.3715,1.238523258,-1.425742311,-0.272991182,1.079600453,0.461776942,0.357786149,0.082036652,-0.058751848,-0.033322707,-0.2922558,0.587358465,-0.507474043,-0.558629284,-0.952855766,0.269613057,-0.139193162,-33.06742477,-6.742526054,-24.39805031,2,20724.34949
1413.096,141.3096,1478282700,37.3529138,-122.0355847,54.03052,0,2.109375,4,10,1478282701,-35.79325485,-5.817131042,-20.91136169,227.0968018,213.6381226,10,20729.37961,-1.018096924,0.215698242,-0.245071411,20729.3715,1.00182927,0.537747618,0.353187625,20729.3715,1.238523258,-1.425742311,-0.272991182,1.079600453,0.461776942,0.357786149,0.082036652,-0.058751848,-0.033322707,-0.2922558,0.587358465,-0.507474043,-0.558629284,-0.952855766,0.269613057,-0.139193162,-33.06742477,-6.742526054,-24.39805031,2,20724.34949
1422.773,142.2773,1478282700,37.3529138,-122.0355847,54.03052,0,2.109375,4,10,1478282701,-35.79325485,-5.817131042,-20.91136169,227.0968018,213.6381226,10,20729.38929,-1.002120972,0.337097168,-0.33013916,20729.38147,1.207460194,0.61264423,0.3005095,20729.38147,1.251698746,-1.416965121,-0.274399362,1.285231113,0.536673725,0.305107981,-0.066875719,-0.055270575,-0.097578645,-0.293406876,0.583237533,-0.512762839,-0.55751292,-0.951221228,0.270968825,-0.147492766,-33.06742477,-6.742526054,-24.39805031,2,20724.34949
1432.456,143.2456,1478282700,37.3529138,-122.0355847,54.03052,0,2.109375,4,10,1478282701,-35.68848038,-6.410842896,-20.8108139,225.2436218,211.7849426,10,20729.39897,-1.013626099,0.298095703,-0.336303711,20729.39149,1.45803276,0.556048062,0.070345536,20729.39149,1.266957634,-1.40784372,-0.273470492,1.535803556,0.480077803,0.074944027,-0.052036706,0.067022584,-0.173935413,-0.295794065,0.578276747,-0.518143021,-0.556443784,-0.950084269,0.270074576,-0.156203747,-32.77114868,-7.270376205,-24.64496803,2,20724.34949
1442.136,144.2136,1478282700,37.3529138,-122.0355847,54.03052,0,2.109375,4,10,1478282701,-35.65355682,-7.214096069,-20.77729034,223.5052795,210.0466003,10,20729.40865,-0.986938477,0.233398438,-0.321731567,20729.40148,1.778341531,0.435265983,-0.109237808,20729.40148,1.285006561,-1.399101384,-0.269804581,1.856112242,0.359295845,-0.104639322,-0.063974574,0.031552613,-0.171632037,-0.299919184,0.572461914,-0.523631809,-0.55510861,-0.949651539,0.26654309,-0.164671674,-32.77114868,-7.270376205,-24.64496803,2,20724.34949
1451.816,145.1816,1478282700,37.3529138,-122.0355847,54.03052,0,2.109375,4,10,1478282701,-35.65355682,-7.214096069,-20.77729034,223.5052795,210.0466003,10,20729.41833,-0.88671875,0.258422852,-0.281433105,20729.40148,1.778341531,0.435265983,-0.109237808,20729.40148,1.285006561,-1.399101384,-0.269804581,1.856112242,0.359295845,-0.104639322,-0.063974574,0.031552613,-0.171632037,-0.299919184,0.572461914,-0.523631809,-0.55510861,-0.949651539,0.26654309,-0.164671674,-32.77114868,-7.270376205,-24.64496803,2,20724.34949
1461.476,146.1476,1478282700,37.3529138,-122.0355847,54.03052,0,2.109375,4,10,1478282701,-35.65355682,-7.214096069,-20.77729034,223.5052795,210.0466003,10,20729.42799,-0.81439209,0.251098633,-0.270339966,20729.43145,2.13885418,0.382131658,-0.161108196,20729.43145,1.349647028,-1.372773073,-0.253437687,2.216624737,0.306161731,-0.156509727,0.062419098,0.007689543,-0.090985857,-0.316431499,0.551948805,-0.541940053,-0.549112559,-0.949137866,0.250733316,-0.190447241,-32.56942368,-8.175805092,-24.62863922,2,20724.34949
1471.177,147.1177,1478282700,37.3529138,-122.0355847,54.03052,0,2.109375,4,10,1478282701,-35.65355682,-7.214096069,-20.77729034,223.5052795,210.0466003,10,20729.43769,-0.744781494,0.206878662,-0.251113892,20729.43145,2.13885418,0.382131658,-0.161108196,20729.43145,1.349647028,-1.372773073,-0.253437687,2.216624737,0.306161731,-0.156509727,0.062419098,0.007689543,-0.090985857,-0.316431499,0.551948805,-0.541940053,-0.549112559,-0.949137866,0.250733316,-0.190447241,-32.56942368,-8.175805092,-24.62863922,2,20724.34949
1480.856,148.0856,1478282700,37.3529138,-122.0355847,54.03052,0,2.109375,4,10,1478282701,-35.65355682,-7.214096069,-20.77729034,223.5052795,210.0466003,10,20729.44737,-0.732513428,0.161819458,-0.263427734,20729.44144,2.16376459,0.345484964,-0.105968778,20729.44144,1.371942634,-1.364468482,-0.247802557,2.241534472,0.269515425,-0.101370327,0.204109952,-0.038395572,-0.052504793,-0.322105985,0.544924935,-0.54817151,-0.54663749,-0.948891461,0.245274231,-0.198609099,-32.56942368,-8.175805092,-24.62863922,2,20724.34949
1490.525,149.0525,1478282700,37.3529138,-122.0355847,54.03052,0,2.109375,4,10,1478282701,-35.54878235,-8.366584778,-21.14599609,221.1264954,207.6678314,10,20729.45704,-0.721588135,0.171722412,-0.273132324,20729.45144,2.226262323,0.277337867,-0.016993098,20729.45144,1.238084629,-1.356668508,-0.242689104,2.303951263,0.201207072,-0.012607675,0.216013193,-0.078494333,-0.057159606,-0.284671101,0.561986032,-0.510337464,-0.585397076,-0.948526621,0.240313798,-0.206268132,-32.22558212,-10.5037632,-24.19429588,2,20724.34949
1500.217,150.0217,1478282700,37.3529138,-122.0355847,54.03052,0,2.109375,4,10,1478282701,-35.54878235,-8.366584778,-21.14599609,221.1264954,207.6678314,10,20729.46673,-0.6927948,0.183166504,-0.26713562,20729.46143,2.23743162,0.205872739,0.055948487,20729.46143,1.261450718,-1.349673075,-0.238130117,2.315120459,0.129742011,0.060333908,0.226531416,-0.064163513,-0.059995867,-0.290934386,0.555687821,-0.517141147,-0.582351495,-0.948119521,0.235885918,-0.213136464,-32.22558212,-10.5037632,-24.19429588,2,20724.34949
1509.897,150.9897,1478282700,37.3529138,-122.0355847,54.03052,0,2.109375,4,10,1478282701,-35.54878235,-8.366584778,-21.14599609,221.1264954,207.6678314,10,20729.47641,-0.700210571,0.174163818,-0.264144897,20729.46143,2.23743162,0.205872739,0.055948487,20729.46143,1.261450718,-1.349673075,-0.238130117,2.315120459,0.129742011,0.060333908,0.226531416,-0.064163513,-0.059995867,-0.290934386,0.555687821,-0.517141147,-0.582351495,-0.948119521,0.235885918,-0.213136464,-32.22558212,-10.5037632,-24.19429588,2,20724.34949
1519.576,151.9576,1478282700,37.3529138,-122.0355847,54.03052,0,2.109375,4,10,1478282701,-35.72340393,-10.91603851,-20.30805206,215.0673828,201.6087189,10,20729.48609,-0.713760376,0.16960144,-0.258529663,20729.48141,2.204558891,0.308922159,0.106102468,20729.48141,1.307754461,-1.335372631,-0.229617167,2.282247543,0.232791632,0.110487871,0.246682614,-0.053440936,-0.037011988,-0.302741571,0.54293746,-0.530801591,-0.576034831,-0.946893215,0.227604762,-0.227132916,-34.05109406,-14.7234745,-18.91886711,2,20724.34949
1529.259,152.9259,1478282700,37.3529138,-122.0355847,54.03052,0,2.109375,4,10,1478282701,-35.72340393,-10.91603851,-20.30805206,215.0673828,201.6087189,10,20729.49577,-0.695068359,0.17868042,-0.226638794,20729.4914,2.179225039,0.390859636,0.164582823,20729.4914,1.330697853,-1.32725851,-0.2257041,2.256913424,0.314729363,0.168968216,0.23211579,-0.054191217,-0.023508141,-0.308056419,0.536274633,-0.537789708,-0.572968578,-0.945876181,0.223792657,-0.235021517,-34.05109406,-14.7234745,-18.91886711,2,20724.34949
1538.939,153.8939,1478282700,37.3529138,-122.0355847,54.03052,0,2.109375,4,10,1478282701,-35.72340393,-10.91603851,-20.30805206,215.0673828,201.6087189,10,20729.50545,-0.708679199,0.113388062,0.116836548,20729.4914,2.179225039,0.390859636,0.164582823,20729.4914,1.330697853,-1.32725851,-0.2257041,2.256913424,0.314729363,0.168968216,0.23211579,-0.054191217,-0.023508141,-0.308056419,0.536274633,-0.537789708,-0.572968578,-0.945876181,0.223792657,-0.235021517,-34.05109406,-14.7234745,-18.91886711,2,20724.34949
1548.599,154.8599,1478282700,37.3529138,-122.0355847,54.03052,0,2.109375,4,10,1478282701,-35.72340393,-10.91603851,-20.30805206,215.0673828,201.6087189,10,20729.51511,-0.807525635,0.065582275,0.490600586,20729.51137,1.117423511,-0.109374694,0.317823242,20729.51137,1.366830771,-1.318269103,-0.222682644,1.195111752,-0.185504749,0.322208613,0.235696509,-0.107458755,0.360519171,-0.316213264,0.527416217,-0.54884672,-0.566223086,-0.944375694,0.220846817,-0.243682608,-33.97581863,-15.84147453,-18.13484573,2,20724.34949
1558.297,155.8297,1478282700,37.3529138,-122.0355847,54.03052,0,2.109375,4,10,1478282701,-35.72340393,-10.91603851,-20.30805206,215.0673828,201.6087189,10,20729.52481,-0.822814941,0.086486816,0.335281372,20729.52136,0.530190099,0.227990558,0.15802612,20729.52136,1.374462489,-1.316299598,-0.222871258,0.607878089,0.151860729,0.162411481,0.136327967,-0.155448496,0.736132205,-0.317619364,0.525692059,-0.551355502,-0.564599778,-0.943853617,0.221030772,-0.245531604,-33.97581863,-15.84147453,-18.13484573,2,20724.34949
1567.975,156.7975,1478282700,37.3529138,-122.0355847,54.03052,0,2.109375,4,10,1478282701,-35.72340393,-10.91603851,-20.30805206,215.0673828,201.6087189,10,20729.53449,-0.720169067,0.08303833,0.214370728,20729.52136,0.530190099,0.227990558,0.15802612,20729.52136,1.374462489,-1.316299598,-0.222871258,0.607878089,0.151860729,0.162411481,0.136327967,-0.155448496,0.736132205,-0.317619364,0.525692059,-0.551355502,-0.564599778,-0.943853617,0.221030772,-0.245531604,-33.97581863,-15.84147453,-18.13484573,2,20724.34949
1577.653,157.7653,1478282700,37.3529138,-122.0355847,54.03052,0,2.109375,4,10,1478282701,-35.82817841,-11.92882538,-19.87232208,213.0078125,199.5491333,10,20729.54417,-0.689834595,0.161956787,0.045623779,20729.53137,0.008299475,0.123945115,0.154977067,20729.53137,1.377024105,-1.314810063,-0.223869136,0.085987203,0.04781552,0.15936242,0.223103926,-0.138965532,0.461251974,-0.317556488,0.525087848,-0.552521088,-0.56405769,-0.943273008,0.222003862,-0.246881261,-34.09129715,-16.17209625,-17.61896324,2,20724.34949
1587.333,158.7333,1478282700,37.3529138,-122.0355847,54.03052,0,2.109375,4,10,1478282701,-35.82817841,-11.92882538,-19.87232208,213.0078125,199.5491333,10,20729.55385,-0.804534912,0.29699707,-0.160797119,20729.53137,0.008299475,0.123945115,0.154977067,20729.53137,1.377024105,-1.314810063,-0.223869136,0.085987203,0.04781552,0.15936242,0.223103926,-0.138965532,0.461251974,-0.317556488,0.525087848,-0.552521088,-0.56405769,-0.943273008,0.222003862,-0.246881261,-34.09129715,-16.17209625,-17.61896324,2,20724.34949
1597.012,159.7012,1478282700,37.3529138,-122.0355847,54.03052,0,2.109375,4,10,1478282701,-35.89802551,-12.69715881,-19.26900482,211.6285706,198.1699066,10,20729.56352,-0.84437561,0.285125732,-0.274475098,20729.55132,-0.104519219,-0.14597718,0.172574437,20729.55132,1.37661779,-1.317257978,-0.227979266,-0.026831649,-0.222106636,0.176959768,0.138448328,0.07098753,0.083543412,-0.316788442,0.526758785,-0.552866362,-0.562591371,-0.94298327,0.226009533,-0.244340524,-34.09129715,-16.17209625,-17.61896324,2,20724.34949
1606.692,160.6692,1478282700,37.3529138,-122.0355847,54.03052,0,2.109375,4,10,1478282701,-35.89802551,-12.69715881,-19.26900482,211.6285706,198.1699066,10,20729.5732,-0.864730835,0.234405518,-0.30027771,20729.56134,0.106382367,-0.16972299,0.095415736,20729.56134,1.378190996,-1.319399136,-0.228773407,0.184069619,-0.245852128,0.099801064,0.098954499,0.058342673,-0.032198928,-0.317536656,0.527287764,-0.553132693,-0.561410999,-0.943330109,0.226783067,-0.242276177,-34.23651123,-15.97913742,-17.51312637,2,20724.34949
1616.372,161.6372,1478282700,37.3529138,-122.0355847,54.03052,0,2.109375,4,10,1478282701,-35.89802551,-12.69715881,-19.26900482,211.6285706,198.1699066,10,20729.58288,-0.943817139,0.201843262,-0.312728882,20729.56134,0.106382367,-0.16972299,0.095415736,20729.56134,1.378190996,-1.319399136,-0.228773407,0.184069619,-0.245852128,0.099801064,0.098954499,0.058342673,-0.032198928,-0.317536656,0.527287764,-0.553132693,-0.561410999,-0.943330109,0.226783067,-0.242276177,-34.23651123,-15.97913742,-17.51312637,2,20724.34949
1626.025,162.6025,1478282700,37.3529138,-122.0355847,54.03052,0,2.109375,4,10,1478282701,-35.89802551,-12.69715881,-19.26900482,211.6285706,198.1699066,10,20729.59254,-1.037948608,0.191955566,-0.263793945,20729.58129,0.414740468,0.140819703,0.117677898,20729.58129,1.386794826,-1.318815623,-0.22858638,0.492427588,0.064690709,0.122063212,-0.0005875,-0.02475764,-0.069891736,-0.319700609,0.525711848,-0.555597606,-0.559222561,-0.943229616,0.2266009,-0.242837146,-34.23651123,-15.97913742,-17.51312637,2,20729.59519
1635.73,163.573,1478282700,37.3529138,-122.0355847,54.03052,0,2.109375,4,10,1478282701,-35.96787643,-13.04639435,-18.39754486,210.155426,196.6967468,10,20729.60224,-1.07875061,0.176025391,-0.181533813,20729.59131,0.427126564,0.312238594,0.248577059,20729.59131,1.379094684,-1.315609622,-0.229425178,0.50479883,0.236013606,0.25298658,-0.0956866,-0.035462234,-0.017982123,-0.316513622,0.526225442,-0.55412138,-0.562010149,-0.942261994,0.227417797,-0.24581182,-34.32165146,-16.06676102,-17.26455116,2,20729.59519
1645.41,164.541,1478282700,37.3529138,-122.0355847,54.03052,0,2.109375,4,10,1478282701,-35.96787643,-13.04639435,-18.39754486,210.155426,196.6967468,10,20729.61192,-1.069259644,0.101547241,-0.198120117,20729.59131,0.427126564,0.312238594,0.248577059,20729.59131,1.379094684,-1.315609622,-0.229425178,0.50479883,0.236013606,0.25298658,-0.0956866,-0.035462234,-0.017982123,-0.316513622,0.526225442,-0.55412138,-0.562010149,-0.942261994,0.227417797,-0.24581182,-34.32165146,-16.06676102,-17.26455116,2,20729.59519
1655.075,165.5075,1478282700,37.3529138,-122.0355847,54.03052,0,2.109375,4,10,1478282701,-35.96787643,-13.04639435,-18.39754486,210.155426,196.6967468,10,20729.62159,-1.086456299,0.104751587,-0.268585205,20729.61129,0.320823293,0.412337232,0.335017942,20729.61129,1.389876479,-1.306031773,-0.23349174,0.398495406,0.33611238,0.339427471,-0.130295515,-0.129828677,0.056461025,-0.315350594,0.52274605,-0.559489119,-0.560591202,-0.938964128,0.231375918,-0.254581153,-34.32165146,-16.06676102,-17.26455116,2,20729.59519
1664.77,166.477,1478282700,37.3529138,-122.0355847,54.03052,0,2.109375,4,10,1478282701,-36.35203934,-13.29086304,-18.43105316,207.9650574,194.5063782,10,20729.63128,-1.077850342,0.086853027,-0.266143799,20729.62129,0.355079801,0.127378462,0.312925955,20729.62129,1.430435509,-1.303520303,-0.23555856,0.43275857,0.05108285,0.317436934,-0.148597747,-0.128634572,-0.011773537,-0.324505018,0.516033584,-0.571557549,-0.549297553,-0.937858582,0.233386159,-0.256811678,-36.2395668,-17.0943203,-11.34280777,2,20729.59519
1674.445,167.4445,1478282700,37.3529138,-122.0355847,54.03052,0,2.109375,4,10,1478282701,-36.35203934,-13.29086304,-18.43105316,207.9650574,194.5063782,10,20729.64096,-1.037017822,0.126159668,-0.294616699,20729.62129,0.355079801,0.127378462,0.312925955,20729.62129,1.430435509,-1.303520303,-0.23555856,0.43275857,0.05108285,0.317436934,-0.148597747,-0.128634572,-0.011773537,-0.324505018,0.516033584,-0.571557549,-0.549297553,-0.937858582,0.233386159,-0.256811678,-36.2395668,-17.0943203,-11.34280777,2,20729.59519
1684.121,168.4121,1478282700,37.3529138,-122.0355847,54.03052,0,2.109375,4,10,1478282701,-36.35203934,-13.29086304,-18.43105316,207.9650574,194.5063782,10,20729.65063,-0.975906372,0.10067749,-0.283416748,20729.64127,0.593787185,-0.399711984,0.176249599,20729.64127,1.443556261,-1.306747749,-0.237013118,0.671465814,-0.476007432,0.180760562,-0.098664008,-0.108640634,-0.04092212,-0.328346201,0.515113077,-0.574903521,-0.54436498,-0.938353837,0.234800294,-0.253694594,-36.2395668,-17.0943203,-11.34280777,2,20729.59519
1693.809,169.3809,1478282700,37.3529138,-122.0355847,54.03052,0,2.109375,4,10,1478282701,-36.35203934,-13.29086304,-18.43105316,207.9650574,194.5063782,10,20729.66032,-0.941513062,0.159606934,-0.207962036,20729.65126,0.573433976,-0.4814175,0.153013518,20729.65126,1.503552897,-1.310661506,-0.236863619,0.651123524,-0.557773948,0.157655448,-0.036532938,-0.133977488,-0.033387564,-0.344851148,0.506026771,-0.590270579,-0.525923222,-0.939373434,0.234654978,-0.250029176,-37.79673386,-16.63250351,-5.380316734,2,20729.59519
1703.488,170.3488,1478282700,37.3529138,-122.0355847,54.03052,0,2.109375,4,10,1478282701,-36.35203934,-13.29086304,-18.43105316,207.9650574,194.5063782,10,20729.67,-0.871765137,0.206100464,-0.186416626,20729.65126,0.573433976,-0.4814175,0.153013518,20729.65126,1.503552897,-1.310661506,-0.236863619,0.651123524,-0.557773948,0.157655448,-0.036532938,-0.133977488,-0.033387564,-0.344851148,0.506026771,-0.590270579,-0.525923222,-0.939373434,0.234654978,-0.250029176,-37.79673386,-16.63250351,-5.380316734,2,20729.59519
1713.168,171.3168,1478282700,37.3529138,-122.0355847,54.03052,0,2.109375,4,10,1478282701,-36.35203934,-13.29086304,-18.43105316,207.9650574,194.5063782,10,20729.67968,-0.845718384,0.185180664,-0.233184814,20729.67125,0.356503527,-0.049412823,0.170225795,20729.67125,1.514963241,-1.314420122,-0.23739085,0.434192866,-0.125769094,0.174867719,0.068421617,-0.029066989,0.060048651,-0.348683134,0.5051608,-0.592706122,-0.521471083,-0.940186739,0.235167459,-0.246465281,-37.79673386,-16.63250351,-5.380316734,2,20729.59519
1722.847,172.2847,1478282700,37.3529138,-122.0355847,54.03052,0,2.109375,4,10,1478282701,-36.59650803,-13.46548462,-18.46457672,207.203064,193.7443848,10,20729.68936,-0.799880981,0.162307739,-0.188552856,20729.68124,0.138346691,0.111310014,0.302143615,20729.68124,1.575866987,-1.313615586,-0.23922561,0.216044202,0.034898341,0.306925684,0.093850911,-0.051769696,0.013926631,-0.363101471,0.494572137,-0.608786037,-0.502926718,-0.939569294,0.236950368,-0.24711144,-38.68741608,-15.38835526,-0.814675331,2,20729.59519
1732.526,173.2526,1478282700,37.3529138,-122.0355847,54.03052,0,2.109375,4,10,1478282701,-36.59650803,-13.46548462,-18.46457672,207.203064,193.7443848,10,20729.69904,-0.752166748,0.180023193,-0.215133667,20729.70122,-0.241284792,0.162057347,0.90380124,20729.70122,1.578586811,-1.310761016,-0.252082259,-0.163587436,0.085645817,0.908583343,0.135957614,-0.087113209,0.060435753,-0.35900008,0.496613168,-0.612283462,-0.499603109,-0.93583858,0.249420941,-0.248988613,-38.68741608,-15.38835526,-0.814675331,2,20729.59519
1742.205,174.2205,1478282700,37.3529138,-122.0355847,54.03052,0,2.109375,4,10,1478282701,-36.59650803,-13.46548462,-18.46457672,207.203064,193.7443848,10,20729.70872,-0.802856445,0.257629395,-0.197189331,20729.70122,-0.241284792,0.162057347,0.90380124,20729.70122,1.578586811,-1.310761016,-0.252082259,-0.163587436,0.085645817,0.908583343,0.135957614,-0.087113209,0.060435753,-0.35900008,0.496613168,-0.612283462,-0.499603109,-0.93583858,0.249420941,-0.248988613,-38.68741608,-15.38835526,-0.814675331,2,20729.59519
1751.86,175.186,1478282700,37.3529138,-122.0355847,54.03052,0,2.109375,4,10,1478282701,-36.70127869,-13.15116882,-18.56513214,205.2361755,191.7774963,10,20729.71837,-0.806564331,0.351730347,-0.139648438,20729.71119,-0.365400615,0.186470545,1.213678143,20729.71119,1.579035934,-1.309774065,-0.263871646,-0.287703484,0.110059246,1.218460202,0.129830077,-0.003190741,0.051946577,-0.355216597,0.499252657,-0.614653017,-0.49675912,-0.932686508,0.260820121,-0.249135911,-38.68741608,-15.38835526,-0.814675331,2,20729.59519
1761.552,176.1552,1478282700,37.3529138,-122.0355847,54.03052,0,2.109375,4,10,1478282701,-37.15529251,-12.62731171,-19.06789398,203.5538635,190.0951843,10,20729.72806,-0.816177368,0.32649231,-0.130630493,20729.7212,-0.556166306,0.335342049,1.461836553,20729.7212,1.633036027,-1.307650755,-0.278479274,-0.478464842,0.258878827,1.46675384,0.121812969,0.076836519,0.110449493,-0.363527497,0.492746177,-0.630673759,-0.476759451,-0.928377271,0.27489382,-0.25009793,-39.5235672,-13.03866673,1.436059952,2,20729.59519
1771.246,177.1246,1478282700,37.3529138,-122.0355847,54.03052,0,2.109375,4,10,1478282701,-37.15529251,-12.62731171,-19.06789398,203.5538635,190.0951843,10,20729.73776,-0.829559326,0.141067505,-0.23324585,20729.73119,-0.897693547,0.404567193,1.834139549,20729.73119,1.630327735,-1.305235305,-0.297076889,-0.819992125,0.328104049,1.839056849,0.106499813,0.033765916,0.120323844,-0.35649555,0.497427133,-0.633526612,-0.473414408,-0.922677159,0.292726398,-0.25095433,-39.5235672,-13.03866673,1.436059952,2,20729.59519
1780.811875,178.0811875,1478282700,37.3529138,-122.0355847,54.03052,0,2.109375,4,10,1478282701,-37.15529251,-12.62731171,-19.06789398,203.5538635,190.0951843,10,20729.74732,-0.789352417,0.198516846,-0.261886597,20729.74118,-1.13988115,0.227215844,2.363006856,20729.74118,1.676719924,-1.304387663,-0.321285129,-1.062181592,0.150707901,2.368053436,0.085798785,-0.174718693,0.016551299,-0.360466947,0.4951414,-0.648244882,-0.452412585,-0.915358126,0.315786183,-0.24979715,-40.08726883,-11.06020641,2.205491066,2,20729.59519
1790.488875,179.0488875,1478282700,37.3529138,-122.0355847,54.03052,0,2.109375,4,10,1478282701,-37.15529251,-12.62731171,-19.06789398,203.5538635,190.0951843,10,20729.757,-1.060913086,0.444152832,-0.323303223,20729.74118,-1.13988115,0.227215844,2.363006856,20729.74118,1.676719924,-1.304387663,-0.321285129,-1.062181592,0.150707901,2.368053436,0.085798785,-0.174718693,0.016551299,-0.360466947,0.4951414,-0.648244882,-0.452412585,-0.915358126,0.315786183,-0.24979715,-40.08726883,-11.06020641,2.205491066,2,20729.59519
1800.174875,180.0174875,1478282700,37.3529138,-122.0355847,54.03052,0,2.109375,4,10,1478282701,-37.15529251,-12.62731171,-19.06789398,203.5538635,190.0951843,10,20729.76669,-1.235046387,0.547698975,-0.387863159,20729.76107,-1.165501825,0.100936202,3.05780854,20729.76107,1.670691529,-1.306222528,-0.383350825,-1.087802529,0.024428491,3.062855005,-0.165766895,0.070122659,-0.080785729,-0.340836603,0.512417469,-0.655801523,-0.437244909,-0.895146191,0.374030173,-0.242517501,-40.08726883,-11.06020641,2.205491066,2,20729.59519
1809.855875,180.9855875,1478282700,37.3529138,-122.0355847,54.03052,0,2.109375,4,10,1478282701,-37.15529251,-12.62731171,-19.06789398,203.5538635,190.0951843,10,20729.77637,-1.213577271,0.494415283,-0.537780762,20729.76107,-1.165501825,0.100936202,3.05780854,20729.76107,1.670691529,-1.306222528,-0.383350825,-1.087802529,0.024428491,3.062855005,-0.165766895,0.070122659,-0.080785729,-0.340836603,0.512417469,-0.655801523,-0.437244909,-0.895146191,0.374030173,-0.242517501,-40.08726883,-11.06020641,2.205491066,2,20729.59519
1819.513875,181.9513875,1478282700,37.3529138,-122.0355847,54.03052,0,2.109375,4,10,1478282701,-37.26006699,-11.26527405,-19.03437042,200.9278564,187.4691772,10,20729.78603,-1.009338379,0.289993286,-0.515731812,20729.78105,-1.429412833,1.04941197,2.608355898,20729.78105,1.661120888,-1.297717307,-0.442780115,-1.351713777,0.972904623,2.613402367,-0.343494773,0.065962151,-0.294091672,-0.317250629,0.526789806,-0.663403034,-0.426310866,-0.870082498,0.428453118,-0.243689075,-40.89093018,-7.661517143,1.847836018,2,20729.59519
1829.204875,182.9204875,1478282700,37.3529138,-122.0355847,54.03052,0,2.109375,4,10,1478282701,-37.26006699,-11.26527405,-19.03437042,200.9278564,187.4691772,10,20729.79572,-0.83164978,0.374450684,-0.43069458,20729.79104,-1.662056998,1.317722254,2.831036912,20729.79104,1.653023946,-1.289575255,-0.473484601,-1.584358215,1.241214991,2.836083412,-0.154314652,-0.165996999,-0.26873526,-0.302782897,0.533689278,-0.666987227,-0.42264206,-0.855023742,0.455990285,-0.246996537,-40.89093018,-7.661517143,1.847836018,2,20729.59519
1838.885875,183.8885875,1478282700,37.3529138,-122.0355847,54.03052,0,2.109375,4,10,1478282701,-37.29498672,-8.715820313,-19.60417175,196.2799072,182.8212433,10,20729.8054,-0.828201294,0.918258667,-0.214553833,20729.79104,-1.662056998,1.317722254,2.831036912,20729.79104,1.653023946,-1.289575255,-0.473484601,-1.584358215,1.241214991,2.836083412,-0.154314652,-0.165996999,-0.26873526,-0.302782897,0.533689278,-0.666987227,-0.42264206,-0.855023742,0.455990285,-0.246996537,-40.89093018,-7.661517143,1.847836018,2,20729.59519
1848.565875,184.8565875,1478282700,37.3529138,-122.0355847,54.03052,0,2.109375,4,10,1478282701,-37.05052185,-5.258346558,-20.37506866,194.1809082,180.7222443,10,20729.81508,-0.73840332,0.637374878,-0.30065918,20729.81102,-2.036645519,1.653814515,3.066179388,20729.81102,1.634025502,-1.269514319,-0.542376405,-1.958946824,1.577307582,3.071225882,-0.010295591,0.402085871,0.039603405,-0.268920679,0.548272788,-0.674344892,-0.415135623,-0.817905724,0.516172826,-0.254157245,-41.41882324,-4.302469254,0.389081955,2,20729.59519
1858.244875,185.8244875,1478282700,37.3529138,-122.0355847,54.03052,0,2.109375,4,10,1478282701,-37.05052185,-5.258346558,-20.37506866,194.1809082,180.7222443,10,20729.82476,-0.754745483,0.615142822,-0.231307983,20729.82101,-1.986766376,1.316691877,3.150317169,20729.82101,1.623332809,-1.261725503,-0.578082695,-1.909067988,1.240185142,3.155363798,0.059424371,0.090955704,-0.045910172,-0.251718106,0.556114639,-0.677220673,-0.410787858,-0.797827721,0.546419203,-0.254749,-41.41882324,-4.302469254,0.389081955,2,20729.59519
1867.923875,186.7923875,1478282700,37.3529138,-122.0355847,54.03052,0,2.109375,4,10,1478282701,-37.05052185,-5.258346558,-20.37506866,194.1809082,180.7222443,10,20729.83444,-0.749267578,0.658432007,-0.120025635,20729.82101,-1.986766376,1.316691877,3.150317169,20729.82101,1.623332809,-1.261725503,-0.578082695,-1.909067988,1.240185142,3.155363798,0.059424371,0.090955704,-0.045910172,-0.251718106,0.556114639,-0.677220673,-0.410787858,-0.797827721,0.546419203,-0.254749,-41.41882324,-4.302469254,0.389081955,2,20729.59519
1877.615875,187.7615875,1478282700,37.3529138,-122.0355847,54.03052,0,2.109375,4,10,1478282701,-37.05052185,-5.258346558,-20.37506866,194.1809082,180.7222443,10,20729.84413,-0.734375,0.672027588,-0.018417358,20729.83101,-1.76103631,0.877357915,2.997445597,20729.83101,1.614663062,-1.25748288,-0.614399564,-1.683339596,0.800848722,3.002495289,0.028072756,0.081964009,0.131820843,-0.235899287,0.564294502,-0.679902909,-0.404543292,-0.777340353,0.576467991,-0.251846492,-41.61759186,-0.238647461,-1.449375153,2,20729.59519
1887.298875,188.7298875,1478282700,37.3529138,-122.0355847,54.03052,0,2.109375,4,10,1478282701,-37.05052185,-5.258346558,-20.37506866,194.1809082,180.7222443,10,20729.85381,-0.759841919,0.677383423,0.002624512,20729.85099,-1.474691631,0.235952078,2.422964732,20729.85099,1.600467513,-1.258352681,-0.673719693,-1.396995068,0.15944308,2.428014517,0.009294953,0.048130326,0.221805885,-0.212374849,0.578606342,-0.683000244,-0.391946798,-0.743669927,0.623897254,-0.240223244,-41.61759186,-0.238647461,-1.449375153,2,20729.59519
1896.977875,189.6977875,1478282700,37.3529138,-122.0355847,54.03052,0,2.109375,4,10,1478282701,-37.05052185,-5.258346558,-20.37506866,194.1809082,180.7222443,10,20729.86349,-0.819473267,0.820220947,-0.038696289,20729.85099,-1.474691631,0.235952078,2.422964732,20729.85099,1.600467513,-1.258352681,-0.673719693,-1.396995068,0.15944308,2.428014517,0.009294953,0.048130326,0.221805885,-0.212374849,0.578606342,-0.683000244,-0.391946798,-0.743669927,0.623897254,-0.240223244,-41.61759186,-0.238647461,-1.449375153,2,20729.59519
1906.656875,190.6656875,1478282701,37.3529138,-122.0355847,52.85443,0,2.109375,4,10,1478282701,-36.24726868,2.250312805,-21.48114777,188.5377197,175.0790558,10,20729.87317,-0.739517212,1.015533447,-0.138198853,20729.86098,-1.279827336,0.026694728,2.31618662,20729.86098,1.594154274,-1.262320607,-0.699843082,-1.202131152,-0.049813963,2.321236372,-0.090637267,0.176123291,0.19354558,-0.20310454,0.585344011,-0.683872419,-0.385278405,-0.728836,0.644097686,-0.232241869,-33.91301346,5.874164581,-24.87909508,1,20729.59519
1916.335875,191.6335875,1478282701,37.3529138,-122.0355847,52.85443,0,2.109375,4,10,1478282701,-36.24726868,2.250312805,-21.48114777,188.5377197,175.0790558,10,20729.88285,-0.592559814,0.989578247,-0.150299072,20729.86098,-1.279827336,0.026694728,2.31618662,20729.86098,1.594154274,-1.262320607,-0.699843082,-1.202131152,-0.049813963,2.321236372,-0.090637267,0.176123291,0.19354558,-0.20310454,0.585344011,-0.683872419,-0.385278405,-0.728836,0.644097686,-0.232241869,-33.91301346,5.874164581,-24.87909508,1,20729.59519
1925.999875,192.5999875,1478282701,37.3529138,-122.0355847,52.85443,0,2.109375,4,10,1478282701,-36.24726868,2.250312805,-21.48114777,188.5377197,175.0790558,10,20729.89251,-0.569900513,0.930374146,-0.09954834,20729.88093,-0.534386176,-0.512137862,2.131221827,20729.88093,1.59365327,-1.269993274,-0.745897096,-0.456690043,-0.588646352,2.136271477,0.108940624,0.310947269,0.067317843,-0.19000498,0.595893992,-0.68723457,-0.369482211,-0.701500416,0.678631008,-0.217616916,-33.91301346,5.874164581,-24.87909508,1,20729.59519
1935.693875,193.5693875,1478282701,37.3529138,-122.0355847,52.85443,0,2.109375,4,10,1478282701,-36.24726868,2.250312805,-21.48114777,188.5377197,175.0790558,10,20729.90221,-0.549987793,0.82673645,-0.113510132,20729.89096,-0.402332002,-0.687311011,2.05683015,20729.89096,1.597509724,-1.274646866,-0.766829303,-0.324636221,-0.763819218,2.061879873,0.118865274,0.236518681,0.110609427,-0.185653069,0.600378258,-0.689311355,-0.360456296,-0.688765764,0.693855464,-0.210157767,-33.70363617,8.645868301,-24.34915352,1,20729.59519
1945.372875,194.5372875,1478282701,37.3529138,-122.0355847,52.85443,0,2.109375,4,10,1478282701,-36.24726868,2.250312805,-21.48114777,188.5377197,175.0790558,10,20729.91189,-0.511108398,0.790222168,-0.219894409,20729.89096,-0.402332002,-0.687311011,2.05683015,20729.89096,1.597509724,-1.274646866,-0.766829303,-0.324636221,-0.763819218,2.061879873,0.118865274,0.236518681,0.110609427,-0.185653069,0.600378258,-0.689311355,-0.360456296,-0.688765764,0.693855464,-0.210157767,-33.70363617,8.645868301,-24.34915352,1,20729.59519
1955.022875,195.5022875,1478282701,37.3529138,-122.0355847,52.85443,0,2.109375,4,10,1478282701,-36.24726868,2.250312805,-21.48114777,188.5377197,175.0790558,10,20729.92154,-0.454193115,0.72428894,-0.185241699,20729.91092,-0.381168659,-0.52029832,1.870609942,20729.91092,1.604430324,-1.283347157,-0.8056625,-0.303473026,-0.596806407,1.875659585,0.153106496,0.068932496,-0.023527969,-0.177543972,0.608518626,-0.692909777,-0.343597528,-0.664214909,0.721289694,-0.196366444,-33.70363617,8.645868301,-24.34915352,1,20729.59519
1964.729875,196.4729875,1478282701,37.3529138,-122.0355847,52.85443,0,2.109375,4,10,1478282701,-35.65356064,5.847480774,-22.0509491,185.2879333,171.8292694,10,20729.93124,-0.427642822,0.714447021,-0.179931641,20729.92093,-0.338188435,-0.398281334,1.756527312,20729.92093,1.608035973,-1.285866685,-0.82362465,-0.2604931,-0.474789113,1.76157701,0.197974324,-0.009324894,0.005777624,-0.173399048,0.611901224,-0.694682125,-0.336045245,-0.652167439,0.733613849,-0.191019326,-33.62214279,10.82741356,-23.57723808,1,20729.59519
1974.408875,197.4408875,1478282701,37.3529138,-122.0355847,52.85443,0,2.109375,4,10,1478282701,-35.65356064,5.847480774,-22.0509491,185.2879333,171.8292694,10,20729.94092,-0.399383545,0.767852783,-0.175857544,20729.92093,-0.338188435,-0.398281334,1.756527312,20729.92093,1.608035973,-1.285866685,-0.82362465,-0.2604931,-0.474789113,1.76157701,0.197974324,-0.009324894,0.005777624,-0.173399048,0.611901224,-0.694682125,-0.336045245,-0.652167439,0.733613849,-0.191019326,-33.62214279,10.82741356,-23.57723808,1,20729.59519
1984.078875,198.4078875,1478282701,37.3529138,-122.0355847,52.85443,0,2.109375,4,10,1478282701,-35.65356064,5.847480774,-22.0509491,185.2879333,171.8292694,10,20729.95059,-0.378540039,0.864883423,-0.218551636,20729.94091,-0.378251699,0.167565297,1.382169687,20729.94091,1.613200129,-1.284684411,-0.854652276,-0.30055654,0.091057681,1.387219429,0.230410337,0.013510095,0.009417332,-0.163984229,0.616823909,-0.697870793,-0.324982759,-0.629793882,0.754342675,-0.185274869,-33.62214279,10.82741356,-23.57723808,1,20729.59519
1993.766875,199.3766875,1478282701,37.3529138,-122.0355847,52.85443,0,2.109375,4,10,1478282701,-34.81538391,10.66699982,-21.51467133,179.8343506,166.3756714,10,20729.96028,-0.200897217,1.050506592,-0.327545166,20729.9509,-0.408169917,0.529748015,1.248102429,20729.9509,1.613947951,-1.280392335,-0.867706654,-0.330475062,0.453240722,1.253152132,0.240964353,0.102035306,-0.033411007,-0.158250956,0.618373933,-0.699215808,-0.321974484,-0.619504392,0.762848139,-0.185140625,-33.16912079,12.55767632,-23.35982704,1,20729.59519
2003.447875,200.3447875,1478282701,37.3529138,-122.0355847,52.85443,0,2.109375,4,10,1478282701,-34.81538391,10.66699982,-21.51467133,179.8343506,166.3756714,10,20729.96996,-0.129928589,1.214981079,-0.390716553,20729.9509,-0.408169917,0.529748015,1.248102429,20729.9509,1.613947951,-1.280392335,-0.867706654,-0.330475062,0.453240722,1.253152132,0.240964353,0.102035306,-0.033411007,-0.158250956,0.618373933,-0.699215808,-0.321974484,-0.619504392,0.762848139,-0.185140625,-33.16912079,12.55767632,-23.35982704,1,20729.59519
2013.121875,201.3121875,1478282701,37.3529138,-122.0355847,52.85443,0,2.109375,4,10,1478282701,-34.81538391,10.66699982,-21.51467133,179.8343506,166.3756714,10,20729.97963,-0.219390869,1.405944824,-0.348266602,20729.97088,0.040853424,0.327808499,1.696477557,20729.97088,1.624412752,-1.264221748,-0.897279868,0.118548125,0.251301348,1.701527238,0.464726746,0.43334794,-0.202475592,-0.145683905,0.620206193,-0.703910152,-0.314055689,-0.594655335,0.781633139,-0.18824096,-33.16912079,12.55767632,-23.35982704,1,20729.59519
2022.809875,202.2809875,1478282701,37.3529138,-122.0355847,52.85443,0,2.109375,4,10,1478282701,-34.81538391,10.66699982,-21.51467133,179.8343506,166.3756714,10,20729.98932,-0.398010254,1.382354736,-0.092697144,20729.98088,0.496916298,-0.127579265,1.503885203,20729.98088,1.639562536,-1.253040477,-0.911123938,0.57461071,-0.20408611,1.508934736,0.362786829,0.615751743,-0.156787977,-0.141688869,0.61982655,-0.70779914,-0.30783062,-0.582177699,0.790193081,-0.191478625,-32.3179512,14.08097172,-23.68213844,1,20729.59519
2032.475875,203.2475875,1478282701,37.3529138,-122.0355847,52.85443,0,2.109375,4,10,1478282701,-34.81538391,10.66699982,-21.51467133,179.8343506,166.3756714,10,20729.99899,-0.544921875,1.087127686,-0.043624878,20730.00086,0.212294153,-0.287164932,0.831908674,20730.00086,1.664078378,-1.241854328,-0.924590273,0.289988399,-0.363671631,0.836958289,0.171866387,0.58398062,0.101826355,-0.140704965,0.618821754,-0.71291433,-0.298353663,-0.569876671,0.798374116,-0.194523498,-32.3179512,14.08097172,-23.68213844,1,20729.59519
2042.170875,204.2170875,1478282701,37.3529138,-122.0355847,52.85443,0,2.109375,4,10,1478282701,-34.85030746,12.16873169,-21.28005219,177.9780579,164.5193787,10,20730.00868,-0.595474243,1.007568359,-0.094161987,20730.00086,0.212294153,-0.287164932,0.831908674,20730.00086,1.664078378,-1.241854328,-0.924590273,0.289988399,-0.363671631,0.836958289,0.171866387,0.58398062,0.101826355,-0.140704965,0.618821754,-0.71291433,-0.298353663,-0.569876671,0.798374116,-0.194523498,-32.3179512,14.08097172,-23.68213844,1,20729.59519
2051.850875,205.1850875,1478282701,37.3529138,-122.0355847,52.85443,0,2.109375,4,10,1478282701,-34.85030746,12.16873169,-21.28005219,177.9780579,164.5193787,10,20730.01836,-0.620956421,0.786804199,-0.156204224,20730.01083,0.079206139,-0.078867385,1.094528848,20730.01083,1.67262887,-1.237110341,-0.933922084,0.156900153,-0.155373856,1.099578381,-0.033590823,0.203609839,0.100614071,-0.138477462,0.619222062,-0.714878206,-0.293831893,-0.56188339,0.803958535,-0.194776058,-32.17868423,14.58682728,-23.56531525,1,20729.59519
2061.531875,206.1531875,1478282701,37.3529138,-122.0355847,52.85443,0,2.109375,4,10,1478282701,-34.85030746,12.16873169,-21.28005219,177.9780579,164.5193787,10,20730.02804,-0.733718872,0.520263672,-0.173156738,20730.02084,0.052512477,0.161691961,1.125780511,20730.02084,1.680852017,-1.230279688,-0.944093613,0.130206257,0.085185722,1.13083005,-0.068153366,-0.023161491,0.039664,-0.135115489,0.619523763,-0.716903951,-0.289797923,-0.55280304,0.80996567,-0.195868224,-32.17868423,14.58682728,-23.56531525,1,20729.59519
2071.211875,207.1211875,1478282701,37.3529138,-122.0355847,52.85443,0,2.109375,4,10,1478282701,-34.85030746,12.16873169,-21.28005219,177.9780579,164.5193787,10,20730.03772,-0.832122803,0.258224487,-0.132537842,20730.03083,0.109618906,0.299915615,1.05562832,20730.03083,1.690081682,-1.220728699,-0.953730237,0.187312603,0.223409444,1.060677886,-0.190169141,-0.295315981,0.02529606,-0.131266775,0.61930819,-0.719165609,-0.286403956,-0.543549716,0.815579653,-0.198452801,-32.17868423,14.58682728,-23.56531525,1,20729.59519
2080.884875,208.0884875,1478282701,37.3529138,-122.0355847,52.85443,0,2.109375,4,10,1478282701,-33.94227982,13.98477554,-21.34709167,174.1364441,160.6777649,10,20730.0474,-0.944915771,0.097961426,-0.103485107,20730.0408,0.097152117,0.396538295,0.947709842,20730.0408,1.698892103,-1.210655894,-0.962232372,0.174845651,0.320032269,0.952759445,-0.297108412,-0.562245369,0.068928882,-0.127477727,0.618882917,-0.721293908,-0.283669634,-0.535014391,0.820469856,-0.201466724,-31.57739449,15.64961624,-23.69652176,1,20729.59519
2090.550875,209.0550875,1478282701,37.3529138,-122.0355847,52.85443,0,2.109375,4,10,1478282701,-33.94227982,13.98477554,-21.34709167,174.1364441,160.6777649,10,20730.05706,-1.068893433,0.016616821,-0.088287354,20730.06081,-0.302307666,0.70375683,0.412839237,20730.06081,1.705057201,-1.1953675,-0.974638701,-0.224614352,0.627251029,0.41788879,-0.422554612,-0.729537666,0.102388874,-0.119650673,0.618665277,-0.723368585,-0.282267394,-0.522361159,0.827499092,-0.205873981,-31.57739449,15.64961624,-23.69652176,1,20729.59519
2100.252875,210.0252875,1478282701,37.3529138,-122.0355847,52.85443,0,2.109375,4,10,1478282701,-33.94227982,13.98477554,-21.34709167,174.1364441,160.6777649,10,20730.06677,-0.988052368,0.152587891,-0.118881226,20730.06081,-0.302307666,0.70375683,0.412839237,20730.06081,1.705057201,-1.1953675,-0.974638701,-0.224614352,0.627251029,0.41788879,-0.422554612,-0.729537666,0.102388874,-0.119650673,0.618665277,-0.723368585,-0.282267394,-0.522361159,0.827499092,-0.205873981,-31.57739449,15.64961624,-23.69652176,1,20729.59519
2109.931875,210.9931875,1478282701,37.3529138,-122.0355847,52.85443,0,2.109375,4,10,1478282701,-33.94227982,13.98477554,-21.34709167,174.1364441,160.6777649,10,20730.07644,-0.737945557,0.372360229,-0.160629272,20730.07079,-0.382735397,0.757317793,0.357884109,20730.07079,1.70234532,-1.190872811,-0.978962967,-0.305042326,0.68081224,0.362933666,-0.469949871,-0.677331388,0.088009559,-0.115716795,0.61900261,-0.723324538,-0.283279022,-0.518102527,0.829919279,-0.206890777,-31.57739449,15.64961624,-23.69652176,1,20729.59519
2119.598875,211.9598875,1478282701,37.3529138,-122.0355847,52.85443,0,2.109375,4,10,1478282701,-33.94227982,13.98477554,-21.34709167,174.1364441,160.6777649,10,20730.08611,-0.596389771,0.528457642,-0.194015503,20730.08079,-0.353733573,0.713497874,0.738563812,20730.08079,1.701984766,-1.184589042,-0.985899512,-0.276067078,0.636926532,0.743582547,-0.22649847,-0.461408824,0.047339555,-0.110972787,0.619435732,-0.723738001,-0.283174363,-0.511447072,0.833769083,-0.207968831,-30.67013359,16.50251198,-24.30179596,1,20729.59519
2129.289875,212.9289875,1478282701,37.3529138,-122.0355847,52.85443,0,2.109375,4,10,1478282701,-33.94227982,13.98477554,-21.34709167,174.1364441,160.6777649,10,20730.0958,-0.5597229,0.587127686,-0.231887817,20730.09078,-0.389897969,0.539218748,1.092325615,20730.09078,1.703923691,-1.177890099,-0.996454597,-0.31223157,0.462647468,1.097344279,-0.094505489,-0.311092466,0.013993584,-0.105556271,0.620365481,-0.724509501,-0.281230379,-0.501884282,0.839550138,-0.208009094,-30.67013359,16.50251198,-24.30179596,1,20729.59519
2138.969875,213.8969875,1478282701,37.3529138,-122.0355847,52.85443,0,2.109375,4,10,1478282701,-33.38349533,15.17219162,-21.88336945,173.7617188,160.3030548,10,20730.10548,-0.522399902,0.590255737,-0.22593689,20730.09078,-0.389897969,0.539218748,1.092325615,20730.09078,1.703923691,-1.177890099,-0.996454597,-0.31223157,0.462647468,1.097344279,-0.094505489,-0.311092466,0.013993584,-0.105556271,0.620365481,-0.724509501,-0.281230379,-0.501884282,0.839550138,-0.208009094,-30.67013359,16.50251198,-24.30179596,1,20729.59519
2148.637875,214.8637875,1478282701,37.3529138,-122.0355847,52.85443,0,2.109375,4,10,1478282701,-33.38349533,15.17219162,-21.88336945,173.7617188,160.3030548,10,20730.11515,-0.505661011,0.540390015,-0.181915283,20730.11076,-0.255482103,0.211332485,1.569406157,20730.11076,1.715958835,-1.162852153,-1.024317885,-0.177815929,0.134761468,1.574424863,-0.045364063,-0.264104158,-0.019767152,-0.09436012,0.62290553,-0.727105902,-0.272767075,-0.47703585,0.854359925,-0.206169739,-30.08507538,17.25581551,-24.50902557,1,20729.59519
2158.326875,215.8326875,1478282701,37.3529138,-122.0355847,52.85443,0,2.109375,4,10,1478282701,-32.96440506,16.21991348,-22.21855164,172.5330811,159.0744019,10,20730.12484,-0.482421875,0.538574219,-0.128555298,20730.12075,-0.215618577,0.128071949,1.619802486,20730.12075,1.726060961,-1.153475729,-1.039752929,-0.137952641,0.051501159,1.624821186,-0.042690706,-0.321889102,0.023348451,-0.088852999,0.624077942,-0.728877879,-0.267149591,-0.462970316,0.862279117,-0.205263734,-30.08507538,17.25581551,-24.50902557,1,20729.59519
2168.005875,216.8005875,1478282701,37.3529138,-122.0355847,52.85443,0,2.109375,4,10,1478282701,-32.96440506,16.21991348,-22.21855164,172.5330811,159.0744019,10,20730.13452,-0.449386597,0.513687134,-0.053024292,20730.12075,-0.215618577,0.128071949,1.619802486,20730.12075,1.726060961,-1.153475729,-1.039752929,-0.137952641,0.051501159,1.624821186,-0.042690706,-0.321889102,0.023348451,-0.088852999,0.624077942,-0.728877879,-0.267149591,-0.462970316,0.862279117,-0.205263734,-30.08507538,17.25581551,-24.50902557,1,20729.59519
2177.684875,217.7684875,1478282701,37.3529138,-122.0355847,52.85443,0,2.109375,4,10,1478282701,-32.96440506,16.21991348,-22.21855164,172.5330811,159.0744019,10,20730.1442,-0.411468506,0.493103027,-0.015701294,20730.14074,-0.362987791,0.243208393,1.445914312,20730.14074,1.744393786,-1.135974929,-1.069365107,-0.28532207,0.166637838,1.45093298,-0.013435172,-0.363208354,0.149461851,-0.078161237,0.626616111,-0.731713115,-0.256591089,-0.435951412,0.876895487,-0.202486143,-29.15818214,18.76060867,-24.52360916,1,20729.59519
2187.366875,218.7366875,1478282701,37.3529138,-122.0355847,52.85443,0,2.109375,4,10,1478282701,-32.96440506,16.21991348,-22.21855164,172.5330811,159.0744019,10,20730.15388,-0.382232666,0.480545044,-0.054718018,20730.15073,-0.54701675,0.380138282,1.213537528,20730.15073,1.747861837,-1.130199502,-1.082732084,-0.469351262,0.303567946,1.218556166,0.012665673,-0.390139192,0.184282139,-0.072615776,0.62827958,-0.732137198,-0.252916669,-0.424134165,0.883242249,-0.199983433,-29.15818214,18.76060867,-24.52360916,1,20729.59519
2197.025875,219.7025875,1478282701,37.3529138,-122.0355847,52.85443,0,2.109375,4,10,1478282701,-31.88176346,17.02316666,-22.78835297,170.4165955,156.9579315,10,20730.16354,-0.3800354,0.367889404,-0.014770508,20730.15073,-0.54701675,0.380138282,1.213537528,20730.15073,1.747861837,-1.130199502,-1.082732084,-0.469351262,0.303567946,1.218556166,0.012665673,-0.390139192,0.184282139,-0.072615776,0.62827958,-0.732137198,-0.252916669,-0.424134165,0.883242249,-0.199983433,-29.15818214,18.76060867,-24.52360916,1,20729.59519
2206.723875,220.6723875,1478282701,37.3529138,-122.0355847,52.85443,0,2.109375,4,10,1478282701,-31.88176346,17.02316666,-22.78835297,170.4165955,156.9579315,10,20730.17324,-0.387756348,0.444458008,-0.106430054,20730.16072,-0.822539673,0.513978372,0.853042721,20730.16072,1.743652586,-1.129967178,-1.094263852,-0.744874418,0.437408268,0.858061373,0.034812707,-0.520701408,0.180952266,-0.067304073,0.630562266,-0.731380665,-0.250885858,-0.414848119,0.888590813,-0.195722774,-28.21946526,20.18784332,-24.48836899,1,20729.59519
2216.401875,221.6401875,1478282701,37.3529138,-122.0355847,52.85443,0,2.109375,4,10,1478282701,-31.88176346,17.02316666,-22.78835297,170.4165955,156.9579315,10,20730.18291,-0.345352173,0.497238159,-0.141586304,20730.16072,-0.822539673,0.513978372,0.853042721,20730.16072,1.743652586,-1.129967178,-1.094263852,-0.744874418,0.437408268,0.858061373,0.034812707,-0.520701408,0.180952266,-0.067304073,0.630562266,-0.731380665,-0.250885858,-0.414848119,0.888590813,-0.195722774,-28.21946526,20.18784332,-24.48836899,1,20729.59519
