time,accelerometer-x,accelerometer-y,accelerometer-z,gyro-x,gyro-y,gyro-z
1478468135333,0.0,0.0,0.0,0.0,0.0,0.0#
1478468135436,0.21794678,9.316627,0.5628296,-0.023435818,0.051132694,0.04261058#
1478468135540,0.31374758,8.610096,0.5843848,-0.040480047,-0.34621096,0.070307456#
1478468135646,0.26105714,8.631651,0.81909674,-0.033023197,-0.002130529,-0.07243799#
1478468135752,-1.6381935,11.534414,0.86220706,-0.13635385,-0.8788432,-0.0479369#
1478468135858,-0.26105714,7.8197393,1.4034815,-0.26631612,-1.0450244,-0.043675844#
1478468135961,0.009580079,8.411309,1.8776954,-0.17044231,-0.86499476,-0.017044231#
1478468136065,-0.6466553,7.4509063,2.1004322,-0.03834952,-0.7041398,0.013848438#
1478468136169,0.83586186,8.782537,0.9699829,0.23435818,-1.0375676,0.083090626#
1478468136274,-2.9099488,11.00751,3.4536183,0.0777643,-0.7840346,-0.28868666#
1478468136380,-1.5639478,8.586145,1.9878663,-0.49428272,0.07669904,-1.0460896#
1478468136485,4.5577226,5.927674,-2.4525,0.12144015,-0.6679208,-0.08522116#
1478468136592,-0.25147706,7.5179667,-0.94603276,0.28655612,0.6466155,-0.41545314#
1478468136697,-0.28500733,8.298743,0.22513184,0.022370555,0.50387007,-0.04474111#
1478468136802,-0.6706055,8.6077,0.7759864,-0.15126756,0.36645097,0.14487597#
1478468136907,-0.6610254,8.871153,0.6706055,0.09054748,0.70200926,0.42397526#
1478468137011,-1.2933106,10.748848,2.0142114,-0.039414786,1.0418286,-0.67537767#
1478468137118,5.977969,13.170213,-3.0344899,0.26844665,-0.4644553,0.0777643#
1478468137224,-3.3554225,7.3646855,1.21188,-0.34301516,-0.2130529,-0.49641323#
1478468137331,-0.0023950196,7.1156034,1.1927198,-0.3834952,-2.0293288,0.34301516#
1478468137436,0.047900394,6.2510014,1.343606,-0.08628642,-0.65194184,-0.19281286#
1478468137542,-0.1460962,9.045989,1.0274634,0.21198763,-0.74675035,0.15446335#
1478468137647,-5.8175025,11.361973,5.352869,-0.42290998,-1.2921658,-0.8788432#
1478468137755,5.951624,2.9650342,1.7244141,-0.76059884,-0.28868666,-1.015197#
1478468137859,0.08861572,11.009905,-2.0621119,0.14274544,-0.53476274,0.20453078#
1478468137966,-1.6214283,7.189849,-0.1101709,0.45699844,1.1100056,-0.30146983#
1478468138071,-0.95561284,8.52148,0.73048097,0.22264028,0.3898868,0.314253#
1478468138175,-0.51971924,8.54543,0.68737066,0.06391586,0.35473305,0.3749731#
1478468138280,0.364043,10.380015,1.5519727,-0.068176925,0.79894835,0.18642128#
1478468138386,-1.1520045,10.93087,2.8955786,0.77231675,0.72437984,-0.8990832#
1478468138491,4.7948294,10.693763,1.465752,-0.48043427,0.36112466,-0.34940675#
1478468138595,-2.3614893,6.7898808,0.45026368,-0.5187838,-1.2740563,-0.058589544#
1478468138700,0.4167334,6.9958525,0.8382569,-0.20772657,-1.24849,0.36751625#
1478468138805,-0.6490503,5.7073317,2.6441016,0.099069595,-0.20879184,-0.16831179#
1478468138911,1.8106349,12.202625,2.4261549,0.046871636,-0.070307456,0.30679616#
1478468139018,5.712122,14.238392,-2.5387208,-0.36005938,0.6679208,2.2093585#
1478468139122,-0.14849122,11.745176,-0.977168,0.01917476,-0.59122175,-0.36964676#
1478468139229,2.193838,7.197034,-0.37122804,0.37710363,0.7946873,-0.45699844#
1478468139335,-1.6836988,7.429351,0.4742139,0.12463594,0.4527374,0.36325517#
1478468139440,-1.7435743,8.150251,1.2406201,0.033023197,-0.2066613,0.084155895#
1478468139547,-0.4167334,11.06978,0.82388675,0.07669904,0.5496765,0.41971418#
1478468139654,1.0538087,12.420572,3.5110989,0.5699165,0.5294364,-0.75101143#
1478468139759,7.302415,13.826448,0.23231691,-0.36645097,-0.26844665,0.04474111#
1478468139862,-3.171006,7.692803,0.3281177,-0.4261058,-0.44421527,-0.257794#
1478468139967,0.5245093,6.246211,1.1160791,-0.23329292,-1.0727214,0.28442562#
1478468140075,-1.0801538,6.1504107,2.919529,-0.07989483,-0.21837921,-0.314253#
1478468140180,0.51492923,12.906761,2.0237916,0.18642128,-0.23009712,0.37284255#
1478468140286,4.631968,12.83012,1.4370118,-0.98110855,1.0290455,1.4945661#
1478468140391,-0.20357667,12.511582,-1.0442286,0.28868666,-0.5422196,0.39627838#
1478468140499,0.1341211,7.7359133,-0.043110352,0.535828,1.470065,-0.37390783#
1478468140604,-1.3531861,8.423284,0.6466553,0.26738137,0.59761333,0.39734364#
1478468140710,-0.55803955,8.255632,0.728086,0.10546118,-0.19281286,0.34301516#
1478468140814,-0.87178713,8.916658,1.089734,-0.13315806,0.3888215,0.2876214#
1478468140921,4.5792775,11.874507,0.71371585,0.17789917,2.0314593,-0.7339672#
1478468141026,5.333709,12.494818,0.30177248,-0.10972224,0.18322548,-0.13848437#
1478468141134,5.333709,12.494818,0.30177248,-0.16618125,0.2695119,-0.32597092#
1478468141241,0.98435307,8.339458,0.97237796,-0.15126756,-1.7512947,0.25246766#
1478468141347,-0.51732427,6.9862723,2.3614893,-0.17789917,-0.62744075,-0.2759035#
1478468141450,0.20118165,9.287886,0.9651929,0.37603834,-0.3717773,0.32170987#
1478468141558,-4.4403663,10.538086,4.998406,-0.40266997,-1.2399678,-0.4825648#
1478468141665,4.3349857,4.0859036,1.4609619,-1.1781825,0.5613944,-0.46339005#
1478468141770,3.6931202,9.187295,-1.695674,0.30360037,-0.16085494,0.46658584#
1478468141875,-2.069297,8.040081,0.13651612,0.45699844,1.144094,-0.29188246#
1478468141979,-1.9447559,8.387359,1.7172291,0.07882957,0.37284255,0.18216023#
1478468142087,-0.4047583,8.198153,0.43349856,0.2727077,-0.053263225,0.46871635#
1478468142194,-0.49337405,10.013577,1.4082716,-0.0031957934,0.6125271,0.06391586#
1478468142300,0.9651929,12.365486,1.7579445,0.37816888,1.5595472,-0.69668293#
1478468142406,7.1611085,13.335469,0.60833496,-0.27057716,0.13848437,0.066046394#
1478468142510,-3.2596216,7.9227247,0.43349856,-0.41864893,-0.7350325,-0.12144015#
1478468142615,0.364043,6.104905,1.2046949,-0.27696875,-0.87351686,0.22370553#
1478468142719,-1.0801538,7.5299416,2.806963,-0.19281286,-0.24927188,-0.19281286#
1478468142823,0.14130616,10.614727,0.9148975,0.40586576,-0.6625945,0.47723848#
1478468142928,-1.8345851,16.549585,0.098195806,-0.221575,-0.757403,0.31851408#
1478468143033,0.74724615,7.391031,-0.8334668,-0.23009712,-0.3387541,-0.13848437#
1478468143139,2.6560767,7.2521195,-0.91729254,0.4857606,0.5475459,-0.18748654#
1478468143243,-1.5711329,7.534732,0.6466553,0.257794,0.96086854,0.19600865#
1478468143349,-2.1195924,7.999366,1.8058448,0.29614353,-0.294013,0.17044231#
1478468143454,-0.92208254,8.880733,0.9699829,0.2066613,-0.05219796,0.37923414#
1478468143562,-0.27303225,10.914104,1.695674,-0.018109497,0.41864893,0.083090626#
1478468143667,-1.1376343,8.01613,-1.092129,1.1217234,-0.11611383,-0.98856544#
1478468143771,2.8620484,9.611214,1.3483961,-0.33981937,0.2908172,-0.5837649#
1478468143875,-0.5340894,7.0221977,-0.014370117,-0.4676511,-1.6586168,0.18216023#
1478468143981,0.71371585,6.861731,0.46942386,-0.007456851,-1.4242586,0.0063915867#
1478468144087,-1.2645704,7.4269557,1.8992506,0.18322548,0.13635385,-0.08522116#
1478468144200,-0.13172609,9.271121,2.1627028,0.10439592,-0.21092236,0.14061491#
1478468144308,-3.5182838,12.0253935,4.8091993,-0.44101948,-0.6221144,-0.44528055#
1478468144415,-0.6993457,8.8951025,-1.0178833,-0.19600865,-0.4495416,-0.5592638#
1478468144520,3.772156,6.6270194,-0.78556645,0.6306366,1.3741912,-0.32490566#
1478468144624,-2.663262,7.9730206,0.5005591,0.36645097,0.9310411,0.36112466#
1478468144733,-1.1472144,8.629255,0.9484278,0.111852765,0.49321744,0.4048005#
1478468144838,-1.5399976,8.811277,1.0873389,-0.034088463,0.37390783,0.43356264#
1478468144949,0.31374758,9.987232,2.435735,0.056459017,0.98110855,-0.14594123#
1478468145055,0.79035646,14.889837,-4.4355764,-0.002130529,0.07669904,-0.13102753#
1478468145159,-0.85023195,9.580078,0.46463382,-0.2396845,0.033023197,-0.23861924#
1478468145263,-0.47900394,4.9481106,1.5088624,-0.3898868,-1.2080098,-0.015978966#
1478468145373,0.7592212,8.310719,1.4370118,-0.15339808,-0.70200926,0.101200126#
1478468145477,-2.304009,8.054451,2.308799,0.06391586,-0.04261058,-0.0127831735#
1478468145584,-2.9410841,10.799144,5.855823,-0.28122982,-0.73609775,-0.56885123#
1478468145689,7.5131764,13.366605,-1.6190332,-0.6380934,1.1792477,1.2399678#
1478468145795,0.102985844,10.770403,-0.8669971,0.2727077,-0.5368933,-0.2790993#
1478468145903,0.29698244,7.175479,0.05748047,0.41438788,1.087635,-0.41971418#
1478468146009,-1.4968873,8.234077,0.8167017,0.14274544,0.4527374,0.2972088#
1478468146116,-1.5064673,8.4304695,1.0154883,0.018109497,-0.13635385,0.27696875#
1478468146221,0.081430666,10.3440895,1.5256275,0.14487597,0.95660746,0.40906155#
1478468146329,-1.4873072,8.404124,3.1901662,1.0727214,0.22903186,-1.2974921#
1478468146433,7.359895,10.660233,1.5974782,-0.31851408,-0.08628642,-0.098004326#
1478468146540,-1.9399658,6.5216384,0.5460645,-0.29294774,-1.1877699,0.22583607#
1478468146646,0.31374758,6.8665214,1.477727,-0.10652645,-0.72651035,0.19600865#
1478468146750,-1.8345851,6.1384354,2.8836036,0.09161274,-0.29188246,-0.10439592#
1478468146855,1.2693604,12.86365,2.1483326,-0.08522116,-0.24394555,0.113983296#
1478468146960,3.7242556,19.210453,-1.2478052,-0.6988135,0.017044231,2.1699438#
1478468147067,1.587898,10.825489,-1.8250049,0.17044231,-0.34514567,0.3153183#
1478468147171,0.34488282,7.1563187,-0.5628296,0.59867865,1.551025,-0.5773733#
1478468147278,-1.1735597,8.181387,0.8334668,0.14487597,0.5368933,0.41864893#
1478468147384,-1.9926564,8.229287,0.9532178,0.15233281,-0.2790993,0.1917476#
1478468147490,-1.5711329,9.134604,-0.22752686,-0.060720075,0.16618125,0.5816344#
1478468147596,2.5363257,13.4169,1.7315992,0.2396845,1.2048141,-0.46978164#
1478468147702,4.054768,11.326048,0.7783814,-0.2545982,0.34834146,-0.28655612#
1478468147807,-1.6717237,7.230564,0.6730005,-0.2609898,-1.1366372,-0.14594123#
1478468147914,0.32572266,7.776629,0.9268726,-0.14594123,-1.2271847,0.21624869#
1478468148019,-1.2166699,6.607859,2.694397,-0.10333065,-0.47191215,-0.23755397#
1478468148127,0.8813672,9.292676,0.4406836,0.42717105,-0.8149273,0.34088463#
1478468148236,-5.4103494,13.888719,0.45744875,-0.2727077,-1.0290455,0.4293016#
1478468148340,0.038320314,5.728887,0.61073,-0.24714136,-0.32490566,-0.58483016#
1478468148446,3.319497,7.2281694,-0.9029224,0.4048005,0.8788432,-0.43995422#
1478468148550,-2.189048,7.661668,0.21315674,0.330232,1.4072144,0.2609898#
1478468148660,-2.1483326,8.52627,1.346001,0.1555286,0.39414784,0.41758367#
1478468148765,-1.5112574,8.322693,1.0729688,-0.039414786,0.05752428,0.34514567#
1478468148874,-0.016765138,10.406361,1.336421,0.11611383,0.61678815,-0.10759171#
1478468148980,-0.92926764,13.524676,-4.6966333,0.45486793,-0.5773733,-0.25672874#
1478468149090,-0.79993653,10.461446,1.1328443,-0.28229508,0.043675844,-0.515588#
1478468149201,0.4167334,4.734954,0.6610254,-0.30360037,-1.4306501,-0.027696876#
1478468149307,0.7496411,8.447234,1.5376027,-0.11504856,-0.55074173,0.049002163#
1478468149415,-1.5950831,9.10347,1.8848804,0.21837921,-0.69987875,0.17044231#
1478468149519,-3.9014869,11.896063,4.9552956,-0.5219796,-0.41864893,-0.55606806#
1478468149625,8.368198,11.203902,-1.7411792,-0.5944176,1.0950918,1.3677995#
1478468149729,1.3220508,10.782378,-1.336421,0.25885928,-0.20985709,0.29614353#
1478468149835,-0.122146,7.3790555,0.10538086,0.41758367,1.4029533,-0.46658584#
1478468149942,-1.9136207,8.717872,1.1496094,0.15126756,0.8628642,0.49747851#
1478468150049,-1.81782,8.320298,0.81191164,0.13954964,0.12250541,0.34940675#
1478468150154,-0.26345217,9.865086,1.8585353,-0.14913702,0.30786142,-0.0053263223#
1478468150261,3.0416749,11.263778,3.9733377,0.4250405,0.66152924,-0.6870956#
1478468150366,4.550537,10.839859,0.50774413,-0.1587244,-0.082025364,-0.025566347#
1478468150469,-1.4585669,6.5479836,0.51013917,-0.19813919,-1.128115,-0.07989483#
1478468150574,1.453777,8.796907,0.7496411,-0.053263225,-0.96619487,0.25033715#
1478468150682,0.28740236,7.2928348,1.4274317,-0.027696876,0.05219796,-0.083090626#
1478468150786,1.3579761,9.196876,0.2921924,0.48043427,-0.26418558,0.3110572#
1478468150890,-4.5792775,9.580078,3.4991236,-0.23329292,-1.4572818,-0.2727077#
1478468150994,3.4631984,2.9746144,2.0525317,-0.6668556,0.014913702,-0.6956177#
1478468151100,5.7767873,7.278465,-1.343606,0.21944448,0.88203895,-0.00958738#
1478468151206,-2.8668385,7.8748245,-0.033530276,0.36112466,1.7640779,0.13848437#
1478468151314,-2.201023,8.538245,0.9148975,0.043675844,0.5400891,0.33768883#
1478468151420,-0.9867481,8.260423,0.22273682,0.04261058,-0.04580637,0.43675843#
1478468151528,-1.8274,9.764495,1.6932789,0.1587244,-0.06391586,-0.20453078#
1478468151633,-0.25147706,11.223062,-4.543352,0.3888215,-0.05539375,-0.624245#
1478468151737,-0.16765137,10.542876,1.9830762,-0.23435818,0.37071204,-0.42184472#
1478468151843,-0.41194338,5.942044,0.86220706,-0.32490566,-1.2751216,0.16085494#
1478468151948,0.728086,7.9610453,1.1256592,-0.12463594,-0.1768339,0.053263225#
1478468152054,-3.5661843,6.591094,2.44292,0.051132694,-0.49428272,-0.26312032#
1478468152159,-2.0621119,12.631333,5.518125,-0.31957933,-0.17150758,-0.43249738#
1478468152263,4.2296047,3.300337,1.961521,-1.2229236,-0.25246766,-0.42077947#
1478468152371,4.502637,7.340735,-1.4873072,0.23329292,0.023435818,0.029827405#
1478468152479,-1.6789087,8.200547,0.28979737,0.30786142,1.3688648,-0.05219796#
1478468152583,-1.6669337,8.804092,0.9651929,0.1438107,0.3121225,0.3920173#
1478468152689,-1.7148341,7.95865,0.43349856,0.020240024,0.096939065,0.27164245#
1478468152796,-1.8848804,10.420731,1.4489869,0.004261058,0.7392935,0.13635385#
1478468152901,0.60594,9.22801,-0.17483643,0.9267801,0.12783173,-1.091896#
1478468153007,2.572251,10.873389,1.4729371,-0.11717909,0.330232,-0.1736381#
1478468153113,-1.2813355,5.9564137,0.87897223,-0.2695119,-1.2729911,-0.027696876#
1478468153221,1.8489552,9.249566,0.6011499,-0.020240024,-0.87138635,0.35792887#
1478468153329,-2.1746778,6.638994,1.9758912,0.026631612,-0.22796659,-0.16405073#
1478468153434,-0.2706372,9.956097,1.7555494,0.28868666,-0.4101268,0.09267801#
1478468153539,-2.2297633,13.234879,0.81191164,-0.257794,-0.8426242,-0.18535602#
1478468153643,2.9171338,4.263135,1.7004639,-0.55074173,0.23435818,-0.49960902#
1478468153752,3.0057497,7.5035963,-1.22625,0.39947417,1.0684602,0.101200126#
1478468153856,-2.0501368,8.672366,0.19639161,0.21624869,1.8333201,0.24074976#
1478468153963,-2.0501368,8.672366,0.19639161,0.21624869,1.8333201,0.24074976#
1478468154074,-2.5291407,8.552615,1.0729688,-0.015978966,0.67005134,0.3089267#
1478468154178,-0.25147706,10.540482,1.7914747,-0.037284255,0.94595486,0.27696875#
1478468154284,-1.6525636,10.818304,4.720584,0.29294774,0.9171927,-0.5411543#
1478468154389,5.216353,12.322376,0.8262818,-0.3174488,0.015978966,0.0010652645#
1478468154493,-2.6512868,8.590936,0.5724097,-0.3685815,-0.6317018,0.01917476#
1478468154601,-0.25147706,7.0916533,0.88376224,-0.17576863,-0.8873653,0.22050974#
1478468154711,-1.2765454,6.0186844,1.8250049,0.056459017,-0.5294364,-0.13741912#
1478468154817,-0.18441652,9.546548,1.2406201,0.20985709,-0.7233146,0.14807177#
1478468154923,-2.5530908,11.472144,3.7386258,-0.28442562,-1.0546118,-0.25992453#
1478468155028,7.3311553,10.047108,-2.2249732,-0.7701862,1.406149,1.0002834#
1478468155133,0.5556446,10.803933,-1.7507594,0.22264028,-0.01917476,-0.16724652#
1478468155239,0.44786867,7.247329,0.15088624,0.17150758,1.28897,-0.45380265#
1478468155343,0.1101709,8.104747,0.60594,0.18002969,1.0386329,0.13741912#
1478468155450,-1.1903248,8.801697,1.1160791,-0.099069595,0.5486112,0.32170987#
1478468155554,-0.26345217,8.0017605,0.92208254,0.07669904,0.5933523,0.5795039#
1478468155663,-2.323169,9.5489435,1.6765138,-0.013848438,1.135572,0.10972224#
1478468155769,-0.20357667,9.189691,5.3097587,0.42397526,-0.25992453,-0.5656554#
1478468155876,3.0344899,11.031461,2.1627028,-0.32490566,0.21411815,-0.56672066#
1478468155981,-1.0705738,6.69408,0.8095166,-0.25246766,-0.9076053,0.07882957#
1478468156087,1.4322218,8.471185,1.1472144,-0.07243799,-0.3749731,0.3888215#
1478468156191,-1.7627344,8.2125225,2.3447242,0.053263225,-0.45806372,0.1470065#
