timestamp(unix),attitude_roll(radians),attitude_pitch(radians),attitude_yaw(radians),rotation_rate_x(radians/s),rotation_rate_y(radians/s),rotation_rate_z(radians/s),gravity_x(G),gravity_y(G),gravity_z(G),user_acc_x(G),user_acc_y(G),user_acc_z(G),magnetic_field_x(microteslas),magnetic_field_y(microteslas),magnetic_field_z(microteslas),latitude(degree),longitude(degree),altitude(meter),speed(m/s),course(degree),timestamp(unix)
1478277266.54,-0.222805,-0.950108,0.070496,0.081327,0.016242,0.029965,-0.128513,0.813478,-0.567219,0.000187,-0.010668,0.018727,-9.135059,16.597603,-39.313957,,,,,,
,,,,,,,,,,,,,,,,37.352866,-122.034928,40.589233,0.780000,178.242188,1478280727.82
1478277266.56,-0.221020,-0.949672,0.072624,0.064555,0.002939,0.041635,-0.127578,0.813225,-0.567793,-0.002610,0.014549,0.009245,-9.069862,16.470594,-39.382404,,,,,,
1478277266.58,-0.221200,-0.950039,0.073051,0.060986,-0.002942,0.015715,-0.127615,0.813438,-0.567479,-0.010447,0.021278,0.013692,-9.069862,16.470594,-39.382404,,,,,,
,,,,,,,,,,,,,,,,37.352866,-122.034928,40.589233,0.780000,178.242188,1478280727.00
1478277266.60,-0.221052,-0.948804,0.073085,0.056167,0.003379,-0.027770,-0.127751,0.812719,-0.568478,-0.010311,0.021998,0.014691,-9.085865,16.508869,-39.362686,,,,,,
,,,,,,,,,,,,,,,,37.352866,-122.034928,40.589233,0.780000,178.242188,1478280727.88
1478277266.62,-0.221611,-0.947380,0.072398,0.075500,-0.014653,-0.058471,-0.128323,0.811889,-0.569535,0.006390,-0.005843,0.005341,-9.102223,16.427839,-39.392796,,,,,,
1478277266.64,-0.223608,-0.944826,0.071409,0.056397,-0.047563,-0.001055,-0.129919,0.810395,-0.571297,-0.012003,-0.010102,-0.006584,-9.115457,16.376709,-39.411026,,,,,,
1478277266.67,-0.225996,-0.945102,0.069968,0.028619,-0.019552,-0.013805,-0.131233,0.810557,-0.570767,-0.011040,-0.008341,0.029248,-9.115457,16.376709,-39.411026,,,,,,
,,,,,,,,,,,,,,,,37.352866,-122.034928,40.589233,0.780000,178.242188,1478280727.88
1478277266.69,-0.229794,-0.946330,0.066547,-0.017114,-0.004609,-0.057243,-0.133173,0.811275,-0.569296,-0.012167,0.004948,0.034475,-9.224155,16.319668,-39.409393,,,,,,
1478277266.71,-0.232362,-0.948426,0.063064,-0.204745,0.017974,-0.071257,-0.134243,0.812499,-0.567296,-0.010090,0.002885,0.042180,-9.299225,16.389679,-39.362671,,,,,,
1478277266.73,-0.239092,-0.958672,0.054558,-0.462270,0.078469,-0.112091,-0.136079,0.818429,-0.558262,-0.010818,0.008918,0.047901,-9.306896,16.508053,-39.311356,,,,,,
1478277266.75,-0.244277,-0.969263,0.044483,-0.584164,0.185734,-0.177282,-0.136868,0.824469,-0.549107,0.070553,-0.004355,-0.006725,-9.289734,17.185211,-39.024170,,,,,,
1478277266.77,-0.249750,-0.981578,0.033563,-0.673176,0.191755,-0.113741,-0.137350,0.831375,-0.538470,0.071616,-0.005707,-0.005964,-9.231430,17.533228,-38.882942,,,,,,
1478277266.79,-0.251859,-0.997511,0.023942,-0.890538,0.389116,-0.014838,-0.135168,0.840123,-0.525283,0.069433,-0.014455,-0.019150,-9.231430,17.533228,-38.882942,,,,,,
1478277266.81,-0.254554,-1.018285,0.016255,-1.059158,-0.060757,0.110331,-0.132158,0.851209,-0.507915,0.053331,-0.026777,-0.098515,-8.971892,18.429420,-38.527630,,,,,,
1478277266.84,-0.257262,-1.044947,0.009167,-1.386037,0.422798,0.139362,-0.127712,0.864898,-0.485429,0.000729,-0.002929,0.149537,-8.774513,19.740059,-37.919060,,,,,,
1478277266.86,-0.250868,-1.078614,0.000536,-1.619676,0.755536,0.256813,-0.117308,0.881304,-0.457758,0.159911,-0.066576,0.078791,-8.488619,20.594687,-37.527576,,,,,,
1478277266.88,-0.237814,-1.108044,-0.005760,-1.199900,0.715856,0.144901,-0.105165,0.894827,-0.433848,-0.070204,-0.034796,0.008052,-7.372476,22.457411,-36.685532,,,,,,
1478277266.90,-0.229674,-1.130707,-0.006621,-1.049966,0.518524,0.291841,-0.096988,0.904714,-0.414833,0.039981,-0.081334,-0.077568,-7.372476,22.457411,-36.685532,,,,,,
1478277266.92,-0.218959,-1.153686,-0.003114,-1.036854,0.280986,0.376129,-0.087997,0.914264,-0.395447,-0.128403,-0.028003,-0.232116,-6.619655,23.751785,-36.007629,,,,,,
1478277266.94,-0.197368,-1.179421,0.009541,-1.166645,0.510212,0.549379,-0.074800,0.924385,-0.374054,-0.039412,-0.073403,-0.025451,-6.352662,24.369801,-35.640892,,,,,,
1478277266.96,-0.176149,-1.211393,0.030882,-1.658820,-0.410143,0.706606,-0.061635,0.936107,-0.346273,-0.052577,-0.085124,-0.053232,-5.442255,25.791576,-34.780647,,,,,,
1478277266.98,-0.150787,-1.261273,0.064020,-2.603945,-0.127567,0.987051,-0.045757,0.952479,-0.301148,-0.005711,-0.311122,0.048661,-5.304851,26.763233,-34.060310,,,,,,
1478277267.01,-0.112380,-1.329634,0.106087,-3.397324,-0.122719,0.897474,-0.026783,0.971061,-0.237325,-0.023220,-0.938071,0.147680,-4.631046,29.731373,-31.608795,,,,,,
1478277267.03,-0.129895,-1.418504,0.087653,-4.758258,0.243391,-0.001523,-0.019650,0.988426,-0.150426,-0.145557,-0.914787,0.374135,-4.631046,29.731373,-31.608795,,,,,,
1478277267.05,-0.747236,-1.521956,-0.543371,-5.192196,0.602820,-1.205003,-0.033179,0.998808,-0.035813,-0.210305,-0.546629,0.321382,-4.239543,33.739944,-27.352501,,,,,,
1478277267.07,-1.353877,-1.516838,-1.166890,1.160800,1.332905,-0.467950,-0.052668,0.998545,-0.011607,0.050043,0.074972,-0.314717,-4.468886,35.956947,-24.323727,,,,,,
1478277267.09,-0.862865,-1.514169,-0.701558,0.389651,0.604515,0.541001,-0.042997,0.998397,-0.036803,0.083128,0.967362,0.185408,-4.313577,36.086040,-24.160038,,,,,,
1478277267.11,-0.975451,-1.527394,-0.800385,-0.257572,-0.793067,0.325616,-0.035924,0.999058,-0.024332,0.125218,0.665904,-0.068213,-4.313577,36.086040,-24.160038,,,,,,
1478277267.13,-0.753562,-1.524370,-0.582797,0.494934,0.495280,0.129746,-0.031755,0.998923,-0.033844,-0.066389,0.612833,0.224839,-3.743057,36.093342,-24.244112,,,,,,
1478277267.15,-0.573702,-1.520874,-0.410261,0.396444,0.218391,0.194920,-0.027084,0.998754,-0.041912,-0.060914,0.464716,0.207165,-3.743057,36.093342,-24.244112,,,,,,
1478277267.17,-0.553972,-1.519169,-0.400462,-0.022175,0.561724,-0.132273,-0.027147,0.998668,-0.043886,0.046236,0.445562,0.311510,-3.251654,35.823402,-24.710878,,,,,,
1478277267.20,-0.635752,-1.517037,-0.497880,-0.126974,0.875028,-0.291365,-0.031906,0.998555,-0.043235,0.062286,0.272990,0.229926,-2.954825,35.810238,-24.767170,,,,,,
1478277267.22,-0.768671,-1.523005,-0.650938,-0.618386,0.755468,0.422937,-0.033211,0.998858,-0.034341,0.665154,-3.354205,-0.237876,-2.752105,35.906437,-24.650978,,,,,,
1478277267.24,0.106450,-1.538827,0.221399,-0.242460,0.787817,0.839684,0.003396,0.999489,-0.031783,0.628547,-3.354836,-0.240434,-2.752105,35.906437,-24.650978,,,,,,
1478277267.26,0.898722,-1.543622,0.984946,-0.763697,1.183436,0.942188,0.021262,0.999631,-0.016917,-0.076301,0.581439,-0.188390,-0.085837,36.441357,-24.011179,,,,,,
1478277267.28,1.314110,-1.528808,1.378778,0.081782,1.117061,0.767860,0.040601,0.999119,-0.010657,-0.259504,0.578900,-0.179620,-0.085837,36.441357,-24.011179,,,,,,
1478277267.30,1.411069,-1.515370,1.470940,-0.075489,-0.171082,0.532160,0.054693,0.998464,-0.008811,-0.204885,0.376322,-0.215096,1.705926,36.648354,-23.632710,,,,,,
1478277267.32,1.292464,-1.508604,1.339453,0.875250,1.413910,0.134815,0.059760,0.998067,-0.017076,-0.122489,0.092220,-0.009810,2.367683,36.554577,-23.720745,,,,,,
1478277267.34,1.043536,-1.501659,1.044298,0.889517,1.976323,-0.108453,0.059700,0.997611,-0.034760,-0.080955,0.051507,0.088135,3.122489,36.180012,-24.202759,,,,,,
1478277267.37,0.887052,-1.496149,0.862962,0.451053,0.645616,-0.115120,0.057814,0.997215,-0.047111,0.015673,0.158791,-0.026238,3.122489,36.180012,-24.202759,,,,,,
1478277267.39,0.809985,-1.492027,0.772032,0.398597,0.801468,-0.058802,0.056992,0.996899,-0.054256,-0.168061,0.206027,0.090664,4.127725,35.622147,-24.870495,,,,,,
1478277267.41,0.742179,-1.487254,0.682952,0.400123,0.989030,-0.084602,0.056400,0.996512,-0.061499,-0.167469,0.206414,0.097906,4.641727,35.327824,-25.197544,,,,,,
1478277267.43,0.679273,-1.480388,0.602458,0.509532,0.725807,-0.014578,0.056720,0.995916,-0.070245,-0.117831,0.140849,-0.010825,4.989444,35.170788,-25.350304,,,,,,
1478277267.45,0.616988,-1.469163,0.524596,0.686179,0.730613,0.078432,0.058702,0.994840,-0.082752,-0.096407,0.005038,-0.115154,5.594640,34.727043,-25.831163,,,,,,
1478277267.47,0.576146,-1.454660,0.468384,0.751300,0.676493,0.191018,0.063128,0.993264,-0.097169,-0.099017,-0.047005,-0.106826,5.954154,34.426418,-26.151220,,,,,,
1478277267.49,0.566880,-1.440582,0.445186,0.536357,0.618781,0.278804,0.069728,0.991534,-0.109536,-0.073787,-0.100619,0.047235,5.954154,34.426418,-26.151220,,,,,,
1478277267.51,0.562077,-1.425794,0.431448,0.692755,0.337521,0.300489,0.077008,0.989506,-0.122264,-0.054303,-0.176334,0.099727,6.752002,33.819355,-26.742823,,,,,,
1478277267.54,0.563244,-1.413359,0.420278,0.362431,0.801443,0.175284,0.083714,0.987632,-0.132569,0.001430,-0.199836,0.259903,7.422252,33.199776,-27.334995,,,,,,
1478277267.56,0.572687,-1.404126,0.412972,0.478936,0.817601,0.228359,0.089900,0.986143,-0.139430,0.057516,-0.215665,0.080958,7.847249,33.007126,-27.449350,,,,,,
1478277267.58,0.591982,-1.391321,0.409246,0.507975,1.272566,0.358459,0.099611,0.983938,-0.148137,0.037412,-0.276815,0.093663,8.895176,32.527550,-27.701103,,,,,,
1478277267.60,0.631224,-1.377641,0.422655,0.433134,1.070015,0.514717,0.113280,0.981403,-0.154968,0.023744,-0.274281,0.100494,8.895176,32.527550,-27.701103,,,,,,
1478277267.62,0.659981,-1.361344,0.437362,0.610293,0.460582,0.607146,0.127479,0.978145,-0.164261,-0.021110,-0.224666,0.011948,10.414142,31.972870,-27.817223,,,,,,
1478277267.64,0.670070,-1.339574,0.435881,0.950567,0.697403,0.614700,0.142323,0.973387,-0.179617,-0.172611,-0.166884,0.080328,10.973811,31.626438,-27.997513,,,,,,
1478277267.66,0.669702,-1.313585,0.415435,1.158421,0.977303,0.581336,0.157910,0.967103,-0.199439,-0.206555,-0.206086,0.187950,12.163269,30.593143,-28.646664,,,,,,
1478277267.68,0.675124,-1.285937,0.399313,1.139324,0.937946,0.706960,0.175637,0.959701,-0.219375,-0.224282,-0.198684,0.207885,12.893605,29.948399,-29.006298,,,,,,
1478277267.71,0.682069,-1.254846,0.390594,1.340311,0.618053,0.894265,0.195878,0.950502,-0.241202,-0.279389,-0.273317,0.084693,14.389909,28.545292,-29.708813,,,,,,
1478277267.73,0.695376,-1.218282,0.391286,0.917156,0.573198,1.402045,0.221198,0.938508,-0.265094,-0.115852,1.493469,0.297275,14.389909,28.545292,-29.708813,,,,,,
1478277267.75,0.709066,-1.212728,0.396693,0.148160,0.399860,-0.273281,0.228197,0.936576,-0.265993,-0.718264,1.353585,0.507402,15.888677,26.916058,-30.456404,,,,,,
1478277267.77,0.703008,-1.212413,0.366178,0.282769,1.435397,-0.451005,0.226772,0.936465,-0.267595,-0.304439,-0.079730,0.592424,16.049391,26.891632,-30.393650,,,,,,
1478277267.79,0.710012,-1.215865,0.347516,-0.011032,0.760772,-0.267377,0.226532,0.937670,-0.263547,-0.060181,0.149640,0.348615,16.852917,26.828873,-30.011791,,,,,,
1478277267.81,0.713694,-1.223921,0.343846,-0.423418,0.274375,-0.348380,0.222549,0.940439,-0.256993,-0.141830,0.319235,0.362096,16.852917,26.828873,-30.011791,,,,,,
1478277267.83,0.729492,-1.242679,0.352841,-0.972925,0.323728,-0.561114,0.214784,0.946651,-0.240250,-0.376344,0.300954,0.434815,17.073063,27.581636,-29.193844,,,,,,
1478277267.85,0.761907,-1.273879,0.385029,-1.650108,-0.088821,-0.686392,0.201965,0.956243,-0.211683,-0.362395,0.269282,0.281904,17.073063,27.581636,-29.193844,,,,,,
1478277267.87,0.825066,-1.314663,0.456299,-2.210731,-0.243395,-0.756977,0.186103,0.967377,-0.171894,-0.346534,0.258148,0.242115,16.560106,29.191830,-27.894743,,,,,,
1478277267.90,0.953662,-1.360786,0.590837,-2.655280,-0.042331,-0.725162,0.170016,0.978029,-0.120642,-0.126177,0.264632,0.237204,16.092857,30.287376,-26.985397,,,,,,
1478277267.92,1.178858,-1.399745,0.821281,-2.589862,-0.167105,-0.523645,0.157311,0.985406,-0.065020,0.205116,0.324469,0.038790,15.300129,32.760487,-24.437132,,,,,,
1478277267.94,1.448922,-1.421056,1.096767,-2.093946,0.190434,-0.381136,0.148075,0.988810,-0.018136,0.359661,0.378927,0.015176,15.300129,32.760487,-24.437132,,,,,,
1478277267.96,1.757575,-1.429577,1.392099,-1.985684,0.950291,-0.541890,0.138303,0.990045,0.026137,0.287723,0.265296,-0.115584,14.717743,35.523918,-20.638704,,,,,,
1478277267.98,2.077706,-1.424482,1.703806,-2.114543,0.230823,-0.450277,0.127459,0.989315,0.070779,0.118192,0.094410,-0.422021,14.717743,35.523918,-20.638704,,,,,,
1478277268.00,2.340456,-1.404857,1.967051,-2.013465,0.204710,-0.395137,0.118622,0.986264,0.114946,-0.078202,0.122577,-0.304354,14.492931,37.014198,-18.011692,,,,,,
1478277268.02,2.527424,-1.380330,2.154206,-1.855871,-0.065022,-0.483952,0.109100,0.981916,0.154720,-0.059676,0.336749,-0.358059,14.081724,38.265141,-15.556377,,,,,,
1478277268.04,2.654186,-1.353125,2.305660,-1.843668,-1.606897,-0.658959,0.101140,0.976403,0.190809,-0.051717,0.342262,-0.394147,13.673186,38.817619,-14.517340,,,,,,
1478277268.07,2.751339,-1.324715,2.446857,-1.919245,-1.873793,-0.868982,0.092673,0.969874,0.225289,0.008676,0.249135,-0.377679,13.673186,38.817619,-14.517340,,,,,,
1478277268.09,2.836039,-1.294342,2.565785,-1.737321,-1.197287,-0.886758,0.082108,0.962029,0.260303,0.140091,-0.209741,-0.252613,11.974206,39.932995,-12.903144,,,,,,
1478277268.11,2.897397,-1.266083,2.656226,-1.573371,-1.308849,-0.735712,0.072538,0.953933,0.291118,0.160586,-0.266296,-0.451702,10.347605,40.918926,-11.094394,,,,,,
1478277268.13,2.930171,-1.238562,2.722723,-1.398568,-1.422569,-0.636436,0.068444,0.945316,0.318894,0.066520,-0.230320,-0.512101,9.850678,42.269295,-16.475296,,,,,,
1478277268.15,2.951953,-1.218030,2.776137,-0.914660,-1.307137,-0.643773,0.065128,0.938421,0.339301,0.006345,-0.261876,-0.526862,8.274132,43.119564,-15.080000,,,,,,
1478277268.17,2.967515,-1.208299,2.821078,-0.379391,-1.124330,-0.628295,0.061418,0.935014,0.349251,0.043303,-0.378465,-0.459007,7.514185,43.387497,-14.704650,,,,,,
1478277268.19,2.975664,-1.207433,2.853703,-0.017923,-1.060099,-0.483079,0.058704,0.934707,0.350539,0.053997,-0.452208,-0.389159,7.514185,43.387497,-14.704650,,,,,,
,,,,,,,,,,,,,,,,37.352863,-122.034931,40.554260,0.360000,178.242188,1478280728.87
1478277268.21,2.973535,-1.212893,2.875170,0.317295,-1.038139,-0.328741,0.058596,0.936633,0.345376,0.047148,-0.494769,-0.366510,6.219248,43.622360,-14.614217,,,,,,
1478277268.24,2.960457,-1.225771,2.883368,0.747011,-0.917405,-0.173718,0.060929,0.941067,0.332687,0.037582,-0.468960,-0.340637,5.234629,43.552078,-15.198015,,,,,,
1478277268.26,2.934192,-1.247072,2.870647,1.182438,-0.491506,0.104514,0.065502,0.948057,0.311283,0.062504,-0.493574,-0.267063,4.895265,43.382771,-15.784052,,,,,,
1478277268.28,2.890880,-1.274395,2.828537,1.495958,0.037623,0.386934,0.072464,0.956394,0.282949,-0.001800,-0.195194,0.099772,4.885158,42.713818,-17.516548,,,,,,
1478277268.30,2.828795,-1.303136,2.759682,1.544308,0.224156,0.504655,0.081385,0.964392,0.251643,-0.120722,0.174631,0.389761,4.885158,42.713818,-17.516548,,,,,,
1478277268.32,2.761585,-1.326817,2.688992,1.107251,-0.122648,0.348118,0.089603,0.970384,0.224333,-0.128940,0.168638,0.417070,5.618122,41.729107,-19.552055,,,,,,
1478277268.34,2.731258,-1.334074,2.667457,-0.028516,-0.634123,-0.126145,0.093553,0.972112,0.215049,-0.372438,1.076625,1.256050,5.880454,41.287289,-20.394714,,,,,,
1478277268.36,2.774503,-1.330304,2.730449,-0.573858,-0.910808,-0.825723,0.085483,0.971221,0.222312,-0.251407,0.709367,0.747247,5.414969,41.192661,-20.712494,,,,,,
1478277268.38,2.855696,-1.323791,2.830635,-0.647498,-0.575773,-0.999954,0.068954,0.969649,0.234577,-0.136169,-0.133025,0.405148,4.587098,41.443329,-20.410131,,,,,,
1478277268.40,2.917879,-1.321211,2.899037,0.000910,0.033856,-0.442815,0.054798,0.969015,0.240847,0.128613,-0.720449,0.019666,3.056712,41.901993,-19.749531,,,,,,
1478277268.43,2.890104,-1.335271,2.861085,1.181438,0.684355,0.622925,0.058069,0.972392,0.226013,0.376181,-0.091594,-0.292359,3.056712,41.901993,-19.749531,,,,,,
1478277268.45,2.822893,-1.357334,2.762543,1.077695,1.774239,0.614899,0.066378,0.977303,0.201177,0.281339,0.768089,-0.234121,3.632236,41.412724,-20.662956,,,,,,
1478277268.47,2.832438,-1.356501,2.753178,-0.744346,0.009364,-0.304361,0.064702,0.977127,0.202577,-0.157903,0.146012,0.462157,4.591155,40.944405,-21.392567,,,,,,
1478277268.49,2.924163,-1.337254,2.838863,-0.798791,0.873629,-0.633855,0.049923,0.972853,0.225976,-0.143124,0.150286,0.438758,4.827709,41.243004,-20.757469,,,,,,
1478277268.51,2.973669,-1.348590,2.864783,1.154533,1.099722,-0.083650,0.036834,0.975414,0.217282,0.104600,-0.891506,-0.844174,4.827709,41.243004,-20.757469,,,,,,
1478277268.53,2.913905,-1.385812,2.778406,2.198298,1.458201,0.767178,0.041518,0.982939,0.179184,0.738054,-0.911085,-0.540665,5.462404,40.699669,-21.653255,,,,,,
1478277268.55,2.675110,-1.422537,2.488635,2.397824,2.614491,2.012503,0.066435,0.989030,0.131934,0.412675,0.291824,-0.505866,5.462404,40.699669,-21.653255,,,,,,
1478277268.57,2.338978,-1.427506,2.088489,1.197245,2.570060,1.733097,0.102699,0.989751,0.099222,-0.707359,1.501063,-0.238977,8.982205,38.644093,-24.106407,,,,,,
1478277268.60,2.208304,-1.430311,1.942799,1.082377,-0.416411,-0.056173,0.112521,0.990148,0.083341,-0.813357,1.026530,-0.615812,11.298649,37.686901,-24.641487,,,,,,
1478277268.62,1.967535,-1.455047,1.708558,1.932542,0.051771,-0.253978,0.106520,0.993309,0.044627,-0.207594,-0.144493,-0.043590,11.758993,36.714424,-25.863907,,,,,,
1478277268.64,1.690887,-1.459141,1.423391,1.266953,-0.092323,0.430706,0.110621,0.993773,0.013349,0.318914,-0.424117,0.176242,11.758993,36.714424,-25.863907,,,,,,
1478277268.66,1.477132,-1.447497,1.223354,1.035786,-0.789959,0.578904,0.122448,0.992408,-0.011503,-0.056606,-0.006446,-0.184374,11.934275,34.681568,-28.459208,,,,,,
1478277268.68,1.328453,-1.433151,1.073530,1.073707,0.602278,0.464714,0.133202,0.990542,-0.032928,-0.067360,-0.004580,-0.162949,11.934275,34.681568,-28.459208,,,,,,
1478277268.70,1.195470,-1.416415,0.907567,1.426022,1.857682,0.380294,0.143065,0.988107,-0.056368,-0.017607,-0.060189,-0.104872,12.519692,33.515503,-29.582647,,,,,,
1478277268.72,1.096621,-1.395805,0.771589,1.264862,1.354504,0.518048,0.154891,0.984728,-0.079495,-0.032775,-0.128557,0.084591,14.568255,32.025085,-30.287367,,,,,,
1478277268.74,1.044130,-1.374055,0.699112,0.912381,0.639436,0.627279,0.168985,0.980709,-0.098256,-0.132029,-0.171367,0.094838,15.404268,31.322037,-30.607241,,,,,,
1478277268.77,1.015593,-1.353628,0.662537,0.786963,0.216727,0.627946,0.183101,0.976511,-0.113575,-0.146144,-0.167170,0.110157,15.404268,31.322037,-30.607241,,,,,,
1478277268.79,0.985103,-1.333857,0.627146,0.843468,0.223035,0.545657,0.195606,0.972061,-0.129753,-0.329975,-0.081756,0.082878,16.855595,29.599480,-31.542423,,,,,,
1478277268.81,0.955280,-1.314585,0.586955,0.932031,0.567824,0.455055,0.206909,0.967357,-0.146318,-0.271103,-0.006771,0.043291,16.855595,29.599480,-31.542423,,,,,,
1478277268.83,0.927554,-1.295109,0.542087,1.025899,0.806075,0.383739,0.217809,0.962238,-0.163269,-0.195074,0.083340,0.064194,17.746803,28.423058,-32.130131,,,,,,
1478277268.85,0.898554,-1.275255,0.495289,1.085508,0.660972,0.345140,0.227888,0.956645,-0.181378,-0.109159,0.106298,0.207913,18.882572,27.137320,-32.591087,,,,,,
1478277268.87,0.869779,-1.255818,0.456050,0.904673,0.260029,0.382406,0.236742,0.950803,-0.199817,-0.063707,0.001361,0.452563,19.319321,26.471811,-32.881172,,,,,,
1478277268.89,0.863557,-1.239179,0.450186,0.335602,-0.173468,0.662861,0.247487,0.945517,-0.211537,-0.124928,-0.068503,0.567509,19.319321,26.471811,-32.881172,,,,,,
1478277268.91,0.888497,-1.228501,0.482654,-0.210733,-0.304234,0.646552,0.260506,0.941987,-0.211654,-0.769860,0.279372,0.014892,19.804529,25.433012,-33.408192,,,,,,
1478277268.94,0.898292,-1.225136,0.499416,-0.002878,-0.225363,0.049540,0.265045,0.940852,-0.211066,-0.793960,0.365071,0.087302,20.005730,25.148499,-33.503559,,,,,,
1478277268.96,0.886566,-1.232381,0.486792,-0.171266,0.111906,-0.647007,0.257263,0.943282,-0.209845,-0.786178,0.362642,0.086081,19.912678,25.143736,-33.562515,,,,,,
1478277268.98,0.881330,-1.252502,0.479364,-0.750030,-0.008002,-0.843236,0.241465,0.949771,-0.199074,-0.072398,0.481382,0.574135,19.484516,25.819231,-33.299934,,,,,,
1478277269.00,0.911205,-1.284650,0.509907,-1.633186,0.174029,-0.983410,0.223052,0.959339,-0.172965,-0.126875,0.323803,0.751441,19.109203,26.582790,-32.914406,,,,,,
1478277269.02,0.997780,-1.329341,0.588689,-2.164103,0.621701,-1.295817,0.200922,0.970991,-0.129641,-0.287775,0.350115,0.453005,19.109203,26.582790,-32.914406,,,,,,
1478277269.04,1.151489,-1.379655,0.733142,-2.609814,0.570672,-1.368032,0.173521,0.981788,-0.077346,-0.067137,0.429329,0.433333,18.512650,29.113726,-31.061829,,,,,,
1478277269.06,1.460525,-1.418443,1.039532,-2.861575,0.128702,-0.886393,0.150842,0.988417,-0.016701,0.432165,0.549440,0.207787,17.730907,32.286690,-28.255075,,,,,,
1478277269.08,1.838282,-1.426666,1.415438,-2.408425,0.604345,-0.443132,0.138524,0.989631,0.037963,0.605602,0.417595,-0.387755,17.327602,33.778229,-26.719843,,,,,,
1478277269.10,2.188913,-1.412795,1.738570,-2.334838,1.818131,-0.460870,0.128231,0.987544,0.091181,0.308979,0.229589,-0.535533,17.497375,35.968201,-23.564695,,,,,,
1478277269.13,2.438865,-1.387145,1.973970,-2.133338,-0.129236,-0.277398,0.118028,0.983183,0.139355,0.319182,0.233949,-0.583706,17.497375,35.968201,-23.564695,,,,,,
1478277269.15,2.571463,-1.349157,2.137189,-2.446425,-1.545722,-0.174028,0.118651,0.975538,0.185059,-0.142119,0.251253,-0.330475,17.591961,37.730724,-20.544582,,,,,,
1478277269.17,2.678699,-1.311221,2.258619,-2.108799,-0.484652,-0.305651,0.114613,0.966499,0.229659,-0.155415,0.303719,-0.275344,17.022142,38.544807,-19.486128,,,,,,
1478277269.19,2.738477,-1.273362,2.345369,-2.082202,-1.270310,-0.370897,0.114967,0.956092,0.269577,-0.191322,0.259408,-0.496902,16.291166,39.960442,-17.115061,,,,,,
1478277269.21,2.786881,-1.239773,2.431965,-1.879957,-1.807231,-0.700291,0.112883,0.945710,0.304778,-0.084990,0.038268,-0.545699,16.291166,39.960442,-17.115061,,,,,,
1478277269.23,2.826879,-1.208862,2.518582,-1.808122,-1.983015,-0.875551,0.109605,0.935214,0.336693,0.064025,-0.144366,-0.521782,13.886504,41.853657,-14.512091,,,,,,
1478277269.25,2.853831,-1.175993,2.598126,-1.907488,-2.323671,-0.863740,0.109159,0.923072,0.368811,0.166704,-0.231346,-0.593116,13.886504,41.853657,-14.512091,,,,,,
1478277269.27,2.864967,-1.145578,2.664105,-1.567495,-2.290592,-0.752852,0.112663,0.910949,0.396836,0.218818,-0.295318,-0.626313,11.764874,43.021355,-12.880817,,,,,,
1478277269.30,2.866302,-1.124535,2.712807,-0.990682,-1.755711,-0.596196,0.117319,0.902067,0.415345,0.180181,-0.403013,-0.588990,10.769064,43.494141,-12.142979,,,,,,
1478277269.32,2.867437,-1.115826,2.742778,-0.282147,-0.862372,-0.415932,0.118970,0.898274,0.423025,0.107440,-0.454503,-0.536138,9.228906,44.085541,-11.245310,,,,,,
1478277269.34,2.870588,-1.120258,2.759427,0.337306,-0.434484,-0.392909,0.116570,0.900213,0.419557,0.012886,-0.468389,-0.517046,9.228906,44.085541,-11.245310,,,,,,
1478277269.36,2.870063,-1.137391,2.769725,0.948494,-0.539455,-0.427569,0.112637,0.907541,0.404577,0.036228,-0.577249,-0.515356,8.040756,44.151371,-11.881387,,,,,,
1478277269.38,2.856110,-1.167193,2.771406,1.571183,-0.794825,-0.390297,0.110602,0.919652,0.376839,0.055963,-0.604344,-0.381203,8.040756,44.151371,-11.881387,,,,,,
1478277269.40,2.828284,-1.207583,2.754612,2.068822,-0.299851,-0.179815,0.109500,0.934760,0.337985,0.057065,-0.619452,-0.342349,7.177890,43.700729,-13.924401,,,,,,
1478277269.42,2.792276,-1.250226,2.705519,2.147832,0.994616,0.266476,0.107848,0.949056,0.296078,0.189607,-0.139928,0.257435,6.884996,43.270397,-15.343865,,,,,,
1478277269.44,2.741833,-1.283269,2.622776,1.569217,1.300848,0.597758,0.110369,0.958948,0.261223,-0.088885,0.547140,0.670098,7.572216,42.096657,-18.047092,,,,,,
1478277269.47,2.706370,-1.287858,2.582342,-0.377742,-0.785732,0.185678,0.117705,0.960239,0.253152,-0.388793,1.192333,1.316596,7.572216,42.096657,-18.047092,,,,,,
1478277269.49,2.709711,-1.276974,2.631305,-0.560693,-2.426527,-0.720564,0.121226,0.957144,0.263020,-0.369258,1.043955,0.830760,7.759063,41.755466,-18.746796,,,,,,
1478277269.51,2.744038,-1.283393,2.701847,-0.039183,-0.826591,-1.110862,0.109747,0.958983,0.261356,-0.061514,0.334092,0.561321,7.759063,41.755466,-18.746796,,,,,,
1478277269.53,2.824965,-1.286824,2.782439,-0.252453,0.527406,-0.928930,0.087235,0.959950,0.266244,-0.018403,-0.296879,0.457617,5.564919,42.070057,-18.823030,,,,,,
1478277269.55,2.866523,-1.295740,2.810759,0.788162,0.796889,-0.157514,0.073771,0.962410,0.261391,0.194082,-0.412651,-0.385384,4.769675,42.238609,-18.663191,,,,,,
1478277269.57,2.826061,-1.328196,2.736794,2.219807,1.997651,0.722579,0.074548,0.970717,0.228368,0.193305,-0.420958,-0.352361,5.126492,41.876919,-19.370274,,,,,,
1478277269.59,2.750407,-1.360834,2.598214,1.365395,2.952818,0.684048,0.079469,0.978039,0.192678,0.289291,0.774555,-0.612768,5.126492,41.876919,-19.370274,,,,,,
1478277269.61,2.804947,-1.345428,2.643455,-2.197066,-1.352524,-0.706742,0.073816,0.974712,0.210922,-0.162820,0.494420,0.696137,7.751554,40.423882,-21.470629,,,,,,
1478277269.63,2.882277,-1.327100,2.746280,-0.026885,-0.153768,-0.800501,0.061872,0.970453,0.233224,0.242053,-1.062982,-0.769403,7.111594,41.303059,-19.966148,,,,,,
1478277269.66,2.896585,-1.355420,2.741848,1.933774,1.280586,0.098937,0.051840,0.976896,0.207332,0.529337,-1.568968,-0.736446,6.538588,41.410061,-19.940369,,,,,,
1478277269.68,2.791683,-1.404445,2.589674,2.841993,2.850358,0.879021,0.056765,0.986196,0.155551,0.640653,-0.921864,-0.497470,7.751190,40.003193,-22.244732,,,,,,
1478277269.70,2.525866,-1.441890,2.226714,2.383662,5.110033,1.835117,0.074244,0.991703,0.104942,0.420629,0.081951,-0.445076,9.693097,38.815544,-23.549143,,,,,,
1478277269.72,2.226547,-1.436622,1.856840,0.862160,1.037679,1.202836,0.106027,0.991012,0.081568,-0.634911,1.426270,-0.927332,9.693097,38.815544,-23.549143,,,,,,
1478277269.74,2.012935,-1.450195,1.666005,1.679163,-1.276593,-0.166437,0.108740,0.992736,0.051477,-0.151846,-0.284027,0.540060,14.686470,36.765873,-24.243401,,,,,,
1478277269.76,1.761358,-1.456351,1.424545,1.237116,-0.372945,0.261811,0.112129,0.993458,0.021630,-0.155235,-0.284749,0.569908,13.935951,35.648785,-26.270098,,,,,,
1478277269.78,1.528288,-1.451052,1.198990,1.139125,-0.253566,0.382574,0.119350,0.992839,-0.005076,0.028111,-0.357112,-0.005315,13.906804,35.063259,-27.061655,,,,,,
1478277269.80,1.367665,-1.439210,1.029429,1.126684,0.586292,0.474066,0.128509,0.991355,-0.026469,0.169464,-0.247947,-0.497807,14.274215,33.901638,-28.321199,,,,,,
1478277269.83,1.219830,-1.419278,0.860534,1.430925,1.053125,0.664311,0.141739,0.988543,-0.051894,0.171708,-0.014513,-0.197908,14.274215,33.901638,-28.321199,,,,,,
1478277269.85,1.114460,-1.393781,0.734054,1.303747,0.738666,0.763341,0.158073,0.984374,-0.077597,0.155373,-0.010344,-0.172205,15.707207,32.414673,-29.287151,,,,,,
1478277269.87,1.047345,-1.366013,0.655033,1.197354,0.352928,0.838372,0.176126,0.979105,-0.101652,-0.185342,-0.095621,0.167219,16.487152,31.593864,-29.751741,,,,,,
1478277269.89,1.005255,-1.339711,0.603793,1.039270,0.489513,0.746312,0.193373,0.973418,-0.122733,-0.346617,-0.079223,0.201392,17.706392,29.992306,-30.693806,,,,,,
1478277269.91,0.974582,-1.317516,0.556904,1.035576,0.784843,0.491840,0.207347,0.968096,-0.140705,-0.371059,-0.067598,0.048938,18.294788,29.269775,-31.044252,,,,,,
1478277269.93,0.939984,-1.296278,0.501812,1.174444,0.911578,0.437435,0.218913,0.962556,-0.159885,-0.146556,-0.059403,-0.029995,19.535130,27.915232,-31.532255,,,,,,
1478277269.95,0.916754,-1.273691,0.459221,1.002004,0.760406,0.557544,0.232338,0.956188,-0.178111,-0.015007,0.025410,0.107371,19.535130,27.915232,-31.532255,,,,,,
1478277269.97,0.908351,-1.251900,0.436788,0.818001,0.516421,0.635856,0.247207,0.949582,-0.192829,-0.101577,0.150867,0.273731,20.810791,26.493570,-31.940044,,,,,,
1478277270.00,0.904701,-1.233070,0.423091,0.634488,0.441709,0.509437,0.260515,0.943510,-0.204744,-0.460879,0.139864,0.481569,21.367111,25.845419,-32.103355,,,,,,
1478277270.02,0.909020,-1.221054,0.414465,0.337798,0.667959,0.272073,0.270322,0.939461,-0.210569,-0.500012,0.125572,0.412702,22.267048,24.814695,-32.304398,,,,,,
1478277270.04,0.921678,-1.216012,0.413412,0.057134,0.547744,0.134737,0.276735,0.937722,-0.209991,-0.506425,0.127311,0.412124,22.267048,24.814695,-32.304398,,,,,,
1478277270.06,0.934570,-1.217119,0.421045,-0.254502,0.118354,-0.043495,0.278585,0.938105,-0.205789,-0.557027,0.272558,0.239816,23.284416,24.443640,-31.867054,,,,,,
1478277270.08,0.944588,-1.225765,0.432320,-0.409729,-0.075200,-0.335393,0.274050,0.941065,-0.198226,-0.504472,0.313391,0.148971,23.284416,24.443640,-31.867054,,,,,,
1478277270.10,0.943811,-1.240938,0.436259,-0.559738,-0.355871,-0.620815,0.262301,0.946088,-0.190039,-0.248507,0.426348,0.260398,23.089441,24.983849,-31.588755,,,,,,
1478277270.12,0.960472,-1.262934,0.465037,-1.269680,-0.465704,-0.592324,0.248315,0.952984,-0.173672,-0.162973,0.380131,0.626049,22.732782,25.440506,-31.482786,,,,,,
1478277270.14,1.042415,-1.299105,0.550252,-2.199947,0.294741,-0.982734,0.231764,0.963318,-0.135291,-0.348448,0.246490,0.722159,21.810324,27.066433,-30.771460,,,,,,
1478277270.17,1.207457,-1.348159,0.711124,-2.974403,0.394495,-1.391642,0.206388,0.975318,-0.078473,-0.380277,0.252236,0.448666,21.810324,27.066433,-30.771460,,,,,,
1478277270.19,1.513901,-1.391169,1.020667,-3.225711,-0.106850,-1.299777,0.178374,0.983910,-0.010160,0.340364,0.827216,-0.330188,20.496082,32.071793,-26.579605,,,,,,
1478277270.21,1.863133,-1.405804,1.387286,-2.663547,-0.571566,-0.782788,0.157277,0.986420,0.047334,0.361461,0.824707,-0.387681,20.496082,32.071793,-26.579605,,,,,,
1478277270.23,2.191717,-1.392949,1.705965,-2.493520,1.575035,-0.550751,0.143890,0.984227,0.102924,0.569505,0.511730,-0.531681,19.083595,35.006519,-23.780760,,,,,,
1478277270.25,2.473272,-1.368926,1.943778,-2.184004,2.219832,-0.607526,0.124245,0.979693,0.157367,0.350578,0.205304,-0.308154,19.500072,37.087486,-19.985744,,,,,,
1478277270.27,2.623258,-1.337779,2.092228,-2.025409,-1.079631,-0.347240,0.114403,0.972974,0.200582,-0.062340,0.228411,-0.388479,19.642439,37.898369,-18.249733,,,,,,
1478277270.29,2.700263,-1.299988,2.202321,-2.295675,-1.121980,-0.367592,0.114265,0.963555,0.241879,-0.307228,0.271965,0.094959,19.642439,37.898369,-18.249733,,,,,,
1478277270.31,2.779250,-1.258350,2.301627,-2.248027,-0.766018,-0.480481,0.108958,0.951585,0.287428,-0.184062,0.279556,-0.391646,18.099970,40.002239,-15.079011,,,,,,
1478277270.33,2.822163,-1.221141,2.380322,-1.993133,-2.028488,-0.627675,0.107577,0.939491,0.325245,-0.195452,0.187096,-0.806064,18.099970,40.002239,-15.079011,,,,,,
1478277270.36,2.843683,-1.185184,2.456570,-1.992638,-2.373500,-0.764090,0.110402,0.926568,0.359559,-0.106602,0.026343,-0.635072,16.714174,41.244110,-13.218333,,,,,,
1478277270.38,2.860713,-1.151770,2.528052,-1.813681,-2.331318,-0.860223,0.112785,0.913486,0.390927,0.010170,-0.195483,-0.596798,14.766548,42.407661,-11.777270,,,,,,
1478277270.40,2.865533,-1.121327,2.591712,-1.623916,-2.556221,-0.780510,0.118427,0.900678,0.418036,0.142239,-0.380964,-0.611869,13.748088,42.927895,-11.106329,,,,,,
1478277270.42,2.861116,-1.101025,2.641713,-0.890533,-2.077156,-0.694769,0.125309,0.891672,0.434993,0.167218,-0.444300,-0.569545,13.748088,42.927895,-11.106329,,,,,,
1478277270.44,2.853565,-1.096716,2.670384,-0.087979,-1.243853,-0.443124,0.129680,0.889713,0.437714,0.072743,-0.564518,-0.480240,11.893191,43.698105,-10.207458,,,,,,
1478277270.46,2.847387,-1.105043,2.682278,0.520677,-0.575848,-0.327917,0.130229,0.893483,0.429800,0.010381,-0.530233,-0.552603,10.778819,43.934639,-10.427327,,,,,,
1478277270.48,2.839258,-1.123322,2.685419,0.959319,-0.549850,-0.312337,0.128833,0.901543,0.413065,0.011777,-0.538292,-0.535868,10.449325,43.902321,-10.888628,,,,,,
1478277270.50,2.819905,-1.150260,2.679457,1.435999,-0.692431,-0.235528,0.129076,0.912870,0.387308,0.058272,-0.617918,-0.547343,9.810394,43.620899,-12.495505,,,,,,
1478277270.53,2.784232,-1.187823,2.653658,2.069191,-0.386344,-0.070977,0.130714,0.927558,0.350073,0.094978,-0.559638,-0.340215,9.530577,43.320976,-13.697655,,,,,,
1478277270.55,2.733306,-1.233797,2.592253,2.522535,0.812636,0.325365,0.131283,0.943751,0.303478,0.155002,-0.281275,0.075108,9.530577,43.320976,-13.697655,,,,,,
1478277270.57,2.657643,-1.269473,2.481466,1.828977,1.499564,0.969725,0.138087,0.954945,0.262702,0.106526,0.457592,0.793664,9.642258,42.207417,-16.754868,,,,,,
1478277270.59,2.605321,-1.271519,2.415707,-0.337210,-0.483963,0.451228,0.150639,0.955550,0.253441,-0.451450,1.436632,1.540580,11.451251,40.885204,-18.773216,,,,,,
1478277270.61,2.608682,-1.255359,2.465127,-1.062846,-2.507594,-0.582411,0.157611,0.950661,0.267213,-0.556400,1.429695,1.218932,11.585684,40.892879,-18.673748,,,,,,
1478277270.63,2.651373,-1.254899,2.540696,-0.383116,-0.544716,-1.112579,0.146269,0.950518,0.274082,0.008531,-0.059847,0.407375,9.603104,41.603096,-18.224363,,,,,,
1478277270.65,2.727464,-1.256048,2.616703,-0.435497,0.336636,-0.853775,0.124571,0.950874,0.283407,0.030229,-0.060204,0.398050,9.603104,41.603096,-18.224363,,,,,,
1478277270.67,2.753227,-1.259196,2.640422,0.415693,0.241441,-0.037795,0.116096,0.951844,0.283751,0.097878,-0.720307,-0.074477,8.331413,42.117313,-17.660240,,,,,,
1478277270.70,2.715045,-1.282104,2.577399,1.855183,1.590256,0.539788,0.117789,0.958617,0.259190,-0.116660,0.038240,-0.719227,8.186749,42.120419,-17.720383,,,,,,
1478277270.72,2.663236,-1.317187,2.471716,1.826769,2.529830,0.340205,0.115494,0.968013,0.222737,-0.020661,1.351094,-0.662403,9.602577,41.043072,-19.453056,,,,,,
1478277270.74,2.708353,-1.319786,2.500761,-1.211292,-0.839306,-0.840653,0.104274,0.968662,0.225435,-0.184047,1.395825,0.712630,9.602577,41.043072,-19.453056,,,,,,
1478277270.76,2.762507,-1.319493,2.585142,0.343815,-0.751258,-0.812605,0.092024,0.968589,0.231012,0.109010,-0.515296,-0.633661,9.265129,41.032829,-19.637436,,,,,,
1478277270.78,2.744994,-1.344349,2.556219,1.537959,1.081647,0.265757,0.086727,0.974470,0.207090,0.594944,-1.164915,-0.389417,9.265129,41.032829,-19.637436,,,,,,
1478277270.80,2.639312,-1.372142,2.407119,1.990124,2.489732,1.086989,0.095009,0.980333,0.172975,0.706581,-0.914125,-0.203218,9.350661,40.340652,-20.984795,,,,,,
1478277270.82,2.453615,-1.389345,2.142477,1.747577,3.647071,1.626389,0.114586,0.983583,0.139409,0.383262,-0.199266,-0.540334,10.603731,39.564281,-21.849331,,,,,,
1478277270.84,2.267633,-1.390628,1.918947,1.324051,-0.256006,0.879046,0.137421,0.983813,0.115007,-0.241638,0.905133,-1.186204,14.790829,37.662777,-22.757668,,,,,,
1478277270.87,1.987596,-1.410294,1.675060,2.395387,-1.745804,-0.016450,0.146133,0.987147,0.064699,-0.636275,1.168248,-0.824953,14.790829,37.662777,-22.757668,,,,,,
1478277270.89,1.755212,-1.418920,1.445097,1.344000,0.163917,0.188982,0.148727,0.988489,0.027743,-0.157516,-0.293115,0.026594,14.424958,35.212265,-26.592884,,,,,,
1478277270.91,1.592333,-1.416382,1.284282,1.095737,-0.221520,0.307504,0.153766,0.988102,0.003312,0.010480,-0.370640,-0.206803,14.424958,35.212265,-26.592884,,,,,,
1478277270.93,1.449206,-1.407502,1.127921,1.269142,0.978257,0.343811,0.161370,0.986697,-0.019718,0.002876,-0.369235,-0.183773,14.619001,34.084797,-27.922682,,,,,,
1478277270.95,1.317344,-1.394048,0.967678,1.403706,1.238359,0.436167,0.170213,0.984421,-0.044089,0.087936,0.005982,-0.009530,15.875657,32.748302,-28.821463,,,,,,
1478277270.97,1.224272,-1.375130,0.847823,1.146924,1.126091,0.576513,0.182863,0.980918,-0.066031,-0.070009,0.026742,0.152213,16.681122,31.995239,-29.209747,,,,,,
1478277270.99,1.175684,-1.355587,0.776924,0.904839,0.965976,0.618904,0.197098,0.976932,-0.082199,-0.226807,-0.108676,0.126083,16.681122,31.995239,-29.209747,,,,,,
1478277271.01,1.145143,-1.337008,0.725675,0.806821,0.852962,0.574597,0.210993,0.972796,-0.095658,-0.323862,-0.120028,0.111817,18.978455,30.106215,-29.809374,,,,,,
1478277271.03,1.117750,-1.318690,0.681598,0.841736,0.588001,0.578714,0.224279,0.968389,-0.109183,-0.303488,-0.116110,0.068076,18.978455,30.106215,-29.809374,,,,,,
1478277271.06,1.085541,-1.298944,0.640810,0.890232,0.245466,0.605843,0.237518,0.963275,-0.125245,-0.234649,-0.028354,-0.001037,20.189030,28.964045,-30.143854,,,,,,
1478277271.08,1.048377,-1.278583,0.595419,1.041056,0.390594,0.499804,0.249648,0.957609,-0.143742,-0.293044,0.095385,0.128758,20.996674,27.687580,-30.784771,,,,,,
1478277271.10,1.005682,-1.259029,0.539636,1.214914,0.499650,0.344122,0.259052,0.951793,-0.164264,-0.204456,0.022145,0.383197,21.413055,27.005255,-31.102442,,,,,,
1478277271.12,0.969713,-1.239133,0.495494,0.844098,0.097552,0.498968,0.268543,0.945502,-0.184147,-0.213947,0.028436,0.403081,21.413055,27.005255,-31.102442,,,,,,
1478277271.14,0.971245,-1.225161,0.500379,0.033025,-0.238329,0.584737,0.279705,0.940860,-0.191172,-0.554073,0.151654,0.339442,22.101404,25.622337,-31.783461,,,,,,
1478277271.16,0.983049,-1.220382,0.519464,-0.156342,-0.319815,0.174768,0.285681,0.939231,-0.190349,-0.699514,0.312646,-0.005803,22.354023,25.059183,-32.054634,,,,,,
1478277271.18,0.977358,-1.226346,0.518046,-0.160810,-0.073885,-0.519995,0.279944,0.941261,-0.188835,-0.623740,0.500176,0.166878,22.263330,25.074947,-32.105385,,,,,,
1478277271.20,0.977624,-1.245541,0.515278,-0.762240,0.284439,-0.807138,0.264963,0.947569,-0.178627,-0.164621,0.364580,0.581367,21.776073,25.720181,-31.928661,,,,,,
1478277271.23,1.038414,-1.276990,0.569038,-1.829329,0.461926,-0.874456,0.249517,0.957148,-0.146996,-0.067144,0.270406,0.741295,21.628139,26.524624,-31.366102,,,,,,
1478277271.25,1.176251,-1.318060,0.703146,-2.701705,0.404862,-1.075045,0.230843,0.968232,-0.096118,-0.299721,0.324126,0.581714,21.628139,26.524624,-31.366102,,,,,,
1478277271.27,1.418870,-1.360303,0.944252,-3.130164,0.277165,-1.280699,0.206535,0.977928,-0.031622,-0.007149,0.851280,-0.017023,21.218388,29.242807,-29.151377,,,,,,
1478277271.29,1.733536,-1.388560,1.264203,-2.805626,0.027814,-1.245816,0.178835,0.983441,0.029363,0.020552,0.845767,-0.078008,20.214314,32.732082,-25.983780,,,,,,
1478277271.31,2.073214,-1.388133,1.597460,-2.609000,1.102539,-0.726854,0.159201,0.983363,0.087473,0.543039,0.583028,-0.249735,19.576616,34.251732,-24.469151,,,,,,
1478277271.33,2.386906,-1.367394,1.867521,-2.468042,2.814393,-0.773003,0.138384,0.979385,0.147156,0.598097,0.346527,-0.556183,19.701208,36.608093,-20.660942,,,,,,
1478277271.35,2.596890,-1.339253,2.051056,-1.982891,-0.137782,-0.570302,0.118908,0.973313,0.196270,0.092747,0.082671,-1.038204,19.701208,36.608093,-20.660942,,,,,,
1478277271.37,2.670779,-1.305522,2.165482,-2.148896,-1.906089,-0.365729,0.118925,0.965021,0.233649,-0.377912,0.070944,0.139886,19.680351,38.334896,-17.270899,,,,,,
1478277271.40,2.757075,-1.267159,2.268119,-2.207774,0.132651,-0.555611,0.112156,0.954255,0.277160,-0.398090,0.260985,0.293411,18.933756,39.003761,-16.594692,,,,,,
1478277271.42,2.818378,-1.228011,2.347353,-2.140994,-1.279011,-0.497989,0.106755,0.941822,0.318708,-0.318714,0.375073,-0.511091,18.091431,40.361122,-14.101231,,,,,,
1478277271.44,2.851452,-1.189754,2.426601,-2.022286,-2.195071,-0.861704,0.106392,0.928278,0.356344,-0.127175,0.208334,-0.749746,17.491941,40.967728,-13.070651,,,,,,
1478277271.46,2.871528,-1.156026,2.505469,-1.848688,-2.543415,-0.958099,0.107512,0.915209,0.388373,0.104722,-0.132738,-0.668112,15.484496,42.207291,-11.573223,,,,,,
1478277271.48,2.874850,-1.123991,2.573275,-1.811123,-2.874598,-0.797968,0.113894,0.901832,0.416806,0.217054,-0.364860,-0.680966,15.484496,42.207291,-11.573223,,,,,,
1478277271.50,2.866683,-1.095757,2.627326,-1.361051,-2.476612,-0.717548,0.124159,0.889275,0.440199,0.193987,-0.378884,-0.652632,13.341115,43.241657,-10.360420,,,,,,
1478277271.52,2.859476,-1.082628,2.663297,-0.444566,-1.330416,-0.495541,0.130567,0.883193,0.450469,0.112826,-0.534637,-0.480055,12.416462,43.636288,-9.842280,,,,,,
1478277271.54,2.855061,-1.083813,2.677427,0.176737,-0.554487,-0.236093,0.132259,0.883748,0.448883,0.020772,-0.462682,-0.481797,11.219906,44.014935,-9.589779,,,,,,
1478277271.56,2.850895,-1.095808,2.681341,0.716752,-0.353223,-0.278131,0.131080,0.889298,0.438141,0.021951,-0.468232,-0.471054,11.219906,44.014935,-9.589779,,,,,,
1478277271.59,2.838752,-1.119500,2.681282,1.293095,-0.711778,-0.346259,0.130069,0.899882,0.416285,-0.025730,-0.557796,-0.588572,10.422544,43.864887,-11.063765,,,,,,
1478277271.61,2.811074,-1.156688,2.667853,2.042861,-0.646375,-0.247988,0.130584,0.915476,0.380595,0.073884,-0.683206,-0.436945,10.422544,43.864887,-11.063765,,,,,,
1478277271.63,2.768691,-1.207244,2.625733,2.739604,0.194755,-0.023375,0.129551,0.934640,0.331158,0.128536,-0.574319,-0.153988,9.756916,43.264713,-13.716104,,,,,,
1478277271.65,2.697303,-1.262394,2.531306,2.979776,1.207301,0.554000,0.130465,0.952820,0.274068,0.156827,-0.184875,0.253657,10.028162,41.867542,-17.369785,,,,,,
1478277271.67,2.591467,-1.295254,2.397592,1.392044,0.611664,0.916629,0.142236,0.962278,0.231927,-0.080835,0.823382,0.958975,10.855366,40.941734,-19.002628,,,,,,
1478277271.69,2.578972,-1.283945,2.408478,-1.282446,-1.840066,-0.450939,0.150918,0.959139,0.239322,-0.802377,2.378187,1.814572,10.855366,40.941734,-19.002628,,,,,,
1478277271.71,2.641602,-1.270968,2.521471,-1.173794,-2.122756,-1.182149,0.141599,0.955387,0.259201,0.096026,-0.382054,0.585053,9.830830,41.228561,-18.940035,,,,,,
1478277271.73,2.713771,-1.266901,2.621444,-0.589306,-0.413494,-1.083507,0.124151,0.954178,0.272270,0.113474,-0.380844,0.571984,9.830830,41.228561,-18.940035,,,,,,
1478277271.76,2.761158,-1.267311,2.669540,0.076809,0.243010,-0.284876,0.110969,0.954301,0.277482,0.097755,-0.929978,0.149886,7.673896,42.019947,-18.182413,,,,,,
1478277271.78,2.729630,-1.285721,2.616890,1.717121,1.286359,0.700090,0.112607,0.959640,0.257701,0.099139,0.396317,-0.820888,7.719009,41.855091,-18.540028,,,,,,
,,,,,,,,,,,,,,,,37.352850,-122.034925,42.655701,0.450000,178.242188,1478280733.00
1478277271.80,2.662726,-1.317052,2.493748,1.645162,3.292345,0.537042,0.115668,0.967979,0.222794,-0.229789,2.041451,-0.489304,8.748959,41.145210,-19.639044,,,,,,
1478277271.82,2.750016,-1.308827,2.543646,-1.869060,0.227815,-0.926601,0.098840,0.965882,0.239380,-0.466989,1.011261,0.593154,8.748959,41.145210,-19.639044,,,,,,
1478277271.84,2.836627,-1.300602,2.643266,0.104815,-0.267681,-1.051748,0.080145,0.963719,0.254602,0.325754,-0.880726,-0.900827,10.114853,41.019440,-19.242140,,,,,,
1478277271.86,2.858312,-1.327074,2.681285,1.505737,-1.165750,-0.600967,0.067450,0.970447,0.231698,0.724893,-1.460269,-0.753976,8.545510,41.481289,-19.011620,,,,,,
1478277271.88,2.804877,-1.369456,2.628903,2.417854,1.342684,0.318329,0.066072,0.979799,0.188753,0.841124,-1.029940,-0.236467,7.824343,41.093536,-20.131208,,,,,,
1478277271.90,2.620455,-1.404414,2.335661,2.314766,6.417094,2.293265,0.082455,0.986190,0.143631,-0.262493,1.143357,-0.934616,10.329645,39.256599,-22.525154,,,,,,
1478277271.93,2.408035,-1.399432,2.027662,0.712445,1.660648,1.462265,0.114170,0.985353,0.126666,-0.294209,1.144194,-0.917652,13.984241,38.123344,-22.499250,,,,,,
1478277271.95,2.220081,-1.413858,1.883699,1.754043,-2.865612,-0.180553,0.124491,0.987710,0.094498,-1.062876,1.377539,-1.140595,13.984241,38.123344,-22.499250,,,,,,
1478277271.97,2.006367,-1.431877,1.683274,1.412006,0.281427,0.105102,0.125544,0.990366,0.058426,-0.246027,-0.287226,0.091935,14.469389,36.943806,-24.103043,,,,,,
1478277271.99,1.821901,-1.438292,1.487950,1.177219,0.353227,0.183162,0.127973,0.991234,0.032828,-0.137327,-0.203774,-0.240545,14.249907,35.706844,-26.021645,,,,,,
1478277272.01,1.646993,-1.436255,1.307110,1.103635,0.138546,0.345220,0.133747,0.990963,0.010211,-0.143101,-0.203503,-0.217929,14.500669,35.171444,-26.605730,,,,,,
1478277272.03,1.485222,-1.427751,1.134498,1.155115,0.680684,0.440618,0.142037,0.989786,-0.012184,0.137367,-0.065607,0.011269,15.101927,34.054749,-27.701452,,,,,,
1478277272.05,1.357477,-1.412475,0.988268,1.075405,0.741574,0.625694,0.154087,0.987493,-0.033378,0.051525,-0.009176,0.105887,15.101927,34.054749,-27.701452,,,,,,
1478277272.07,1.277943,-1.392588,0.896418,0.883217,0.442792,0.775396,0.169719,0.984163,-0.051174,-0.142604,-0.089250,0.069820,16.362816,32.780083,-28.511209,,,,,,
1478277272.10,1.225206,-1.371814,0.827179,0.909757,0.937737,0.688135,0.185985,0.980268,-0.066962,-0.302470,-0.140165,0.018393,16.966219,32.166592,-28.855196,,,,,,
1478277272.12,1.176096,-1.353436,0.755587,1.000324,0.869591,0.495955,0.199072,0.976470,-0.082925,-0.368444,-0.146606,-0.079703,18.429436,30.939255,-29.296471,,,,,,
1478277272.14,1.115799,-1.334540,0.680459,1.127082,0.502692,0.501767,0.210251,0.972221,-0.102862,-0.200059,-0.132530,-0.034971,19.077911,30.320456,-29.527409,,,,,,
1478277272.16,1.066395,-1.312989,0.619362,1.057421,0.480613,0.601592,0.223209,0.966951,-0.123218,-0.143711,0.042402,0.159061,20.059372,28.939487,-30.253799,,,,,,
1478277272.18,1.032570,-1.291471,0.572047,1.025813,0.559625,0.551529,0.236728,0.961242,-0.141331,-0.269717,0.089128,0.240132,20.059372,28.939487,-30.253799,,,,,,
1478277272.20,0.996167,-1.270340,0.523023,1.085131,0.478792,0.481598,0.248424,0.955201,-0.160859,-0.281414,0.095168,0.259660,21.103342,27.558395,-30.827719,,,,,,
1478277272.22,0.982309,-1.253085,0.498171,0.458979,0.446123,0.491804,0.259843,0.949953,-0.173411,-0.451417,0.108336,0.518137,21.554516,26.852901,-31.136620,,,,,,
1478277272.24,0.997538,-1.243597,0.507264,0.029896,0.187232,0.389969,0.270014,0.946946,-0.174314,-0.536967,0.173186,0.160521,22.394859,25.950888,-31.307928,,,,,,
1478277272.26,1.006027,-1.239180,0.516734,-0.036909,-0.154649,0.177094,0.275015,0.945517,-0.174253,-0.552099,0.257364,0.026029,22.394859,25.950888,-31.307928,,,,,,
1478277272.29,1.001735,-1.240284,0.520233,-0.089484,-0.443875,-0.157766,0.273384,0.945876,-0.174869,-0.430275,0.373368,0.098514,22.559856,25.741669,-31.362141,,,,,,
1478277272.31,0.996460,-1.248662,0.521289,-0.368482,-0.147671,-0.377013,0.265796,0.948562,-0.171997,-0.239139,0.460770,0.420822,22.559856,25.741669,-31.362141,,,,,,
1478277272.33,1.033512,-1.266563,0.557132,-1.268635,0.320835,-0.490570,0.257354,0.954077,-0.153317,-0.266738,0.290033,0.794507,22.027203,26.214781,-31.348879,,,,,,
1478277272.35,1.136457,-1.297866,0.653546,-2.106091,0.519719,-0.854129,0.244526,0.962985,-0.113431,-0.606113,0.210370,0.454053,21.885712,27.939631,-29.925863,,,,,,
1478277272.37,1.303643,-1.337672,0.819954,-2.743338,0.068185,-1.161994,0.222824,0.972949,-0.060986,-0.584411,0.200406,0.401608,21.656281,29.323359,-28.745621,,,,,,
1478277272.39,1.577559,-1.370645,1.109759,-3.171066,-0.742900,-1.124008,0.198813,0.980036,0.001345,-0.235205,0.392019,0.343886,21.656281,29.323359,-28.745621,,,,,,
1478277272.41,1.887004,-1.379299,1.445979,-2.815270,-0.771942,-0.740616,0.180893,0.981720,0.059186,0.502869,0.521743,-0.365994,19.408512,34.172993,-24.711958,,,,,,
1478277272.43,2.180224,-1.365044,1.729630,-2.591219,1.638988,-0.464446,0.167524,0.978908,0.116943,0.544253,0.515508,-0.334869,19.408512,34.172993,-24.711958,,,,,,
1478277272.46,2.425641,-1.336837,1.939936,-2.392576,1.322540,-0.450043,0.152159,0.972756,0.174909,0.358095,0.286277,-0.556638,19.237537,36.490368,-21.296360,,,,,,
1478277272.48,2.538199,-1.302569,2.075419,-2.220359,-2.060369,-0.196194,0.150385,0.964242,0.218224,-0.198511,0.261664,-0.590157,19.232191,38.190742,-18.076355,,,,,,
1478277272.50,2.589921,-1.266331,2.177252,-2.168574,-1.819493,-0.274561,0.157120,0.954007,0.255311,-0.460678,0.368167,0.073120,18.485151,38.862835,-17.411024,,,,,,
1478277272.52,2.661892,-1.232911,2.277374,-2.013266,-0.824185,-0.616064,0.152988,0.943458,0.294078,-0.445164,0.456536,-0.109904,18.485151,38.862835,-17.411024,,,,,,
1478277272.54,2.714364,-1.201218,2.372779,-2.107887,-2.395550,-0.845408,0.149673,0.932480,0.328755,-0.405761,0.283737,-0.691380,17.216825,40.219620,-15.528285,,,,,,
1478277272.56,2.745331,-1.169511,2.465798,-1.944373,-2.647232,-0.923514,0.150761,0.920560,0.360334,-0.181569,0.044925,-0.662183,15.234856,41.587830,-13.911017,,,,,,
1478277272.58,2.758768,-1.138045,2.546783,-1.965694,-2.972752,-0.864528,0.156653,0.907815,0.389013,0.023752,-0.226205,-0.670096,14.051767,42.223862,-13.223382,,,,,,
1478277272.60,2.758088,-1.108371,2.619351,-1.688768,-3.068348,-0.830981,0.166926,0.894973,0.413713,0.154149,-0.463577,-0.627962,11.680362,43.347366,-11.821162,,,,,,
1478277272.63,2.752038,-1.092031,2.675378,-0.831535,-2.339261,-0.782354,0.174957,0.887564,0.426169,0.116791,-0.531653,-0.509711,10.564093,43.769516,-11.304599,,,,,,
1478277272.65,2.743254,-1.089998,2.707550,-0.100528,-1.377687,-0.500461,0.179393,0.886626,0.426277,0.112355,-0.530715,-0.509819,10.564093,43.769516,-11.304599,,,,,,
1478277272.67,2.735237,-1.098860,2.720375,0.491275,-0.703487,-0.399333,0.179692,0.890690,0.417591,-0.061757,-0.417164,-0.508671,8.915384,44.174393,-11.149155,,,,,,
1478277272.69,2.723384,-1.118609,2.722837,1.041840,-0.700673,-0.422699,0.177449,0.899494,0.399278,-0.032293,-0.505863,-0.602419,8.026264,44.133984,-11.955548,,,,,,
1478277272.71,2.697354,-1.150317,2.709992,1.754216,-0.604620,-0.371288,0.175432,0.912893,0.368578,0.075743,-0.633932,-0.529939,7.595772,43.980606,-12.774012,,,,,,
1478277272.73,2.652020,-1.195059,2.668357,2.483807,-0.093345,-0.208869,0.172562,0.930237,0.323854,0.108901,-0.623780,-0.331025,6.888307,43.227783,-15.462032,,,,,,
1478277272.75,2.585829,-1.246882,2.582016,2.980758,1.293135,0.144037,0.167922,0.947997,0.270378,0.187455,-0.419661,-0.035316,6.888307,43.227783,-15.462032,,,,,,
1478277272.77,2.486465,-1.290413,2.434834,2.550091,2.062658,0.754922,0.168597,0.960950,0.219434,0.193586,0.116748,0.400867,7.313941,41.688000,-19.073055,,,,,,
,,,,,,,,,,,,,,,,37.352838,-122.034942,49.932861,0.640000,178.242188,1478280734.00
1478277272.79,2.424567,-1.292644,2.352103,-0.622342,-0.438558,0.526791,0.180439,0.961564,0.206968,-0.776935,1.998137,1.689547,8.354607,40.727222,-20.655704,,,,,,
1478277272.82,2.470559,-1.270193,2.458559,-1.722636,-3.267114,-0.934647,0.184112,0.955158,0.231897,-0.780608,2.004544,1.664618,8.896001,40.613541,-20.653473,,,,,,
1478277272.84,2.531727,-1.268997,2.566843,-0.641288,-1.095557,-1.236276,0.170246,0.954803,0.243654,-0.098850,0.114838,0.600066,7.309248,41.271339,-19.960361,,,,,,
1478277272.86,2.618184,-1.269286,2.662372,-0.721380,0.051895,-0.974522,0.148433,0.954889,0.257206,-0.063777,-0.578592,0.428494,5.091940,41.975368,-19.165207,,,,,,
1478277272.88,2.644813,-1.274637,2.681320,0.795355,0.785870,0.064807,0.139094,0.956464,0.256571,-0.106074,-0.985883,-0.244379,5.091940,41.975368,-19.165207,,,,,,
1478277272.90,2.581496,-1.305416,2.572789,2.376529,2.929765,0.638337,0.139339,0.964993,0.222201,-0.152400,-0.000760,-0.922412,4.907722,41.928509,-19.315254,,,,,,
1478277272.92,2.584451,-1.320500,2.496413,0.028619,2.764423,0.095495,0.130970,0.968839,0.210233,-0.414295,1.251254,-0.024823,5.974977,41.190937,-20.561398,,,,,,
1478277272.94,2.668416,-1.306037,2.593923,-1.079797,-1.679230,-1.001494,0.119251,0.965155,0.232926,0.054669,-0.511801,-0.620911,7.838241,40.921921,-20.472490,,,,,,
1478277272.96,2.701657,-1.322386,2.656462,1.079920,-1.087846,-0.816993,0.104709,0.969304,0.222452,0.069211,-0.515951,-0.610437,7.838241,40.921921,-20.472490,,,,,,
1478277272.99,2.661731,-1.356245,2.630153,1.739834,-0.115466,-0.269187,0.098291,0.977072,0.188863,0.679679,-1.092825,-0.214436,5.050483,40.794075,-21.575466,,,,,,
1478277273.01,2.539033,-1.394134,2.456676,2.697915,4.060917,1.142416,0.099604,0.984436,0.144794,0.886159,-0.367828,-0.166599,5.050483,40.794075,-21.575466,,,,,,
1478277273.03,2.280866,-1.397274,2.067816,1.543691,5.752935,2.454501,0.130926,0.984983,0.112550,-0.015020,0.874209,-0.575715,7.483602,39.001030,-24.043289,,,,,,
1478277273.05,2.172496,-1.389382,1.925986,0.761519,-1.208183,0.119681,0.148735,0.983589,0.102126,-1.083000,1.385948,-1.450194,11.305695,37.846218,-24.392818,,,,,,
1478277273.07,1.949412,-1.409011,1.758518,1.716588,-2.570389,-0.189161,0.149672,0.986941,0.059541,-0.642149,0.103543,-0.203126,12.105556,36.848412,-25.511068,,,,,,
1478277273.09,1.765769,-1.418207,1.590622,1.171880,-0.021612,-0.018141,0.149118,0.988381,0.029448,-0.274896,-0.295800,0.526735,12.105556,36.848412,-25.511068,,,,,,
1478277273.11,1.628976,-1.421557,1.439925,1.020050,0.813185,-0.000830,0.148434,0.988885,0.008646,0.033115,-0.228493,-0.126153,10.924789,35.160961,-28.275793,,,,,,
1478277273.13,1.504392,-1.418758,1.295753,1.051129,0.831198,0.205163,0.151119,0.988464,-0.010050,0.030430,-0.228073,-0.107458,10.924789,35.160961,-28.275793,,,,,,
1478277273.16,1.386893,-1.410175,1.159654,1.002226,0.737467,0.344510,0.157234,0.987128,-0.029246,0.137688,-0.065223,-0.019185,11.826355,34.179111,-29.104816,,,,,,
1478277273.18,1.300851,-1.395743,1.060121,0.880835,0.459803,0.556719,0.167854,0.984717,-0.046445,-0.127372,-0.069678,0.159070,12.883101,33.109287,-29.882524,,,,,,
1478277273.20,1.245327,-1.378201,0.993293,0.750280,0.604907,0.642354,0.181358,0.981511,-0.061203,-0.319038,-0.143223,0.146439,13.396905,32.581547,-30.234587,,,,,,
1478277273.22,1.208728,-1.361063,0.934862,0.837980,1.134925,0.512995,0.194701,0.978086,-0.073746,-0.429610,-0.136061,-0.014465,13.396905,32.581547,-30.234587,,,,,,
1478277273.24,1.161163,-1.345258,0.863965,1.025649,0.864093,0.385359,0.205129,0.974674,-0.089066,-0.372899,-0.156696,-0.153366,15.549893,31.004150,-30.856251,,,,,,
1478277273.26,1.097625,-1.327709,0.785988,1.178973,0.472943,0.385134,0.214254,0.970600,-0.109690,-0.235479,-0.114917,-0.085211,15.549893,31.004150,-30.856251,,,,,,
1478277273.28,1.032769,-1.307827,0.707913,1.297457,0.586319,0.354161,0.223224,0.965622,-0.133209,-0.192096,-0.030976,0.130203,16.520926,29.691898,-31.632496,,,,,,
1478277273.30,0.975396,-1.286491,0.634437,1.321606,0.563203,0.362247,0.232225,0.959857,-0.157311,-0.140825,-0.033236,0.321556,17.450415,28.169918,-32.513126,,,,,,
1478277273.33,0.939270,-1.264867,0.590363,0.842559,0.164838,0.571203,0.243090,0.953568,-0.177809,-0.102694,-0.044174,0.567519,17.859081,27.401604,-32.944958,,,,,,
1478277273.35,0.948166,-1.248800,0.595698,0.173932,0.209247,0.661907,0.257076,0.948605,-0.184552,-0.284268,0.006229,0.652722,17.859081,27.401604,-32.944958,,,,,,
1478277273.37,0.961222,-1.239158,0.608151,0.087737,-0.088311,0.326982,0.266951,0.945510,-0.186408,-0.685652,0.230469,0.011420,18.583576,26.444004,-33.324615,,,,,,
1478277273.39,0.960391,-1.238846,0.612142,-0.144846,-0.180377,-0.105420,0.267038,0.945408,-0.186799,-0.647882,0.292201,0.216431,18.855560,26.137959,-33.413166,,,,,,
1478277273.41,0.961793,-1.249434,0.614610,-0.461892,0.044509,-0.508667,0.259074,0.948806,-0.180688,-0.639918,0.288804,0.210320,18.712067,26.245747,-33.409340,,,,,,
1478277273.43,0.999744,-1.269893,0.649301,-1.297364,0.303230,-0.562441,0.249357,0.955069,-0.160200,-0.233213,0.356683,0.727980,18.409359,27.154463,-32.846542,,,,,,
1478277273.45,1.107259,-1.302350,0.757213,-2.467145,0.082108,-0.630100,0.237246,0.964184,-0.118590,-0.259386,0.298038,0.934554,18.286785,28.133955,-32.081749,,,,,,
1478277273.47,1.341762,-1.336454,0.994821,-3.425539,0.389914,-0.518886,0.226140,0.972667,-0.052719,-0.198964,0.303624,0.663925,18.286785,28.133955,-32.081749,,,,,,
1478277273.49,1.656332,-1.354394,1.308586,-3.209903,0.306464,-0.659376,0.213932,0.976676,0.018344,-0.143391,0.781106,-0.055819,17.905891,31.275171,-29.264437,,,,,,
1478277273.52,1.952280,-1.358413,1.611203,-2.674892,0.065459,-0.950236,0.195637,0.977531,0.078477,0.133327,1.258125,-0.501054,17.452473,34.490772,-25.709190,,,,,,
1478277273.54,2.209796,-1.349385,1.841140,-2.028516,2.644950,-0.628127,0.176276,0.975589,0.130972,0.652734,0.794294,-0.546697,16.990108,35.805260,-24.176109,,,,,,
1478277273.56,2.447110,-1.328483,2.019946,-2.161519,2.303466,-0.658680,0.153564,0.970786,0.184373,0.048889,0.168481,-0.794358,18.012712,37.667274,-20.294905,,,,,,
1478277273.58,2.561399,-1.295868,2.150788,-2.119155,-2.102852,-0.236435,0.148821,0.962445,0.227053,0.053633,0.176822,-0.837038,18.012712,37.667274,-20.294905,,,,,,
1478277273.60,2.601393,-1.266356,2.245469,-1.799097,-1.889918,-0.471376,0.154168,0.954015,0.257075,-0.554040,0.264430,-0.394511,17.311060,39.173931,-17.913536,,,,,,
1478277273.62,2.677309,-1.239118,2.343274,-1.774019,-0.572241,-0.646064,0.145812,0.945497,0.291160,-0.361754,0.145873,-0.370796,16.418890,39.784000,-17.401665,,,,,,
1478277273.64,2.731816,-1.213636,2.429770,-1.665819,-1.824284,-0.823812,0.139288,0.936893,0.320671,-0.168936,0.128323,-0.805549,15.133340,41.043880,-15.541760,,,,,,
1478277273.66,2.761633,-1.186615,2.514712,-1.753020,-2.446586,-0.833882,0.139007,0.927106,0.348069,0.134232,-0.045102,-0.666612,15.133340,41.043880,-15.541760,,,,,,
1478277273.69,2.780295,-1.161066,2.589706,-1.503746,-2.284276,-0.843318,0.140816,0.917228,0.372643,0.263252,-0.241554,-0.533013,11.943203,42.757587,-13.576202,,,,,,
1478277273.71,2.787895,-1.138742,2.652650,-1.374016,-2.531149,-0.688481,0.145038,0.908107,0.392817,0.222501,-0.376156,-0.513437,11.943203,42.757587,-13.576202,,,,,,
1478277273.73,2.774694,-1.118891,2.697272,-1.009543,-2.351584,-0.418973,0.156647,0.899617,0.407617,0.131332,-0.502568,-0.462579,9.919708,43.606281,-12.460186,,,,,,
1478277273.75,2.759837,-1.109697,2.720210,-0.295174,-1.168102,-0.234413,0.165760,0.895564,0.412903,-0.088551,-0.429133,-0.378998,9.101059,43.901615,-12.040920,,,,,,
1478277273.77,2.753931,-1.112355,2.727793,0.233618,-0.382004,-0.203135,0.167295,0.896743,0.409712,-0.090086,-0.430313,-0.375807,8.227034,44.125744,-11.849020,,,,,,
1478277273.79,2.749552,-1.124575,2.730284,0.679369,-0.324017,-0.286136,0.164888,0.902084,0.398818,-0.101030,-0.403991,-0.475478,8.227034,44.125744,-11.849020,,,,,,
,,,,,,,,,,,,,,,,37.352845,-122.034938,52.522095,0.640000,-1.000000,1478280735.00
1478277273.81,2.733090,-1.145157,2.722807,1.134733,-0.535509,-0.196854,0.164020,0.910775,0.378928,0.062863,-0.615227,-0.537421,7.482693,43.880920,-13.177215,,,,,,
1478277273.83,2.695688,-1.176123,2.694421,1.816081,-0.494179,-0.071707,0.165828,0.923122,0.346910,0.030385,-0.646999,-0.451447,7.482693,43.880920,-13.177215,,,,,,
1478277273.86,2.634102,-1.218205,2.631875,2.500541,0.152566,0.112783,0.167826,0.938481,0.301807,0.028387,-0.662358,-0.406345,7.088346,43.199661,-15.450221,,,,,,
1478277273.88,2.540993,-1.266106,2.512934,3.058555,1.332978,0.512556,0.169540,0.953940,0.247498,0.016159,-0.297964,0.151428,7.538060,41.749870,-18.849152,,,,,,
1478277273.90,2.398255,-1.303791,2.332119,2.505219,1.374010,0.895006,0.178556,0.964565,0.194245,-0.239454,0.520115,0.855529,8.400638,40.705349,-20.680151,,,,,,
1478277273.92,2.337527,-1.304404,2.276402,-0.980380,-1.942679,-0.064480,0.189590,0.964727,0.182640,-0.906600,2.209620,2.085060,8.400638,40.705349,-20.680151,,,,,,
1478277273.94,2.420960,-1.294130,2.425148,-1.562694,-2.483183,-1.317547,0.180241,0.961971,0.205242,-0.715412,1.721561,1.029209,7.729506,40.403851,-21.516230,,,,,,
1478277273.96,2.535257,-1.288254,2.573911,-1.317539,-0.690805,-1.350190,0.158876,0.960350,0.229100,0.092040,-0.054985,0.801494,7.729506,40.403851,-21.516230,,,,,,
1478277273.98,2.634078,-1.281888,2.676622,-0.626519,0.290944,-0.565863,0.138466,0.958555,0.248995,0.349220,-0.844801,0.382887,5.064127,41.600376,-19.973183,,,,,,
1478277274.00,2.594758,-1.280527,2.628923,0.570080,0.284861,1.109548,0.148825,0.958167,0.244473,-0.351035,1.419961,-0.271817,4.882155,41.866253,-19.456264,,,,,,
1478277274.03,2.604503,-1.273924,2.605474,-0.693639,2.000765,-0.333281,0.149669,0.956256,0.251343,-1.186123,1.189496,-0.976272,5.782259,41.664700,-19.641357,,,,,,
1478277274.05,2.716408,-1.265526,2.692684,-0.682089,0.894617,-0.993564,0.123974,0.953766,0.273791,-1.160427,1.191986,-0.998721,5.782259,41.664700,-19.641357,,,,,,
1478277274.07,2.769253,-1.274062,2.758421,0.428296,-1.572285,-0.866270,0.106373,0.956297,0.272363,0.610286,-1.185133,-0.712457,5.907101,42.247375,-18.314756,,,,,,
1478277274.09,2.706925,-1.298537,2.739044,1.542448,-1.378900,0.254035,0.113240,0.963166,0.243903,0.878231,-0.899033,-0.001212,4.129438,42.203651,-18.893492,,,,,,
1478277274.11,2.581486,-1.320857,2.552567,2.267128,5.064591,2.235996,0.131408,0.968928,0.209550,0.845169,0.025305,-0.097993,3.949971,41.711464,-19.992897,,,,,,
1478277274.13,2.424850,-1.333576,2.266424,2.348778,4.864477,1.873533,0.154380,0.971995,0.177179,-0.044303,0.878805,-0.884379,9.806064,39.747307,-21.889662,,,,,,
1478277274.15,2.286864,-1.352285,2.100798,1.673419,-1.095352,0.063043,0.163535,0.976221,0.142297,-0.596488,1.180410,-0.918207,11.841552,38.761711,-22.637844,,,,,,
1478277274.17,2.104455,-1.376324,1.955212,1.822381,-1.567901,-0.074187,0.166378,0.981150,0.098303,-0.600796,0.240225,-0.371664,11.841552,38.761711,-22.637844,,,,,,
1478277274.19,1.939927,-1.392057,1.799075,1.441376,-0.057099,-0.126522,0.165814,0.984069,0.064147,-0.325192,-0.228240,-0.162612,10.765912,37.412067,-25.290255,,,,,,
1478277274.22,1.783784,-1.403182,1.633612,1.383421,0.495211,-0.042848,0.163061,0.985986,0.035265,-0.322439,-0.230157,-0.133730,10.422102,36.174255,-27.165556,,,,,,
1478277274.24,1.637331,-1.404556,1.471528,1.220258,0.657659,0.199352,0.165110,0.986214,0.011002,-0.016611,-0.304054,0.069275,10.611874,35.576336,-27.872517,,,,,,
1478277274.26,1.505024,-1.397235,1.325428,1.096148,0.442664,0.448446,0.172318,0.984976,-0.011350,0.114181,0.009332,0.166456,11.421135,34.397045,-29.009747,,,,,,
1478277274.28,1.420717,-1.382057,1.232893,0.732508,0.292670,0.701443,0.185512,0.982242,-0.028052,-0.210521,-0.063449,0.135581,11.421135,34.397045,-29.009747,,,,,,
1478277274.30,1.373417,-1.365101,1.177907,0.606990,0.399693,0.679776,0.200282,0.978919,-0.040053,-0.225292,-0.060126,0.147582,12.390987,33.350945,-29.821850,,,,,,
1478277274.32,1.336873,-1.350021,1.120854,0.826982,1.176212,0.489753,0.213022,0.975728,-0.050760,-0.437372,-0.189717,-0.007727,12.909086,32.915279,-30.084951,,,,,,
1478277274.34,1.274536,-1.336171,1.031329,1.227913,1.055673,0.364355,0.222351,0.972601,-0.067871,-0.324569,-0.183554,-0.074509,14.420670,31.920250,-30.468122,,,,,,
1478277274.36,1.203920,-1.318867,0.941398,1.205747,0.647461,0.503958,0.232684,0.968433,-0.089414,-0.187243,-0.129475,0.085935,14.420670,31.920250,-30.468122,,,,,,
1478277274.39,1.144261,-1.297826,0.869282,1.199810,0.368750,0.611493,0.245439,0.962974,-0.111536,-0.199876,-0.017158,0.072305,16.228783,29.785494,-31.695671,,,,,,
1478277274.41,1.083451,-1.273641,0.798716,1.466739,0.358162,0.589140,0.258713,0.956173,-0.137114,-0.255906,0.018940,0.085005,16.228783,29.785494,-31.695671,,,,,,
1478277274.43,1.026997,-1.247765,0.727064,1.389603,0.657344,0.551126,0.271651,0.948278,-0.164242,-0.304122,-0.033147,0.368740,17.142204,28.079338,-32.754547,,,,,,
1478277274.45,1.011629,-1.226203,0.699913,0.578395,0.342784,0.712325,0.286364,0.941213,-0.179204,-0.463198,0.106913,0.421666,17.697929,27.148968,-33.239758,,,,,,
1478277274.47,1.018099,-1.211242,0.707517,0.145206,-0.313652,0.569009,0.299469,0.936054,-0.184719,-0.753800,0.270092,0.083386,18.659660,26.002821,-33.627892,,,,,,
1478277274.49,1.013402,-1.206482,0.717187,-0.137659,-0.697830,0.085231,0.302377,0.934368,-0.188479,-0.756707,0.271778,0.087146,18.659660,26.002821,-33.627892,,,,,,
1478277274.51,1.013838,-1.216600,0.730678,-0.659888,-0.532515,-0.537271,0.294418,0.937926,-0.183340,-0.712921,0.578447,0.447317,18.036345,25.982161,-33.982086,,,,,,
1478277274.53,1.047227,-1.243222,0.772012,-1.598317,-0.089504,-0.813348,0.278646,0.946826,-0.160865,-0.435689,0.525708,0.823081,18.036345,25.982161,-33.982086,,,,,,
1478277274.56,1.156299,-1.284320,0.893040,-2.913910,-0.476099,-1.019786,0.258646,0.959245,-0.113801,-0.274194,0.497710,0.988526,17.112663,27.702465,-33.089195,,,,,,
1478277274.58,1.368479,-1.325843,1.116420,-3.176025,0.039896,-0.998756,0.237565,0.970149,-0.048730,-0.009827,0.499318,0.526437,15.878267,31.171585,-30.518480,,,,,,
1478277274.60,1.628768,-1.349359,1.381778,-2.905447,0.243825,-0.697348,0.219263,0.975583,0.012725,0.317145,0.611591,-0.007324,15.378474,32.867840,-28.954657,,,,,,
1478277274.62,1.904587,-1.347258,1.647025,-2.544991,1.260777,-0.332834,0.209446,0.975119,0.072629,0.546611,0.535745,-0.508008,15.378474,32.867840,-28.954657,,,,,,
1478277274.64,2.147212,-1.330395,1.855817,-2.364405,1.961173,-0.299867,0.199622,0.971243,0.129766,0.458933,0.422526,-0.365850,15.848496,36.560890,-23.817871,,,,,,
1478277274.66,2.334183,-1.303004,2.030508,-2.384804,-0.090548,-0.111269,0.191175,0.964357,0.182939,0.467379,0.429411,-0.419023,15.848496,36.560890,-23.817871,,,,,,
1478277274.68,2.408384,-1.272110,2.140687,-1.954278,-1.901226,-0.090338,0.196939,0.955724,0.218648,-0.150445,0.340586,-0.422292,16.119745,38.357407,-20.591934,,,,,,
1478277274.70,2.495615,-1.240199,2.257727,-2.373769,-0.601880,-0.552296,0.195407,0.945849,0.259203,-0.698612,0.459181,-0.140948,14.955852,39.753838,-18.738186,,,,,,
1478277274.72,2.579832,-1.212655,2.362778,-1.730283,-0.923210,-0.621333,0.186722,0.936550,0.296664,-0.324905,0.233738,-0.791979,14.397268,40.549839,-17.423943,,,,,,
1478277274.75,2.621135,-1.190071,2.446821,-1.729918,-2.258803,-0.706735,0.184785,0.928395,0.322392,-0.207918,0.031978,-0.757878,14.397268,40.549839,-17.423943,,,,,,
1478277274.77,2.642561,-1.163490,2.530343,-1.818973,-2.745813,-0.693549,0.189582,0.918191,0.347827,-0.039908,-0.121621,-0.609836,12.774298,41.737091,-15.811296,,,,,,
1478277274.79,2.651257,-1.135998,2.604783,-1.867522,-2.908069,-0.621713,0.198365,0.906955,0.371596,0.087569,-0.261005,-0.583388,10.563949,42.867561,-14.350610,,,,,,
,,,,,,,,,,,,,,,,37.352864,-122.034936,49.621155,0.930000,300.585938,1478280736.00
1478277274.81,2.646848,-1.110503,2.669612,-1.442166,-2.867419,-0.621331,0.210915,0.895922,0.390945,0.084618,-0.396380,-0.617569,9.494735,43.378059,-13.540998,,,,,,
1478277274.83,2.635974,-1.100758,2.713924,-0.499986,-2.051557,-0.581495,0.219371,0.891551,0.396249,0.012730,-0.600535,-0.437966,7.531192,44.077724,-12.473975,,,,,,
1478277274.85,2.622788,-1.104549,2.736462,0.125136,-1.307472,-0.461070,0.222900,0.893262,0.390383,0.009202,-0.602246,-0.432101,6.776329,44.202717,-12.464581,,,,,,
1478277274.87,2.609170,-1.117356,2.745284,0.613708,-0.906583,-0.488846,0.222370,0.898945,0.377424,-0.121127,-0.544789,-0.462736,6.776329,44.202717,-12.464581,,,,,,
1478277274.89,2.587227,-1.140153,2.742271,1.171400,-0.885681,-0.508560,0.219750,0.908697,0.354935,-0.051782,-0.764364,-0.560761,5.658767,44.169472,-13.122523,,,,,,
1478277274.92,2.549283,-1.175927,2.715125,2.026173,-0.398421,-0.458023,0.214763,0.923047,0.319157,-0.005504,-0.772534,-0.402836,4.577574,43.750336,-14.836387,,,,,,
1478277274.94,2.489030,-1.224708,2.644649,2.885908,0.806400,-0.297986,0.205983,0.940707,0.269521,0.003276,-0.790194,-0.353200,4.168105,43.279716,-16.268301,,,,,,
1478277274.96,2.397703,-1.276373,2.506040,3.478977,2.445741,0.170744,0.196502,0.956970,0.213532,0.035828,-0.157409,0.256027,4.497928,41.585533,-20.138931,,,,,,
1478277274.98,2.269061,-1.309880,2.316585,2.018277,2.165072,0.759022,0.197591,0.966154,0.165844,-0.061238,1.013231,1.166676,4.497928,41.585533,-20.138931,,,,,,
1478277275.00,2.269613,-1.295620,2.338131,-2.122274,-3.213843,-0.269724,0.208027,0.962377,0.174799,-0.575673,2.489481,1.787497,6.806070,39.723999,-23.040092,,,,,,
1478277275.02,2.365639,-1.280662,2.515860,-1.765347,-2.588790,-1.318295,0.200370,0.958205,0.204191,-0.185020,0.157532,0.842165,6.312939,40.134590,-22.461658,,,,,,
1478277275.04,2.475805,-1.279164,2.650124,-1.168580,-0.173414,-1.224335,0.177592,0.957776,0.226111,0.016667,-0.691693,0.548410,2.865362,41.600193,-20.405344,,,,,,
1478277275.06,2.564815,-1.272417,2.739556,-0.624858,0.188991,-0.501833,0.160310,0.955814,0.246414,-0.148485,-1.316043,-0.233536,2.865362,41.600193,-20.405344,,,,,,
1478277275.09,2.550052,-1.280645,2.701691,1.320473,1.525681,0.772208,0.159539,0.958201,0.237484,0.071921,-0.168818,-0.524365,1.850291,42.203789,-19.250492,,,,,,
1478277275.11,2.512632,-1.293360,2.606100,0.526478,3.230132,0.141114,0.161131,0.961761,0.221479,-0.895277,2.392167,-0.367765,1.850291,42.203789,-19.250492,,,,,,
1478277275.13,2.633166,-1.282400,2.695497,-1.530573,0.355748,-1.113838,0.138454,0.958701,0.248440,-0.704296,1.414620,-0.497860,4.130220,41.532406,-20.326462,,,,,,
1478277275.15,2.716852,-1.283177,2.803792,-0.094266,-1.611509,-1.250151,0.116896,0.958922,0.258465,0.282579,-0.505858,-0.870480,3.937097,42.010868,-19.358482,,,,,,
1478277275.17,2.703404,-1.303428,2.858315,1.007370,-3.518419,-0.939128,0.112098,0.964469,0.239234,0.924310,-1.210090,-0.584281,1.340899,42.313793,-19.050182,,,,,,
1478277275.19,2.663770,-1.337436,2.822491,1.996398,3.020422,0.278902,0.106339,0.972895,0.205348,0.832855,-0.949411,0.080189,1.340899,42.313793,-19.050182,,,,,,
1478277275.21,2.570981,-1.366238,2.553435,2.686858,9.600668,2.057081,0.109722,0.979151,0.170952,0.035084,0.943426,-1.076027,3.398331,40.550613,-22.344208,,,,,,
1478277275.23,2.428228,-1.391729,2.270466,2.338878,2.991416,0.870508,0.116553,0.984010,0.134682,-0.807853,1.289107,-1.832711,3.398331,40.550613,-22.344208,,,,,,
1478277275.26,2.139719,-1.422051,2.023923,2.506985,-3.693331,-0.364668,0.124854,0.988958,0.079838,-0.816154,1.284159,-1.777866,9.424078,38.441246,-24.261532,,,,,,
1478277275.28,1.845818,-1.452785,1.754546,1.716430,0.277575,-0.472403,0.113313,0.993045,0.031974,-0.596345,-0.335559,0.435220,7.081820,36.598206,-27.669184,,,,,,
1478277275.30,1.643442,-1.460468,1.527471,1.121720,1.172908,0.032214,0.109815,0.993920,0.007992,-0.057233,-0.398705,0.141468,7.219872,35.971222,-28.444845,,,,,,
1478277275.32,1.457948,-1.453762,1.332413,1.034913,0.177041,0.423137,0.116025,0.993159,-0.013149,0.187427,-0.194133,0.247127,7.219872,35.971222,-28.444845,,,,,,
1478277275.34,1.326947,-1.441188,1.180034,0.936844,1.344714,0.342699,0.125422,0.991613,-0.031205,0.249639,0.069529,0.296693,8.681142,34.402588,-29.937674,,,,,,
1478277275.36,1.236774,-1.425495,1.071789,0.795249,0.500556,0.673453,0.136788,0.989462,-0.047469,0.092582,-0.094367,0.026625,8.681142,34.402588,-29.937674,,,,,,
1478277275.38,1.211377,-1.405956,1.032595,0.529031,0.863967,0.736987,0.153609,0.986445,-0.057717,-0.344420,-0.203180,0.142800,10.055095,33.419662,-30.613491,,,,,,
1478277275.40,1.184790,-1.388893,0.973849,0.913409,1.711642,0.468667,0.167591,0.983501,-0.068108,-0.441258,-0.230526,-0.124229,11.795155,32.580597,-30.895689,,,,,,
1478277275.42,1.122427,-1.371633,0.877006,1.201183,1.366338,0.395849,0.178293,0.980232,-0.085767,-0.451959,-0.227257,-0.106570,12.837262,32.000458,-31.086008,,,,,,
1478277275.45,1.058229,-1.350579,0.785537,1.277723,1.186456,0.502890,0.190370,0.975850,-0.107127,-0.304719,-0.200307,0.012264,12.837262,32.000458,-31.086008,,,,,,
1478277275.47,1.006471,-1.326373,0.704549,1.401055,1.286146,0.534174,0.204475,0.970277,-0.129431,-0.202217,-0.085130,0.125326,14.544573,30.578890,-31.757700,,,,,,
1478277275.49,0.958225,-1.298677,0.629168,1.486309,1.043365,0.639621,0.219903,0.963203,-0.154537,-0.190469,-0.209602,0.406277,16.338049,28.904633,-32.446182,,,,,,
1478277275.51,0.939611,-1.270365,0.595879,0.766800,0.388919,0.965613,0.238914,0.955209,-0.174630,-0.293510,-0.053201,0.768487,17.160925,27.969398,-32.838696,,,,,,
1478277275.53,0.971355,-1.248547,0.626278,0.053384,-0.009127,1.070990,0.261485,0.948525,-0.178677,-0.721690,0.223868,0.380047,18.394878,26.708588,-33.218132,,,,,,
1478277275.55,0.984156,-1.233936,0.647806,0.162253,-0.605934,0.501192,0.275263,0.943797,-0.182968,-1.012125,0.356130,-0.075608,18.734516,26.386707,-33.285500,,,,,,
1478277275.57,0.967234,-1.232663,0.647463,-0.069624,-0.817030,-0.251977,0.273117,0.943376,-0.188281,-1.011901,0.477813,0.135791,18.734516,26.386707,-33.285500,,,,,,
1478277275.59,0.953482,-1.246521,0.646979,-0.668588,-0.465583,-0.605043,0.259816,0.947882,-0.184433,-0.204624,0.364603,1.025879,18.183430,26.171017,-33.758041,,,,,,
1478277275.62,1.000744,-1.276202,0.709050,-2.086734,-0.786064,-0.676960,0.244439,0.956920,-0.156696,-0.189248,0.355565,0.998142,17.095758,27.166271,-33.539429,,,,,,
1478277275.64,1.163573,-1.317704,0.892119,-3.412757,-0.268727,-0.585614,0.229922,0.968143,-0.099173,-0.130008,0.342755,1.074240,16.400061,28.445578,-32.818466,,,,,,
1478277275.66,1.459632,-1.351607,1.191215,-3.557463,0.349546,-0.763850,0.216096,0.976074,-0.024122,-0.286317,1.000382,-0.244021,15.603785,32.122757,-29.661676,,,,,,
1478277275.68,1.781287,-1.368770,1.522036,-2.958678,-0.402627,-1.147519,0.196226,0.979662,0.041925,0.015231,0.898741,-0.821008,15.603785,32.122757,-29.661676,,,,,,
1478277275.70,2.084044,-1.373201,1.823682,-2.360241,1.162002,-1.136892,0.171018,0.980541,0.096391,0.040438,0.897861,-0.875474,14.507955,35.429703,-26.256809,,,,,,
1478277275.72,2.380160,-1.363857,2.087720,-2.217026,1.373804,-1.061327,0.141763,0.978664,0.148726,0.902014,0.457340,-0.318068,14.060062,36.702358,-24.706604,,,,,,
1478277275.74,2.527092,-1.334514,2.254963,-2.124589,-1.968607,-0.239043,0.134965,0.972215,0.191266,0.103255,0.284209,-0.644177,13.756360,38.781746,-21.491940,,,,,,
1478277275.76,2.591268,-1.292400,2.381224,-2.457842,-2.692871,-0.018114,0.143718,0.961497,0.234239,-0.408870,0.310338,-0.014940,12.926767,39.572212,-20.545153,,,,,,
1478277275.79,2.615514,-1.250175,2.458835,-2.196342,-1.567360,0.045951,0.158254,0.949040,0.272542,-0.910940,0.303218,0.199092,11.234713,41.079880,-18.476721,,,,,,
1478277275.81,2.657688,-1.218649,2.527315,-1.618571,-1.432844,-0.390606,0.160467,0.938634,0.305312,-0.428152,0.301249,-0.594421,11.234713,41.079880,-18.476721,,,,,,
,,,,,,,,,,,,,,,,37.352880,-122.034925,46.698792,1.030000,348.046875,1478280737.00
1478277275.83,2.663864,-1.193356,2.603103,-1.752864,-3.767236,-0.582719,0.169442,0.929611,0.327281,-0.299402,0.124634,-1.015926,10.210157,42.176491,-16.494263,,,,,,
1478277275.85,2.656628,-1.165869,2.674745,-1.681091,-3.184697,-0.585844,0.183651,0.919131,0.348526,0.070499,-0.316348,-0.549270,8.938096,42.698635,-15.877703,,,,,,
1478277275.87,2.653021,-1.140722,2.742363,-1.605564,-3.144051,-0.557320,0.195696,0.908935,0.368158,0.044950,-0.511062,-0.660638,6.556946,43.665764,-14.334309,,,,,,
1478277275.89,2.634587,-1.124314,2.795737,-0.847708,-2.998120,-0.587909,0.209663,0.901972,0.377477,0.030983,-0.504099,-0.669957,6.556946,43.665764,-14.334309,,,,,,
1478277275.91,2.607610,-1.124902,2.821749,0.058719,-2.010144,-0.389315,0.219499,0.902225,0.371227,-0.049302,-0.774830,-0.386624,3.530870,44.447403,-12.927715,,,,,,
1478277275.93,2.578332,-1.135118,2.824003,0.559868,-1.234191,-0.259297,0.225339,0.906584,0.356830,-0.137570,-0.671263,-0.475040,3.530870,44.447403,-12.927715,,,,,,
1478277275.95,2.544849,-1.153035,2.812355,1.002553,-1.042266,-0.293189,0.227992,0.914000,0.335595,-0.177135,-0.617872,-0.618280,2.471083,44.315514,-13.608584,,,,,,
1478277275.98,2.497444,-1.181359,2.783725,1.651074,-0.904079,-0.373266,0.227997,0.925123,0.303587,-0.048890,-0.645094,-0.602659,1.565806,43.832016,-15.214046,,,,,,
1478277276.00,2.434780,-1.221010,2.724611,2.354161,0.142809,-0.393133,0.222552,0.939446,0.260599,-0.005832,-0.637398,-0.355097,1.117045,43.379929,-16.495413,,,,,,
1478277276.02,2.359754,-1.268889,2.615192,2.995283,2.068986,-0.208327,0.209503,0.954771,0.211000,0.000687,-0.439115,0.010207,1.117045,43.379929,-16.495413,,,,,,
1478277276.04,2.270874,-1.302660,2.465296,1.829032,2.557013,0.442813,0.202620,0.964266,0.170691,-0.063567,1.563001,2.009271,2.106627,40.954659,-21.758739,,,,,,
1478277276.06,2.254552,-1.290522,2.461038,-1.255621,-2.980117,0.117924,0.214437,0.960980,0.174743,-0.075383,1.566288,2.005219,2.106627,40.954659,-21.758739,,,,,,
1478277276.08,2.299096,-1.285640,2.572021,-1.260529,-2.090545,-1.052488,0.209942,0.959618,0.187239,-0.416729,2.029243,1.233370,2.158894,41.015984,-21.637768,,,,,,
1478277276.10,2.405462,-1.283922,2.695770,-1.202936,0.215255,-1.087625,0.189983,0.959133,0.209690,0.308155,-0.078487,0.711956,-0.365491,41.864182,-20.060444,,,,,,
1478277276.12,2.483798,-1.273538,2.755036,-0.512546,1.265478,0.390038,0.179071,0.956143,0.231784,0.663611,-0.270322,0.132230,-0.744033,42.219528,-19.290472,,,,,,
1478277276.15,2.502550,-1.246314,2.738677,-1.381021,1.850556,0.787811,0.190152,0.947816,0.255905,0.205188,1.027969,0.209290,-0.744033,42.219528,-19.290472,,,,,,
1478277276.17,2.598235,-1.227337,2.795882,-0.670204,1.900577,-0.584488,0.174102,0.941595,0.288248,-0.335144,-0.800284,-1.725717,1.070994,42.693207,-18.201851,,,,,,
1478277276.19,2.657245,-1.236439,2.831046,0.524535,0.687986,-0.793453,0.152803,0.944621,0.290417,-0.313844,-0.803310,-1.727886,1.584744,43.201576,-16.919724,,,,,,
1478277276.21,2.633683,-1.272906,2.810773,2.339781,-0.394095,-0.169693,0.142746,0.955958,0.256453,0.115814,-1.430811,-1.310073,1.235693,43.067467,-17.286730,,,,,,
1478277276.23,2.496651,-1.310528,2.627438,2.898731,3.749982,1.655671,0.154700,0.966321,0.205649,0.201455,0.355136,-0.196753,1.734553,41.667919,-20.394611,,,,,,
1478277276.25,2.348605,-1.318131,2.337834,2.166531,6.979349,2.594659,0.178103,0.968250,0.175419,-0.002611,1.075375,-0.281132,4.704842,40.619003,-21.980122,,,,,,
1478277276.27,2.251259,-1.320554,2.149812,1.673680,1.615294,0.307070,0.192485,0.968852,0.155803,-0.831432,1.413594,-0.705943,4.704842,40.619003,-21.980122,,,,,,
1478277276.29,2.133352,-1.349607,2.033124,1.933793,-0.689466,-0.457632,0.185581,0.975637,0.117011,-0.487583,0.192484,-0.385063,10.528737,38.807796,-23.200539,,,,,,
1478277276.32,1.935496,-1.378752,1.846480,2.287171,-0.440199,-0.313532,0.178313,0.981616,0.068076,-0.235030,-0.233096,-0.182685,9.702972,37.429756,-25.691051,,,,,,
1478277276.34,1.759854,-1.391520,1.661592,1.359575,0.706757,-0.019064,0.175140,0.983973,0.033512,-0.153442,-0.351038,0.218624,9.335611,36.538902,-27.072485,,,,,,
1478277276.36,1.641312,-1.392684,1.521282,1.152686,0.975294,0.100316,0.176732,0.984180,0.012483,-0.128651,-0.080417,-0.059740,9.925922,35.320015,-28.445337,,,,,,
1478277276.38,1.511800,-1.391755,1.365030,1.409983,1.224925,0.040883,0.177776,0.984015,-0.010500,-0.129696,-0.080252,-0.036756,9.925922,35.320015,-28.445337,,,,,,
1478277276.40,1.390653,-1.384962,1.214768,1.172770,1.287394,0.268278,0.181776,0.982783,-0.033105,0.003603,0.086431,0.184273,11.038004,34.101810,-29.502436,,,,,,
1478277276.42,1.342333,-1.371743,1.139547,0.561653,1.095533,0.609157,0.192603,0.980254,-0.044785,-0.308082,-0.233337,0.045563,11.740027,33.461071,-29.961529,,,,,,
1478277276.44,1.334640,-1.355008,1.111509,0.501251,0.895689,0.706619,0.208175,0.976808,-0.050097,-0.492797,-0.195054,-0.095060,13.389488,32.598969,-30.219088,,,,,,
1478277276.46,1.294051,-1.338226,1.050721,1.024284,0.888657,0.525547,0.221710,0.973077,-0.062973,-0.506332,-0.191324,-0.082184,14.181659,32.197502,-30.288052,,,,,,
1478277276.49,1.221654,-1.320441,0.959311,1.273149,0.632736,0.494489,0.232800,0.968825,-0.084752,-0.319669,-0.018858,0.054098,15.537931,30.921276,-30.945307,,,,,,
1478277276.51,1.159862,-1.300315,0.885146,1.144200,0.440562,0.567280,0.244951,0.963642,-0.106736,-0.309587,0.031170,0.143051,15.537931,30.921276,-30.945307,,,,,,
1478277276.53,1.109048,-1.280584,0.818835,1.229497,0.720515,0.400956,0.256188,0.958183,-0.127486,-0.366799,0.001854,0.224776,16.550865,29.453075,-31.839436,,,,,,
1478277276.55,1.057146,-1.261228,0.748169,1.269467,0.660084,0.369977,0.265335,0.952465,-0.149692,-0.303284,-0.099514,0.414401,17.091293,28.726421,-32.215603,,,,,,
1478277276.57,1.038052,-1.242887,0.720181,0.434901,0.190133,0.652472,0.277432,0.946718,-0.163577,-0.341046,-0.059907,0.680178,18.104691,27.260473,-32.927971,,,,,,
1478277276.59,1.056978,-1.229466,0.741016,-0.084927,-0.210633,0.680240,0.291518,0.942310,-0.164527,-0.613417,0.118115,0.407371,18.104691,27.260473,-32.927971,,,,,,
1478277276.61,1.059394,-1.221994,0.761000,-0.132202,-1.106641,0.307205,0.298046,0.939783,-0.167264,-0.905025,0.377631,-0.041019,18.612394,26.539667,-33.232357,,,,,,
1478277276.63,1.041530,-1.224937,0.768979,-0.203947,-1.128007,-0.329369,0.292622,0.940785,-0.171164,-0.681049,0.428142,0.361914,18.612394,26.539667,-33.232357,,,,,,
1478277276.65,1.035172,-1.240337,0.776175,-0.812867,-0.203725,-0.625667,0.279034,0.945894,-0.165606,-0.667462,0.423033,0.356356,17.331455,26.769352,-33.737026,,,,,,
1478277276.68,1.118233,-1.271853,0.866451,-2.485527,-0.340581,-0.705832,0.264862,0.955648,-0.128781,-0.196029,0.359385,0.936429,16.811077,27.222115,-33.637905,,,,,,
1478277276.70,1.306016,-1.310033,1.068112,-3.292110,-0.089187,-0.766706,0.248834,0.966193,-0.067470,-0.169106,0.462075,0.564053,15.945284,29.894024,-31.737358,,,,,,
1478277276.72,1.566864,-1.336201,1.337278,-3.158782,-0.066737,-0.766521,0.232448,0.972608,-0.000914,-0.106639,0.834490,-0.033250,15.945284,29.894024,-31.737358,,,,,,
1478277276.74,1.838767,-1.343715,1.618077,-2.821244,-0.013715,-0.755492,0.217100,0.974328,0.059610,0.181139,0.765144,-0.553125,14.644572,34.885139,-26.902195,,,,,,
1478277276.76,2.103675,-1.337506,1.871624,-2.504191,1.580540,-0.865905,0.199127,0.972911,0.117443,0.493638,0.643559,-0.561306,14.644572,34.885139,-26.902195,,,,,,
1478277276.78,2.356515,-1.321220,2.083122,-2.270298,2.178174,-0.665393,0.174595,0.969017,0.174707,0.734112,0.484505,-0.308893,14.422503,37.363518,-23.476019,,,,,,
,,,,,,,,,,,,,,,,37.352900,-122.034913,47.125854,1.060000,350.859375,1478280738.00
1478277276.80,2.465664,-1.294158,2.204175,-1.909064,-2.306391,-0.103601,0.170872,0.961979,0.213071,-0.382344,0.235287,-0.425672,14.643305,39.110668,-20.275452,,,,,,
1478277276.82,2.474557,-1.255166,2.288336,-2.245556,-3.120952,0.259062,0.192042,0.950601,0.243881,-0.403513,0.246665,-0.456482,13.738232,39.735901,-19.684608,,,,,,
1478277276.85,2.524354,-1.219572,2.377183,-1.978889,-1.002970,-0.258395,0.199130,0.938952,0.280564,-0.849947,0.374112,0.320754,13.738232,39.735901,-19.684608,,,,,,
1478277276.87,2.571264,-1.197616,2.452241,-1.422241,-1.490286,-0.623833,0.196839,0.931173,0.306874,-0.423432,0.152781,-0.845510,11.919029,41.550838,-16.930126,,,,,,
1478277276.89,2.593860,-1.177424,2.532270,-1.657852,-2.753893,-0.661760,0.199607,0.923622,0.327230,-0.099937,-0.143867,-0.690679,11.919029,41.550838,-16.930126,,,,,,
1478277276.91,2.606381,-1.155045,2.606964,-1.563638,-2.594615,-0.668904,0.205987,0.914813,0.347399,0.087089,-0.386340,-0.589358,9.818157,42.588516,-15.652052,,,,,,
1478277276.93,2.609434,-1.135106,2.673033,-1.366599,-2.828998,-0.626896,0.214139,0.906579,0.363674,0.085422,-0.478936,-0.591793,7.688581,43.503334,-14.265690,,,,,,
1478277276.95,2.596741,-1.124207,2.725626,-0.686834,-2.693684,-0.650519,0.223846,0.901925,0.369356,0.025147,-0.534433,-0.521806,6.602930,43.852028,-13.731922,,,,,,
1478277276.97,2.576335,-1.127435,2.755497,0.071466,-1.894441,-0.540277,0.229775,0.903315,0.362251,0.021415,-0.629770,-0.381126,6.602930,43.852028,-13.731922,,,,,,
1478277276.99,2.558815,-1.140067,2.764084,0.580814,-0.817278,-0.438827,0.229788,0.908661,0.348615,-0.048925,-0.608491,-0.362271,4.699013,44.131470,-13.619736,,,,,,
1478277277.02,2.542856,-1.158259,2.759846,0.838922,-0.494476,-0.398956,0.225967,0.916106,0.331192,-0.110488,-0.591125,-0.509765,3.620980,43.964523,-14.462848,,,,,,
1478277277.04,2.520114,-1.182372,2.744249,1.282951,-0.334097,-0.415413,0.220511,0.925507,0.307915,-0.131735,-0.594910,-0.546028,3.221980,43.787197,-15.081931,,,,,,
1478277277.06,2.482663,-1.215423,2.704275,1.884619,0.290671,-0.345200,0.213034,0.937517,0.275098,-0.083776,-0.457887,-0.067808,2.538256,43.125614,-16.997150,,,,,,
1478277277.08,2.432561,-1.254524,2.621787,2.415116,1.959048,-0.043335,0.202508,0.950402,0.236066,0.071967,-0.100762,0.425463,2.538256,43.125614,-16.997150,,,,,,
1478277277.10,2.361092,-1.285760,2.496260,1.910532,2.098114,0.496240,0.197857,0.959651,0.199805,0.076618,-0.110012,0.461725,3.094860,41.837242,-19.880430,,,,,,
1478277277.12,2.318681,-1.284170,2.456707,-0.735901,-2.312829,0.208410,0.207269,0.959203,0.192274,-0.575479,1.709285,1.463580,4.083897,41.096958,-21.202045,,,,,,
1478277277.14,2.339116,-1.271042,2.565372,-1.533479,-3.603919,-0.949745,0.212334,0.955409,0.205202,-0.609886,1.240392,1.085752,3.336569,41.246956,-21.040932,,,,,,
1478277277.16,2.413996,-1.265832,2.680216,-1.184614,-0.620107,-0.920275,0.199695,0.953858,0.224226,0.036099,-0.006714,0.696153,1.572984,41.782097,-20.172918,,,,,,
1478277277.19,2.493573,-1.260461,2.761027,-0.686912,0.352710,-0.544257,0.184329,0.952231,0.243472,0.358136,-0.649497,0.114393,0.004958,42.501152,-18.676640,,,,,,
1478277277.21,2.486554,-1.264141,2.737184,0.962491,0.981319,0.641447,0.183897,0.953349,0.239391,0.494310,-0.476038,-0.507565,0.004958,42.501152,-18.676640,,,,,,
1478277277.23,2.462511,-1.270594,2.666561,0.472262,2.737313,0.295458,0.185731,0.955277,0.230109,-0.100572,0.927475,0.019952,0.662635,42.317749,-19.077042,,,,,,
1478277277.25,2.565967,-1.266161,2.722314,-1.070641,1.699248,-0.830612,0.163278,0.953956,0.251610,-0.131097,0.046227,-1.092399,1.724129,42.070683,-19.551205,,,,,,
1478277277.27,2.637250,-1.271394,2.793325,0.403068,-0.549866,-0.969978,0.142529,0.955513,0.258226,-0.110348,0.044670,-1.099015,1.935680,42.520126,-18.532576,,,,,,
1478277277.29,2.603911,-1.296010,2.769257,1.400339,-0.053053,0.239379,0.138967,0.962483,0.233055,0.401362,-0.984730,-0.865226,1.935680,42.520126,-18.532576,,,,,,
1478277277.31,2.500652,-1.315939,2.625887,2.093135,3.067597,1.238003,0.150747,0.967699,0.202072,0.316019,-0.262926,-0.026657,1.893785,41.488811,-20.742626,,,,,,
1478277277.33,2.400370,-1.342909,2.392526,2.906102,7.311441,1.144274,0.152539,0.974146,0.166648,-0.054257,0.325308,-0.513679,1.893785,41.488811,-20.742626,,,,,,
1478277277.35,2.244990,-1.359566,2.109657,2.161908,3.764369,1.345027,0.163791,0.977774,0.130886,-0.535892,1.084772,-0.999508,7.496463,39.481983,-23.240925,,,,,,
1478277277.38,2.115143,-1.372721,1.968826,1.516111,-1.104125,-0.192293,0.168341,0.980447,0.101906,-0.897161,0.723166,-0.769966,10.950779,37.685463,-24.800220,,,,,,
1478277277.40,1.902503,-1.403684,1.761029,2.200832,0.043931,-0.543224,0.157268,0.986069,0.054168,-0.619854,-0.264832,-0.053588,10.352054,36.972950,-26.095987,,,,,,
1478277277.42,1.689022,-1.416492,1.546158,1.459197,-0.267891,-0.071428,0.152620,0.988119,0.018128,-0.375322,-0.322027,0.017227,10.352054,36.972950,-26.095987,,,,,,
1478277277.44,1.527688,-1.417580,1.374632,1.202455,0.881174,0.033834,0.152476,0.988285,-0.006577,0.030691,-0.071476,0.173157,9.992137,34.866783,-28.976358,,,,,,
1478277277.46,1.398861,-1.412444,1.215801,1.145967,1.375290,0.142999,0.155366,0.987488,-0.026979,0.027800,-0.070679,0.193560,9.992137,34.866783,-28.976358,,,,,,
1478277277.48,1.293423,-1.403898,1.085018,0.993054,0.909713,0.255127,0.159775,0.986105,-0.045490,0.112488,0.100184,0.229709,11.273929,33.732780,-29.835594,,,,,,
1478277277.50,1.225439,-1.387134,0.998642,0.894612,0.844854,0.658161,0.171848,0.983181,-0.061827,-0.160770,-0.307858,0.153303,12.514150,32.658436,-30.528465,,,,,,
1478277277.52,1.189629,-1.366077,0.937350,0.858554,1.343975,0.725015,0.188703,0.979118,-0.075626,-0.407849,-0.271919,-0.011075,13.342520,32.080292,-30.789557,,,,,,
1478277277.55,1.167574,-1.345456,0.883352,0.915857,1.433582,0.664459,0.205519,0.974718,-0.087673,-0.424665,-0.267519,0.000973,13.342520,32.080292,-30.789557,,,,,,
1478277277.57,1.127489,-1.323988,0.815577,1.226545,1.071157,0.609177,0.220695,0.969697,-0.104792,-0.409110,-0.082551,-0.105795,16.346077,30.225002,-31.215698,,,,,,
1478277277.59,1.068498,-1.300301,0.731714,1.480150,1.092743,0.470576,0.234203,0.963639,-0.128645,-0.391033,-0.032227,0.120146,16.346077,30.225002,-31.215698,,,,,,
1478277277.61,1.011282,-1.277508,0.650441,1.418984,0.819121,0.366385,0.245017,0.957299,-0.153448,-0.290809,-0.093880,0.273229,17.900719,28.540512,-31.940067,,,,,,
1478277277.63,0.971857,-1.253772,0.600077,1.027552,0.185089,0.703186,0.257477,0.950167,-0.175749,-0.232605,-0.136676,0.538298,19.014494,26.883955,-32.724098,,,,,,
1478277277.65,0.976972,-1.232053,0.604301,0.228784,0.032305,0.898410,0.275414,0.943173,-0.185935,-0.520593,0.097461,0.590277,19.410343,26.203678,-33.041946,,,,,,
1478277277.67,0.985999,-1.221052,0.614129,0.185960,-0.002372,0.244108,0.285716,0.939460,-0.189157,-0.883525,0.372658,0.178873,19.410343,26.203678,-33.041946,,,,,,
1478277277.69,0.982098,-1.223250,0.609828,-0.223556,-0.036197,-0.310292,0.283258,0.940211,-0.189123,-0.535822,0.324910,0.395102,19.950821,25.576176,-33.211273,,,,,,
1478277277.72,1.007989,-1.240518,0.643293,-1.315636,-0.419705,-0.368431,0.274286,0.945952,-0.173038,-0.526849,0.319169,0.379016,19.717983,25.923018,-33.081158,,,,,,
1478277277.74,1.086450,-1.268430,0.740485,-2.261185,-0.768211,-0.513348,0.263529,0.954634,-0.138655,-0.328974,0.422288,0.570586,19.342255,26.720049,-32.666203,,,,,,
1478277277.76,1.262578,-1.307391,0.927983,-3.311138,0.386810,-0.891738,0.248100,0.965509,-0.078986,-0.212288,0.687811,0.659202,18.285559,29.521097,-30.810839,,,,,,
1478277277.78,1.526809,-1.346571,1.180827,-2.954460,1.021215,-1.474406,0.222136,0.974967,-0.009777,0.029725,1.229852,-0.095264,18.285559,29.521097,-30.810839,,,,,,
1478277277.80,1.819274,-1.369858,1.457638,-2.402683,0.998328,-1.240320,0.193459,0.979880,0.049085,0.587944,0.687662,-0.610745,17.789949,33.132126,-27.220295,,,,,,
,,,,,,,,,,,,,,,,37.352914,-122.034896,49.219238,1.030000,-1.000000,1478280739.00
1478277277.82,2.102844,-1.375938,1.707586,-1.900880,2.385419,-0.994457,0.166862,0.981075,0.098227,0.879875,0.463932,-0.514380,17.496367,34.575832,-25.564695,,,,,,
1478277277.84,2.347762,-1.358599,1.912792,-2.074812,0.978387,-0.329862,0.150173,0.977570,0.147662,0.519566,0.261809,-0.303134,17.928070,36.666103,-22.121164,,,,,,
1478277277.86,2.421168,-1.336524,2.052835,-2.063193,-4.507434,-0.341855,0.153141,0.972683,0.174456,-0.399234,0.378681,-1.331529,17.973982,37.450363,-20.726093,,,,,,
1478277277.88,2.510069,-1.289097,2.212739,-3.027517,-1.704042,-0.009253,0.164117,0.960585,0.224372,-0.605539,0.349260,-0.077125,15.314131,39.097069,-19.800537,,,,,,
1478277277.91,2.580330,-1.248757,2.302930,-1.846605,-0.538847,0.095313,0.168460,0.948592,0.267945,-0.609881,0.361253,-0.120698,15.314131,39.097069,-19.800537,,,,,,
1478277277.93,2.607892,-1.217832,2.362844,-1.813091,-2.010594,-0.093336,0.175856,0.938352,0.297607,-0.233214,0.180971,-0.788360,14.804108,40.453396,-17.306808,,,,,,
1478277277.95,2.607397,-1.183378,2.427411,-1.994460,-3.305893,-0.124403,0.192356,0.925888,0.325163,-0.008991,-0.239379,-0.751296,14.331094,40.938396,-16.547871,,,,,,
1478277277.97,2.586533,-1.148482,2.488772,-2.009018,-3.787240,-0.095866,0.216001,0.912143,0.348338,0.067950,-0.384494,-0.645579,12.607132,41.987656,-15.272902,,,,,,
1478277277.99,2.551635,-1.112494,2.544403,-1.992750,-3.930515,-0.005065,0.246133,0.896805,0.367641,0.037817,-0.369156,-0.664882,12.607132,41.987656,-15.272902,,,,,,
1478277278.01,2.523217,-1.086322,2.585078,-1.151770,-2.556478,-0.027413,0.269997,0.884920,0.379498,-0.142250,-0.588472,-0.409939,9.998518,43.308006,-13.401900,,,,,,
1478277278.03,2.496122,-1.076037,2.601794,-0.332666,-1.642029,-0.015199,0.285639,0.880083,0.379294,-0.191096,-0.487871,-0.414527,9.998518,43.308006,-13.401900,,,,,,
1478277278.05,2.472038,-1.078459,2.601894,0.332290,-0.911260,-0.124244,0.293367,0.881231,0.370633,-0.206087,-0.402044,-0.551556,9.142437,43.576736,-13.139586,,,,,,
1478277278.08,2.443279,-1.092578,2.587942,0.949182,-0.693080,-0.215557,0.295874,0.887816,0.352479,-0.172461,-0.466948,-0.652146,8.861176,43.552876,-13.408622,,,,,,
1478277278.10,2.404463,-1.119745,2.554760,1.732025,-0.227245,-0.380456,0.293005,0.899989,0.322750,-0.062674,-0.589915,-0.573177,8.253555,43.214882,-14.816120,,,,,,
1478277278.12,2.352568,-1.161457,2.491231,2.622520,0.599317,-0.480567,0.282450,0.917384,0.280409,-0.065424,-0.656825,-0.413923,8.253555,43.214882,-14.816120,,,,,,
1478277278.14,2.268522,-1.212216,2.371636,3.413120,1.666919,-0.174421,0.268931,0.936396,0.225474,-0.163310,-0.048105,0.445684,7.796399,41.392586,-19.520107,,,,,,
1478277278.16,2.170273,-1.244309,2.220818,1.950270,2.084626,0.500876,0.264794,0.947175,0.180952,-0.159432,1.152831,2.249437,7.796399,41.392586,-19.520107,,,,,,
1478277278.18,2.177332,-1.233435,2.238560,-1.236486,-2.419641,-0.211209,0.271957,0.943631,0.188677,-0.166595,1.156375,2.241712,9.371995,39.608475,-22.327095,,,,,,
1478277278.20,2.201933,-1.233171,2.324900,-1.332024,-2.231162,-0.945201,0.267435,0.943544,0.195457,0.424902,0.041030,0.710412,7.647903,40.371941,-21.605104,,,,,,
1478277278.22,2.286117,-1.229898,2.440811,-1.424119,-0.547073,-1.049237,0.252383,0.942455,0.219276,0.439954,0.042119,0.686592,6.401916,40.979633,-20.853050,,,,,,
1478277278.25,2.366372,-1.223455,2.523635,-1.152916,0.499590,-0.331638,0.238236,0.940281,0.243135,0.356384,-0.985203,0.340818,6.401916,40.979633,-20.853050,,,,,,
1478277278.27,2.414851,-1.210588,2.538815,-0.001261,2.431324,0.623856,0.234194,0.935824,0.263415,-0.200731,0.593656,-0.691684,5.703804,42.175148,-18.544216,,,,,,
1478277278.29,2.431468,-1.215018,2.482622,0.784882,3.759222,0.054176,0.227080,0.937376,0.264124,-1.374754,2.391329,-1.372935,5.703804,42.175148,-18.544216,,,,,,
1478277278.31,2.507579,-1.224858,2.523252,-0.280532,0.395750,-1.143799,0.200865,0.940758,0.273181,-1.348539,2.387947,-1.381992,8.102468,41.747322,-18.619228,,,,,,
1478277278.33,2.571291,-1.242840,2.585972,0.349155,0.195377,-1.210853,0.173902,0.946703,0.271131,-0.158460,-0.889238,-0.574705,7.045473,42.055447,-18.353891,,,,,,
1478277278.35,2.564934,-1.264816,2.588099,1.309213,-0.575395,-0.112333,0.164237,0.953552,0.252516,0.538247,-1.231262,-0.450026,6.355072,42.015549,-18.694149,,,,,,
1478277278.37,2.468448,-1.282642,2.449185,1.913642,3.846697,1.903122,0.177173,0.958770,0.222193,0.916851,-0.521438,-0.073572,6.355072,42.015549,-18.694149,,,,,,
1478277278.39,2.377246,-1.279571,2.231371,1.850036,5.333514,2.016576,0.198710,0.957893,0.207258,0.325704,0.621773,-0.507856,7.769898,40.888527,-20.565063,,,,,,
1478277278.42,2.238248,-1.299293,2.056248,2.576933,-1.268550,0.330374,0.210629,0.963369,0.166000,-0.366757,1.324564,-1.221404,13.423086,38.947678,-21.402424,,,,,,
1478277278.44,2.004349,-1.329099,1.875130,2.361335,-2.397547,-0.199544,0.217206,0.970933,0.100551,-0.637143,0.584838,-0.490703,13.240059,37.966263,-23.204060,,,,,,
1478277278.46,1.853918,-1.345710,1.732255,1.493232,0.170291,-0.175525,0.214305,0.974775,0.062349,-0.347896,-0.258115,-0.115847,11.638836,36.297688,-26.498680,,,,,,
1478277278.48,1.736883,-1.352750,1.601225,1.359773,0.659063,0.071219,0.213346,0.976322,0.035763,-0.115430,-0.300693,0.037631,11.711596,35.701122,-27.265965,,,,,,
1478277278.50,1.626564,-1.352814,1.469916,1.323481,0.949938,0.184911,0.215924,0.976336,0.012054,-0.118008,-0.300707,0.061341,11.711596,35.701122,-27.265965,,,,,,
1478277278.52,1.528997,-1.345160,1.348505,1.179201,0.928206,0.481172,0.223531,0.974652,-0.009349,0.042002,-0.118207,0.156993,12.517670,34.465771,-28.470743,,,,,,
1478277278.54,1.456722,-1.329727,1.256176,0.964675,0.766710,0.740012,0.237189,0.971083,-0.027175,-0.255286,-0.079329,0.066283,13.859957,33.166946,-29.377199,,,,,,
1478277278.56,1.410520,-1.311749,1.190337,0.901320,0.949870,0.683580,0.252877,0.966634,-0.040881,-0.603066,-0.156316,-0.160581,14.606020,32.548103,-29.706053,,,,,,
1478277278.58,1.357795,-1.296779,1.107325,1.300678,1.430075,0.386924,0.264485,0.962692,-0.057203,-0.663900,-0.212707,-0.191256,16.249401,31.303553,-30.186243,,,,,,
1478277278.61,1.288644,-1.282630,1.007555,1.438213,1.075425,0.358706,0.272957,0.958767,-0.079126,-0.400063,-0.212093,0.014673,16.249401,31.303553,-30.186243,,,,,,
1478277278.63,1.226787,-1.264007,0.926591,1.281837,0.571875,0.556453,0.284306,0.953308,-0.101854,-0.281803,-0.150040,0.148897,17.786428,29.751366,-30.881449,,,,,,
1478277278.65,1.173798,-1.242900,0.858486,1.329767,0.606923,0.527291,0.297005,0.946722,-0.124522,-0.317803,0.101862,0.266062,18.358372,28.954121,-31.301655,,,,,,
1478277278.67,1.123491,-1.222288,0.786747,1.465465,0.903475,0.383442,0.307899,0.939883,-0.147710,-0.328696,0.108701,0.289250,19.456676,27.299088,-32.114826,,,,,,
1478277278.69,1.084865,-1.201459,0.731723,0.991093,0.281522,0.572080,0.319208,0.932567,-0.168597,-0.291209,0.007649,0.466052,19.456676,27.299088,-32.114826,,,,,,
1478277278.71,1.082346,-1.183867,0.734359,0.041282,-0.473218,0.834994,0.333220,0.926072,-0.177073,-0.777373,0.164504,0.253184,20.766426,25.177357,-33.015465,,,,,,
1478277278.73,1.086296,-1.171357,0.752651,0.014640,-0.654978,0.507917,0.344142,0.921279,-0.181137,-0.982494,0.294465,0.035141,20.766426,25.177357,-33.015465,,,,,,
1478277278.75,1.075918,-1.169918,0.755543,-0.060263,-0.508925,-0.221647,0.343411,0.920718,-0.185329,-0.936047,0.540005,0.307658,20.649303,24.749634,-33.409973,,,,,,
1478277278.78,1.068534,-1.184574,0.756325,-0.666801,-0.327486,-0.651139,0.330168,0.926339,-0.181343,-0.540953,0.537834,0.795250,20.330578,24.765678,-33.593056,,,,,,
1478277278.80,1.129678,-1.212408,0.825440,-2.206718,-0.065891,-0.723898,0.317188,0.936463,-0.149760,-0.623829,0.528121,0.858408,19.504032,25.834644,-33.276546,,,,,,
,,,,,,,,,,,,,,,,37.352931,-122.034883,49.391113,1.060000,352.968750,1478280740.00
1478277278.82,1.248042,-1.255777,0.946764,-2.512997,0.450898,-1.425161,0.293837,0.950790,-0.098274,-0.373976,0.546951,0.241325,19.504032,25.834644,-33.276546,,,,,,
1478277278.84,1.402579,-1.297678,1.087937,-2.291935,0.974151,-1.315729,0.265928,0.962934,-0.045160,0.117617,0.738894,-0.191946,18.437603,30.458132,-29.791298,,,,,,
1478277278.86,1.584330,-1.323774,1.265530,-2.213268,0.073623,-1.004117,0.244495,0.969645,0.003309,0.544720,0.633367,-0.542555,18.437603,30.458132,-29.791298,,,,,,
1478277278.88,1.764031,-1.332201,1.464204,-2.209733,-0.984632,-0.345361,0.231940,0.971671,0.045385,0.865076,0.351403,-0.478246,17.760487,33.110455,-27.265869,,,,,,
1478277278.90,1.950258,-1.319416,1.671006,-2.583882,-0.194358,-0.010787,0.231047,0.968570,0.092139,-0.379103,0.580838,0.312417,16.742476,35.201782,-25.212868,,,,,,
1478277278.92,2.144547,-1.293522,1.857585,-2.527112,0.760557,0.002677,0.229902,0.961805,0.148580,-0.614256,0.547640,-0.679280,16.854790,36.212811,-23.658258,,,,,,
1478277278.95,2.261551,-1.270297,1.994667,-1.926156,-1.464494,-0.356734,0.228144,0.955189,0.188586,-0.612498,0.554256,-0.719286,16.854790,36.212811,-23.658258,,,,,,
1478277278.97,2.316871,-1.249278,2.102984,-1.767513,-2.486693,-0.175316,0.232063,0.948757,0.214494,-0.272911,0.249455,-0.439637,15.676767,38.588306,-20.502342,,,,,,
1478277278.99,2.352817,-1.226063,2.193205,-1.874828,-2.160765,-0.217865,0.239769,0.941166,0.238155,-0.307015,0.262539,-0.284008,15.676767,38.588306,-20.502342,,,,,,
1478277279.01,2.411319,-1.200033,2.297141,-2.040857,-1.849970,-0.526388,0.241699,0.932051,0.269930,-0.208114,0.098878,-0.400714,13.979774,39.823555,-19.334293,,,,,,
1478277279.03,2.445053,-1.175158,2.400928,-2.137910,-3.430750,-0.592282,0.247259,0.922751,0.295626,0.007945,-0.185736,-0.659929,11.957348,41.261276,-17.598103,,,,,,
1478277279.05,2.458990,-1.151006,2.492847,-1.893823,-3.188612,-0.602362,0.257100,0.913175,0.316246,0.001628,-0.362821,-0.550835,10.628878,41.933903,-16.844559,,,,,,
1478277279.07,2.467304,-1.130293,2.569663,-1.544133,-2.662007,-0.531695,0.266216,0.904537,0.333079,-0.076549,-0.520977,-0.532587,10.628878,41.933903,-16.844559,,,,,,
1478277279.09,2.471675,-1.118098,2.621927,-0.845651,-1.668986,-0.435464,0.271587,0.899270,0.342861,-0.084804,-0.640634,-0.543422,8.302088,43.018829,-15.349921,,,,,,
1478277279.11,2.468195,-1.112659,2.652229,-0.443135,-1.388476,-0.291143,0.275825,0.896878,0.345732,-0.089042,-0.638241,-0.546294,6.823092,43.584335,-14.457376,,,,,,
1478277279.14,2.453692,-1.114257,2.669447,-0.006242,-1.492554,-0.361131,0.279899,0.897584,0.340588,-0.194740,-0.580521,-0.629574,6.299991,43.716743,-14.294102,,,,,,
1478277279.16,2.427306,-1.124088,2.675978,0.456324,-1.436070,-0.405336,0.282993,0.901874,0.326401,-0.205616,-0.698307,-0.452210,5.104039,43.761894,-14.629081,,,,,,
1478277279.18,2.396594,-1.142816,2.662893,1.077977,-0.460579,-0.361002,0.281381,0.909806,0.305087,-0.130441,-0.707871,-0.285113,5.104039,43.761894,-14.629081,,,,,,
1478277279.20,2.363529,-1.170498,2.615880,1.847376,1.032208,-0.173182,0.273526,0.920945,0.277568,-0.102308,-0.467484,-0.105510,4.164098,43.408398,-15.922807,,,,,,
1478277279.22,2.315660,-1.201792,2.527536,2.243044,1.727757,0.129196,0.265170,0.932687,0.244499,-0.165332,-0.036996,0.265953,4.176191,42.989525,-17.018362,,,,,,
1478277279.24,2.251571,-1.221871,2.441568,1.012947,-0.245436,0.313301,0.265676,0.939741,0.215183,-0.215521,0.615908,0.994702,5.168984,41.737362,-19.658043,,,,,,
1478277279.26,2.228595,-1.206049,2.472404,-1.747075,-3.011457,0.016452,0.282281,0.934214,0.218086,-0.180169,1.675710,2.058022,5.269778,41.408504,-20.315750,,,,,,
1478277279.28,2.294372,-1.195184,2.568367,-1.401491,-0.012660,-0.855073,0.274928,0.930283,0.242875,-0.122294,0.071014,0.649856,3.686260,42.325001,-18.712837,,,,,,
1478277279.31,2.376709,-1.189074,2.650267,-1.083153,0.020269,-0.704195,0.257952,0.928025,0.268759,-0.105318,0.073272,0.623972,3.686260,42.325001,-18.712837,,,,,,
1478277279.33,2.406431,-1.183354,2.699295,-0.561706,-0.975802,-0.273119,0.253408,0.925878,0.280239,0.112346,-0.863897,-0.159466,2.719223,43.094551,-17.047880,,,,,,
1478277279.35,2.392403,-1.190556,2.684551,1.189337,1.090044,0.299933,0.252766,0.928575,0.271767,0.478847,0.810972,-0.225014,2.217842,43.304321,-16.582565,,,,,,
1478277279.37,2.380874,-1.191654,2.608641,0.085430,3.413831,0.653992,0.255179,0.928982,0.268096,-0.680533,3.152072,-0.264281,3.036606,42.866467,-17.561600,,,,,,
1478277279.39,2.495446,-1.176516,2.693321,-1.710574,0.814376,-1.263699,0.231299,0.923273,0.306705,-0.656653,3.157782,-0.302890,4.331957,42.822639,-17.395987,,,,,,
1478277279.41,2.576344,-1.184129,2.766517,0.326964,0.552486,-1.061413,0.201986,0.926171,0.318447,0.649042,-1.614724,-1.234386,3.255485,43.606159,-15.590672,,,,,,
1478277279.43,2.560188,-1.212175,2.737332,1.893336,0.676179,0.299697,0.192760,0.936382,0.293314,0.977757,-1.639323,-0.567988,3.255485,43.606159,-15.590672,,,,,,
1478277279.45,2.455792,-1.243140,2.555157,3.518341,5.127280,2.047400,0.203810,0.946799,0.249064,0.365710,-0.512809,-0.466365,3.259105,42.921650,-17.386051,,,,,,
1478277279.48,2.326755,-1.264220,2.267080,3.183619,6.977534,2.429075,0.219591,0.953372,0.207028,-0.577166,0.785565,-1.148572,5.499762,41.902687,-19.211506,,,,,,
1478277279.50,2.230174,-1.268531,2.084246,1.684341,0.854731,0.712566,0.235281,0.954665,0.182369,-0.941321,2.255083,-1.173915,12.630075,39.146645,-21.521751,,,,,,
1478277279.52,2.117376,-1.296675,1.995663,1.791523,-1.327901,-0.773646,0.231262,0.962664,0.140702,-1.143737,1.235792,-0.152680,12.630075,39.146645,-21.521751,,,,,,
1478277279.54,2.007692,-1.328830,1.886117,1.930638,0.248672,-0.637188,0.217105,0.970869,0.101387,-0.220752,-0.431379,-0.093956,11.946272,37.297215,-24.927273,,,,,,
1478277279.56,1.871071,-1.349792,1.743355,1.583792,0.085185,-0.157239,0.209401,0.975678,0.064838,0.029079,-0.445694,0.101162,11.946272,37.297215,-24.927273,,,,,,
1478277279.58,1.743681,-1.355103,1.613203,1.292999,0.031286,0.155238,0.210834,0.976828,0.036818,0.027645,-0.446845,0.129183,11.626255,35.980747,-26.932888,,,,,,
1478277279.60,1.626912,-1.358489,1.475704,1.459465,1.454097,-0.103407,0.210384,0.977547,0.011818,-0.061413,0.055641,0.443977,11.969297,34.775288,-28.329838,,,,,,
1478277279.62,1.550726,-1.358194,1.343404,1.165093,2.920505,0.139250,0.210962,0.977485,-0.004235,-0.080027,-0.131065,0.183175,12.820092,34.141720,-28.725475,,,,,,
1478277279.65,1.524459,-1.350023,1.259281,0.749674,2.275761,0.463033,0.218749,0.975728,-0.010144,-0.231430,-0.412786,-0.288013,12.820092,34.141720,-28.725475,,,,,,
1478277279.67,1.462949,-1.337315,1.173419,1.116489,0.202360,0.584534,0.230022,0.972867,-0.024904,-0.303172,-0.480084,-0.559859,16.444851,32.576874,-28.696316,,,,,,
1478277279.69,1.357780,-1.319497,1.073997,1.299914,-0.460242,0.667197,0.243043,0.968590,-0.052570,-0.309098,-0.160027,-0.163236,16.444851,32.576874,-28.696316,,,,,,
1478277279.71,1.269223,-1.299357,0.982166,1.293039,0.236758,0.580104,0.256018,0.963386,-0.079637,-0.374502,0.100518,0.272859,16.825138,31.080824,-30.100863,,,,,,
1478277279.73,1.210369,-1.284556,0.913640,0.890817,0.418016,0.250654,0.264205,0.959312,-0.099577,-0.413497,0.252251,0.371336,17.523390,29.605448,-31.170702,,,,,,
1478277279.75,1.184813,-1.276995,0.868380,0.673755,1.088828,0.028049,0.268287,0.957150,-0.109023,-0.417579,0.254413,0.380782,17.902256,29.160915,-31.373793,,,,,,
1478277279.77,1.150535,-1.271977,0.813417,0.820521,0.572796,-0.115354,0.268775,0.955685,-0.120112,-0.345740,0.426945,0.167536,17.902256,29.160915,-31.373793,,,,,,
1478277279.79,1.124886,-1.266963,0.775988,0.354543,0.720127,0.020794,0.269926,0.954197,-0.129030,-0.490995,0.236996,0.862917,18.784817,28.433962,-31.524673,,,,,,
,,,,,,,,,,,,,,,,37.352948,-122.034875,48.078979,1.070000,352.265625,1478280741.00
1478277279.81,1.162809,-1.270091,0.776857,-0.264450,2.243977,-0.240909,0.271883,0.955128,-0.117519,-0.405733,0.187862,0.610210,19.542694,28.038887,-31.417648,,,,,,
1478277279.84,1.225672,-1.278921,0.799000,-0.590547,1.549844,-0.213877,0.270782,0.957706,-0.097349,-0.242385,0.038235,0.379408,20.513124,28.238064,-30.610258,,,,,,
1478277279.86,1.313170,-1.285486,0.871488,-1.257739,0.512008,0.093094,0.272166,0.959574,-0.071711,-0.432887,-0.153865,0.410181,21.714243,29.009399,-29.019150,,,,,,
1478277279.88,1.448086,-1.288144,1.005953,-2.137462,0.199107,0.223701,0.276807,0.960319,-0.034139,-0.670575,-0.024146,0.347432,21.966633,29.609428,-28.211935,,,,,,
1478277279.90,1.639598,-1.290055,1.202899,-2.708297,-0.046217,-0.240385,0.276412,0.960850,0.019048,-0.875808,0.826549,0.035274,21.966633,29.609428,-28.211935,,,,,,
1478277279.92,1.821082,-1.299379,1.397483,-2.142059,-0.225781,-1.130772,0.259744,0.963392,0.066402,-0.589242,0.996844,-0.361752,22.152393,31.614893,-25.786325,,,,,,
1478277279.94,1.993335,-1.310824,1.581382,-1.995844,-0.373068,-1.267002,0.234446,0.966397,0.105412,0.117391,0.514484,-0.258076,20.947762,34.051098,-23.598278,,,,,,
1478277279.96,2.181760,-1.305881,1.792838,-2.587910,-1.036830,-0.881045,0.214462,0.965115,0.150199,0.554978,0.426426,-0.239235,20.118395,35.203609,-22.607979,,,,,,
1478277279.98,2.336351,-1.272385,1.982092,-3.051302,-1.250603,0.003207,0.211975,0.955805,0.203725,0.355545,0.520636,-0.224980,18.530008,37.471462,-20.191402,,,,,,
1478277280.01,2.420803,-1.222698,2.090698,-2.491507,-0.713178,0.561016,0.225126,0.940023,0.256271,-0.216718,0.475519,-0.382431,18.530008,37.471462,-20.191402,,,,,,
1478277280.03,2.452211,-1.187694,2.139853,-1.411230,-0.856362,0.338005,0.237759,0.927509,0.288439,-0.229351,0.488033,-0.414598,18.452347,38.896008,-17.371708,,,,,,
1478277280.05,2.460117,-1.169085,2.174971,-0.979244,-1.166717,-0.016870,0.246303,0.920393,0.303663,-0.298595,0.288851,-0.250685,18.522564,39.221058,-16.546534,,,,,,
1478277280.07,2.482826,-1.154742,2.228233,-1.404645,-1.147336,-0.561507,0.247400,0.914691,0.319585,-0.318369,0.356656,0.012981,17.873108,39.779743,-15.915047,,,,,,
1478277280.09,2.533208,-1.136693,2.304615,-1.528445,-0.880988,-0.742093,0.240390,0.907247,0.345131,-0.106356,0.112009,-0.357673,17.873108,39.779743,-15.915047,,,,,,
1478277280.11,2.571353,-1.120771,2.372495,-1.349602,-1.340598,-0.632192,0.234822,0.900436,0.366161,0.061931,-0.237579,-0.619411,15.849470,41.353825,-13.921919,,,,,,
1478277280.13,2.570824,-1.097860,2.421920,-1.521091,-2.489253,-0.110560,0.246099,0.890234,0.383299,-0.036656,-0.608069,-0.727781,15.849470,41.353825,-13.921919,,,,,,
1478277280.15,2.546588,-1.071926,2.456498,-1.279757,-2.444069,0.063907,0.268168,0.878124,0.396213,-0.205546,-0.677730,-0.611804,14.568102,42.125065,-12.977439,,,,,,
1478277280.18,2.520826,-1.055317,2.475948,-0.725257,-1.754765,0.088661,0.286730,0.870056,0.400984,-0.338030,-0.572968,-0.500517,14.081873,42.399120,-12.616666,,,,,,
1478277280.20,2.499079,-1.044687,2.487813,-0.461178,-1.417049,0.055699,0.300907,0.864767,0.402035,-0.352207,-0.567679,-0.501568,13.446844,42.685036,-12.342395,,,,,,
1478277280.22,2.473261,-1.041583,2.492481,-0.006557,-1.454524,-0.043249,0.312847,0.863205,0.396238,-0.326519,-0.384750,-0.568769,13.446844,42.685036,-12.342395,,,,,,
1478277280.24,2.440893,-1.049240,2.488704,0.554055,-1.274289,-0.224234,0.321235,0.867045,0.380843,-0.191597,-0.381113,-0.533095,12.539614,42.764557,-13.004433,,,,,,
1478277280.26,2.407748,-1.068501,2.474283,1.111874,-0.757832,-0.417086,0.322434,0.876480,0.357519,-0.193833,-0.392700,-0.401037,12.539614,42.764557,-13.004433,,,,,,
1478277280.28,2.375634,-1.098731,2.447854,1.625082,-0.213406,-0.607410,0.315230,0.890631,0.327730,-0.242888,-0.346823,-0.300798,11.649142,42.500061,-14.601606,,,,,,
1478277280.30,2.341832,-1.137520,2.406189,2.052366,0.443270,-0.706425,0.301110,0.907595,0.292582,-0.206581,-0.198443,-0.136546,10.754411,41.879078,-16.901182,,,,,,
1478277280.32,2.306279,-1.177545,2.347802,2.029067,1.032524,-0.554265,0.284141,0.923668,0.257102,-0.073905,0.116234,0.222649,10.479012,41.407913,-18.186251,,,,,,
1478277280.35,2.286979,-1.202515,2.302541,0.781375,0.978551,-0.207922,0.271564,0.932947,0.236352,-0.002917,0.578756,0.974540,10.479012,41.407913,-18.186251,,,,,,
1478277280.37,2.321864,-1.195734,2.331719,-1.263904,-0.194019,-0.126895,0.267773,0.930485,0.249991,-0.105725,1.314098,1.803659,10.669878,40.702950,-19.610916,,,,,,
1478277280.39,2.364699,-1.183037,2.395009,-1.170751,-0.793322,-0.467322,0.265084,0.925759,0.269632,-0.341851,1.536903,0.715872,10.669878,40.702950,-19.610916,,,,,,
1478277280.41,2.408412,-1.173884,2.463925,-1.044355,-1.062110,-0.696127,0.258708,0.922259,0.287242,0.074177,0.179502,0.419835,9.823694,41.548534,-18.231270,,,,,,
1478277280.43,2.427804,-1.173485,2.509193,-0.273215,-0.959249,-0.402324,0.253331,0.922105,0.292483,-0.029835,-1.291764,-0.247760,8.366828,42.248428,-17.327183,,,,,,
1478277280.45,2.401724,-1.181402,2.495269,0.969947,-0.285287,0.127166,0.255942,0.925139,0.280377,-0.001364,-0.861723,-0.557523,7.954375,42.286850,-17.427418,,,,,,
1478277280.47,2.326097,-1.202934,2.389978,2.588717,2.025465,0.881808,0.261828,0.933098,0.246523,-0.007250,-0.869683,-0.523669,7.954375,42.286850,-17.427418,,,,,,
1478277280.49,2.274096,-1.226065,2.240553,2.120817,4.917735,0.368150,0.257754,0.941166,0.218561,-0.384509,2.352367,-0.911676,8.843150,41.236103,-19.404819,,,,,,
1478277280.51,2.337104,-1.239969,2.240274,-1.130721,1.709949,-0.966983,0.234029,0.945774,0.225260,-0.828756,1.039669,0.930242,12.085929,39.698814,-20.811031,,,,,,
1478277280.54,2.456819,-1.228068,2.380728,-1.072052,-1.002006,-1.234508,0.212556,0.941841,0.260298,-0.092072,-0.165627,-0.107099,12.010742,40.209312,-19.852402,,,,,,
1478277280.56,2.470157,-1.260964,2.367998,2.396649,2.351225,-0.514760,0.189681,0.952385,0.238715,0.350495,-1.377144,-1.012457,10.551668,40.851265,-19.364943,,,,,,
1478277280.58,2.412475,-1.305707,2.232536,2.762636,3.923440,0.416950,0.174544,0.965069,0.195386,0.485261,-1.275113,-0.448545,11.240851,40.069767,-20.572350,,,,,,
1478277280.60,2.294382,-1.319901,2.014860,1.980803,4.381617,1.980850,0.186064,0.968691,0.164374,0.599245,-0.661562,-0.317039,11.240851,40.069767,-20.572350,,,,,,
1478277280.62,2.159343,-1.288188,1.806910,0.579660,1.670731,2.710512,0.231943,0.960331,0.154811,-1.299097,1.719967,-1.359675,15.315519,37.950172,-21.917667,,,,,,
1478277280.64,2.021372,-1.275514,1.693917,1.720923,-2.772309,0.420099,0.261966,0.956720,0.126730,-1.340961,0.537573,-0.351874,19.551472,35.906132,-21.992138,,,,,,
1478277280.66,1.832140,-1.296157,1.541633,2.039161,-0.858502,-0.365761,0.261991,0.962523,0.070072,-1.340985,0.531770,-0.295216,18.867638,35.148941,-23.742975,,,,,,
1478277280.68,1.730410,-1.309856,1.429039,1.387762,0.628771,-0.348918,0.254710,0.966148,0.041004,-0.243922,-0.288002,0.037106,17.937044,33.818390,-26.262970,,,,,,
1478277280.71,1.631284,-1.318618,1.306351,1.486083,1.170123,-0.151170,0.249058,0.968371,0.015083,-0.039966,-0.215884,-0.120049,17.937044,33.818390,-26.262970,,,,,,
1478277280.73,1.567761,-1.319690,1.202780,1.097158,2.045832,0.058101,0.248475,0.968638,-0.000754,0.018295,-0.046260,-0.024209,18.497078,32.708687,-27.261044,,,,,,
1478277280.75,1.523066,-1.314702,1.109493,1.133310,2.005629,0.290762,0.253016,0.967387,-0.012086,-0.063456,-0.007426,-0.125533,19.302485,32.202015,-27.305843,,,,,,
1478277280.77,1.465736,-1.304251,1.023500,1.066188,0.680814,0.473625,0.261948,0.964687,-0.027622,-0.141953,-0.099941,-0.074093,21.259445,31.075783,-27.156881,,,,,,
1478277280.79,1.395215,-1.289700,0.948923,0.994309,-0.144373,0.616306,0.273144,0.960752,-0.048458,-0.253369,-0.161741,0.073849,21.259445,31.075783,-27.156881,,,,,,
,,,,,,,,,,,,,,,,37.352964,-122.034871,48.156311,1.120000,350.507812,1478280742.00
1478277280.81,1.343786,-1.271431,0.894081,0.837214,0.271554,0.723745,0.287347,0.955524,-0.066375,-0.438989,-0.031864,0.033218,22.354317,29.150482,-28.384830,,,,,,
1478277280.83,1.313617,-1.253815,0.847745,0.872885,0.873126,0.592498,0.301449,0.950181,-0.079282,-0.453091,-0.026520,0.046125,22.354317,29.150482,-28.384830,,,,,,
1478277280.85,1.284793,-1.237597,0.795535,1.028910,0.934744,0.496489,0.313782,0.945001,-0.092272,-0.375321,0.060782,-0.063123,23.527817,27.906290,-28.685280,,,,,,
1478277280.88,1.241931,-1.220735,0.732977,1.268171,0.677783,0.443071,0.324576,0.939352,-0.110764,-0.333090,0.066935,0.199387,24.199665,27.262371,-28.745501,,,,,,
1478277280.90,1.193357,-1.203107,0.667685,1.230696,0.473913,0.387584,0.334158,0.933160,-0.132476,-0.375083,0.028174,0.469787,25.242416,25.777000,-29.215258,,,,,,
1478277280.92,1.172090,-1.188854,0.643692,0.212336,-0.262912,0.528273,0.343489,0.927942,-0.144701,-0.523024,0.134436,0.537340,25.242416,25.777000,-29.215258,,,,,,
1478277280.94,1.191367,-1.180171,0.674736,-0.571485,-0.512903,0.588744,0.353686,0.924671,-0.141032,-0.788027,0.243862,0.173778,25.820057,24.514988,-29.791014,,,,,,
1478277280.96,1.212801,-1.178401,0.708453,-0.431386,-0.347029,0.046410,0.358159,0.923996,-0.133993,-0.938710,0.501541,-0.076075,25.820057,24.514988,-29.791014,,,,,,
1478277280.98,1.214179,-1.189458,0.711787,-0.234463,0.025563,-0.732152,0.348747,0.928168,-0.129924,-0.673409,0.602777,0.194332,25.623491,24.774109,-29.746338,,,,,,
1478277281.00,1.247911,-1.209694,0.750935,-1.563733,-0.299027,-0.575859,0.335048,0.935508,-0.112105,-0.200145,0.409249,0.752410,25.382782,25.104250,-29.675842,,,,,,
1478277281.02,1.369808,-1.232834,0.888436,-2.818986,-0.254659,-0.498247,0.324891,0.943432,-0.066193,-0.361909,0.223697,0.667023,24.680248,26.842363,-28.732166,,,,,,
1478277281.04,1.551785,-1.257859,1.084389,-3.132390,-0.274201,-1.078407,0.307799,0.951433,-0.005852,-0.688811,0.375746,0.289727,24.680248,26.842363,-28.732166,,,,,,
1478277281.07,1.756160,-1.275793,1.318932,-3.227399,-1.279920,-1.062811,0.285762,0.956801,0.053585,0.172077,0.722947,-0.144741,22.952499,31.707157,-24.960041,,,,,,
1478277281.09,1.947574,-1.275706,1.544621,-2.791234,-0.759944,-0.745129,0.270426,0.956776,0.107003,0.407110,0.783275,-0.250054,22.952499,31.707157,-24.960041,,,,,,
1478277281.11,2.156413,-1.264725,1.739901,-2.597724,2.295366,-0.844620,0.251107,0.953525,0.166541,0.426429,0.786527,-0.309592,21.263367,34.566666,-22.542833,,,,,,
1478277281.13,2.361810,-1.246743,1.897335,-2.004296,1.870679,-0.781433,0.223883,0.947953,0.226412,0.315683,0.337402,-1.056368,21.722635,36.770840,-18.198818,,,,,,
1478277281.15,2.443386,-1.228489,2.010085,-1.991128,-2.943787,-0.637196,0.215778,0.941983,0.257116,-0.184940,0.203602,-1.093969,21.458601,37.544849,-16.884230,,,,,,
1478277281.17,2.493820,-1.187512,2.137283,-3.013660,-2.849242,0.005463,0.225657,0.927441,0.298213,-0.411707,0.056171,0.080830,21.458601,37.544849,-16.884230,,,,,,
1478277281.19,2.529065,-1.140959,2.223787,-2.437340,-1.685653,-0.036008,0.239590,0.909034,0.340961,-0.521618,0.423318,-0.204533,18.731251,39.877716,-14.631212,,,,,,
1478277281.21,2.550020,-1.101914,2.291519,-2.330848,-2.328545,-0.169683,0.252004,0.892074,0.375097,-0.535390,0.388932,-0.669836,18.731251,39.877716,-14.631212,,,,,,
1478277281.24,2.552916,-1.064787,2.357586,-2.214721,-2.721124,-0.313444,0.269130,0.874686,0.403106,-0.329539,0.114237,-0.801025,17.747456,40.951164,-12.774769,,,,,,
1478277281.26,2.541491,-1.030571,2.420295,-2.138737,-3.281305,-0.304234,0.290455,0.857593,0.424465,-0.041661,-0.426593,-0.752147,16.271942,41.957657,-11.399268,,,,,,
1478277281.28,2.521152,-1.002505,2.477187,-1.696984,-3.135867,-0.451368,0.312902,0.842822,0.437886,-0.064107,-0.411822,-0.765568,15.461699,42.408291,-10.846077,,,,,,
1478277281.30,2.503003,-0.987596,2.518118,-0.835858,-1.961920,-0.387999,0.328251,0.834705,0.442176,-0.084965,-0.567279,-0.648337,15.461699,42.408291,-10.846077,,,,,,
1478277281.32,2.490892,-0.985493,2.533231,-0.037331,-0.781234,-0.195201,0.334644,0.833545,0.439564,-0.139118,-0.572741,-0.450352,13.958244,43.075150,-10.240292,,,,,,
1478277281.34,2.478841,-0.994958,2.531686,0.611472,-0.445752,-0.310425,0.335048,0.838736,0.429261,-0.220073,-0.413672,-0.573563,13.318074,43.222317,-10.470191,,,,,,
1478277281.36,2.462575,-1.017716,2.524852,1.139701,-0.519572,-0.651928,0.329910,0.850911,0.408791,-0.250732,-0.456654,-0.596215,13.020364,43.185543,-10.983792,,,,,,
1478277281.38,2.441430,-1.052011,2.510605,1.672376,-0.281371,-0.801947,0.319481,0.868422,0.379176,-0.176827,-0.580458,-0.450282,11.925654,42.992500,-12.829191,,,,,,
1478277281.41,2.416967,-1.094705,2.476555,2.219312,0.722767,-0.644510,0.303793,0.888793,0.343158,-0.131429,-0.562072,-0.197452,11.925654,42.992500,-12.829191,,,,,,
1478277281.43,2.394153,-1.136883,2.409513,2.436270,2.320616,-0.065576,0.285789,0.907327,0.308353,-0.025810,-0.283838,0.270398,11.105759,42.344070,-15.453361,,,,,,
1478277281.45,2.370273,-1.163002,2.327513,1.476929,2.029897,0.458065,0.276453,0.917998,0.284348,-0.287088,1.506547,1.267181,11.455214,41.763077,-16.726875,,,,,,
1478277281.47,2.341816,-1.159008,2.309417,-0.666949,-2.391170,0.117361,0.287059,0.916407,0.278920,-0.297694,1.508139,1.272609,12.951822,40.769005,-18.036171,,,,,,
1478277281.49,2.336852,-1.154330,2.368869,-0.903677,-2.306280,-1.000855,0.291526,0.914524,0.280461,-0.506598,1.512737,1.175701,12.376701,40.922832,-18.091537,,,,,,
1478277281.51,2.377833,-1.162535,2.437134,-0.589158,-0.427659,-1.147010,0.274591,0.917813,0.286740,-0.050623,-0.330517,0.389514,9.956961,41.733006,-17.730759,,,,,,
1478277281.53,2.420825,-1.164865,2.489757,-0.424573,-0.205568,-0.573768,0.260602,0.918735,0.296669,-0.087338,-0.768131,-0.187019,9.956961,41.733006,-17.730759,,,,,,
1478277281.55,2.420438,-1.175798,2.475629,1.197854,1.337565,0.147504,0.254070,0.922997,0.289007,-0.080806,-0.772393,-0.179357,8.759682,42.248100,-17.132734,,,,,,
1478277281.58,2.410572,-1.197717,2.394115,1.745851,4.132881,0.433388,0.243341,0.931209,0.271357,-0.234094,1.373768,-0.574656,8.947717,42.041557,-17.538828,,,,,,
1478277281.60,2.476810,-1.199037,2.387525,-0.999511,2.124297,-0.372458,0.224088,0.931690,0.285901,-0.331220,1.218396,-0.195996,11.409553,41.092293,-18.341484,,,,,,
1478277281.62,2.543084,-1.196350,2.456693,-0.068713,-0.421805,-1.050375,0.206072,0.930710,0.302180,0.070097,-0.493821,-0.816386,11.409553,41.092293,-18.341484,,,,,,
1478277281.64,2.522695,-1.230271,2.442204,2.145443,-0.198476,-0.409541,0.193756,0.942579,0.272035,0.444000,-1.444822,-0.934495,10.434744,41.558537,-17.865294,,,,,,
1478277281.66,2.414777,-1.266604,2.308859,2.755999,2.218092,1.117242,0.199031,0.954089,0.223832,0.684377,-1.061175,-0.159134,10.434744,41.558537,-17.865294,,,,,,
1478277281.68,2.291721,-1.282175,2.058232,2.917285,6.884168,2.239002,0.213814,0.958637,0.187879,0.150734,-0.046619,-0.211667,11.831423,39.798134,-20.767536,,,,,,
1478277281.70,2.203738,-1.268970,1.857508,0.959152,2.596022,1.788657,0.239682,0.954795,0.175838,-1.262112,1.414071,-1.377391,15.143252,38.361767,-21.312469,,,,,,
1478277281.72,2.084497,-1.271803,1.765305,1.684611,-2.939338,0.061363,0.256540,0.955633,0.144747,-0.812159,0.342310,-0.211596,19.423050,36.387909,-21.303286,,,,,,
1478277281.74,1.919246,-1.292017,1.639426,1.764351,-1.231119,-0.148340,0.258644,0.961392,0.093958,-0.814263,0.336551,-0.160807,19.423050,36.387909,-21.303286,,,,,,
1478277281.77,1.808187,-1.304760,1.525615,1.538779,0.458094,-0.212381,0.255536,0.964821,0.061828,-0.230695,-0.194145,0.100160,17.535809,34.517879,-25.615929,,,,,,
,,,,,,,,,,,,,,,,37.352976,-122.034868,47.968872,1.120000,348.750000,1478280743.00
