timestamp(unix),attitude_roll(radians),attitude_pitch(radians),attitude_yaw(radians),rotation_rate_x(radians/s),rotation_rate_y(radians/s),rotation_rate_z(radians/s),gravity_x(G),gravity_y(G),gravity_z(G),user_acc_x(G),user_acc_y(G),user_acc_z(G),magnetic_field_x(microteslas),magnetic_field_y(microteslas),magnetic_field_z(microteslas),latitude(degree),longitude(degree),altitude(meter),speed(m/s),course(degree),timestamp(unix)
1478277294.94,-0.099165,0.147822,-0.157771,0.060563,0.199870,-0.455822,-0.097923,-0.147284,-0.984235,0.012642,0.029257,-0.096347,3.443470,-25.970224,-35.742298,,,,,,
1478277294.98,-0.083828,0.157625,-0.161968,0.253759,-0.024945,0.017974,-0.082692,-0.156973,-0.984135,-0.001399,0.033865,0.143925,4.252793,-26.123852,-35.542652,,,,,,
1478277294.96,-0.087815,0.153412,-0.162038,0.281394,0.496844,-0.111455,-0.086672,-0.152811,-0.984447,0.024370,0.047250,0.012981,3.934430,-25.974180,-35.688713,,,,,,
,,,,,,,,,,,,,,,,37.353016,-122.034881,49.521362,0.300000,354.375000,1478280756.24
1478277295.00,-0.088746,0.161451,-0.162649,0.094218,-0.336635,-0.126493,-0.087477,-0.160751,-0.983111,-0.072298,0.056197,0.267214,4.219944,-26.337263,-35.388729,,,,,,
1478277295.02,-0.095709,0.158216,-0.166701,-0.372144,-0.350635,-0.107886,-0.094369,-0.157557,-0.982991,-0.061881,0.107523,0.358799,4.089429,-26.327564,-35.411266,,,,,,
1478277295.04,-0.117208,0.145141,-0.161706,-0.591692,-1.518095,0.559477,-0.115710,-0.144632,-0.982697,0.124804,0.057733,0.031860,4.089429,-26.327564,-35.411266,,,,,,
,,,,,,,,,,,,,,,,37.353016,-122.034881,49.521362,0.300000,354.375000,1478280753.00
1478277295.06,-0.148772,0.136516,-0.147001,-0.051446,-1.133163,0.743353,-0.146844,-0.136092,-0.979753,-0.129736,-0.064469,-0.349959,3.097203,-25.786667,-35.906506,,,,,,
1478277295.08,-0.179915,0.145658,-0.128452,0.929658,-1.689124,0.870462,-0.177051,-0.145143,-0.973441,-0.099530,-0.055418,-0.356271,1.001929,-25.717468,-36.075333,,,,,,
1478277295.11,-0.222278,0.168984,-0.102891,1.410732,-1.736950,0.869091,-0.217312,-0.168181,-0.961504,0.068661,0.067748,-0.109159,-0.302284,-26.248926,-35.703281,,,,,,
,,,,,,,,,,,,,,,,37.353016,-122.034881,49.521362,0.300000,354.375000,1478280756.27
,,,,,,,,,,,,,,,,37.353016,-122.034881,49.521362,0.300000,354.375000,1478280756.27
1478277295.13,-0.262287,0.189263,-0.089114,0.838553,-1.677348,0.162346,-0.254660,-0.188135,-0.948553,0.151693,0.048029,0.260672,-2.917283,-27.633404,-34.521099,,,,,,
1478277295.15,-0.296990,0.200764,-0.076797,0.660046,-1.596001,0.635743,-0.286766,-0.199418,-0.937015,0.100975,-0.022521,-0.041760,-2.917283,-27.633404,-34.521099,,,,,,
1478277295.17,-0.334962,0.207548,-0.056526,0.590314,-1.600483,0.805039,-0.321678,-0.206061,-0.924155,0.135887,-0.015878,-0.054620,-4.986905,-28.335072,-33.705734,,,,,,
1478277295.19,-0.378760,0.214758,-0.030791,0.758752,-1.929301,1.298131,-0.361275,-0.213111,-0.907780,0.176064,0.125311,0.036213,-6.199153,-28.574877,-33.299683,,,,,,
1478277295.21,-0.452369,0.203106,0.015522,0.085584,-3.811117,2.432318,-0.428113,-0.201713,-0.880926,0.414136,0.283530,0.288260,-9.501644,-28.946606,-32.181278,,,,,,
1478277295.23,-0.546408,0.187546,0.051590,0.325726,-4.188501,1.678157,-0.510510,-0.186449,-0.839414,0.396374,0.493288,0.319929,-12.462741,-28.597794,-31.474880,,,,,,
1478277295.25,-0.654635,0.167367,0.092508,0.224225,-4.904496,2.394450,-0.600362,-0.166587,-0.782186,0.484258,0.328223,0.072728,-18.402092,-27.928364,-29.072174,,,,,,
1478277295.28,-0.747043,0.134585,0.137578,0.194848,-3.300332,2.680448,-0.673328,-0.134179,-0.727066,0.234668,0.365487,-0.072754,-18.402092,-27.928364,-29.072174,,,,,,
1478277295.30,-0.811426,0.099504,0.186424,0.634364,-2.715589,2.879752,-0.721682,-0.099340,-0.685059,0.180270,0.380636,-0.390975,-24.161224,-26.333357,-26.203274,,,,,,
1478277295.32,-0.871931,0.065858,0.246276,1.231605,-2.442594,3.144063,-0.763913,-0.065810,-0.641955,0.091900,0.301787,-0.255674,-26.421764,-25.400749,-24.910122,,,,,,
1478277295.34,-0.919841,0.028461,0.309844,1.236537,-1.975547,3.291883,-0.795183,-0.028457,-0.605701,0.012331,0.216278,-0.188122,-30.691853,-23.388412,-21.790228,,,,,,
1478277295.36,-0.967279,-0.012633,0.375026,1.496212,-2.494608,3.382585,-0.823279,0.012633,-0.567496,0.040427,0.175188,-0.226327,-30.691853,-23.388412,-21.790228,,,,,,
1478277295.38,-1.036442,-0.047840,0.445926,2.161609,-3.861537,3.041874,-0.859613,0.047822,-0.508703,-0.249106,0.057464,-0.236704,-36.349274,-19.448635,-16.257393,,,,,,
1478277295.40,-1.117064,-0.077434,0.517361,2.291664,-3.879511,2.721816,-0.896124,0.077356,-0.437010,-0.306406,-0.011972,0.032453,-36.349274,-19.448635,-16.257393,,,,,,
1478277295.42,-1.184043,-0.106636,0.580878,2.061246,-3.164047,2.317170,-0.920878,0.106434,-0.375041,-0.384099,-0.089802,0.158961,-39.648918,-16.977793,-10.175442,,,,,,
1478277295.45,-1.243134,-0.135225,0.638171,2.064282,-3.278983,2.121125,-0.938154,0.134813,-0.318892,-0.438128,-0.194429,0.169753,-40.748802,-15.728585,-7.481194,,,,,,
1478277295.47,-1.334333,-0.160111,0.697302,2.318316,-5.610510,1.799731,-0.959738,0.159428,-0.231270,-0.380350,-0.253865,0.062080,-42.244205,-13.244080,-1.960447,,,,,,
1478277295.49,-1.470944,-0.183859,0.742520,1.565775,-7.573446,1.154691,-0.978248,0.182825,-0.098006,-0.248406,-0.156870,0.256728,-42.244205,-13.244080,-1.960447,,,,,,
1478277295.51,-1.638995,-0.195151,0.769970,1.136374,-8.195022,0.221092,-0.978738,0.193914,0.066852,-0.039893,0.039148,0.441098,-41.091820,-10.307665,13.001404,,,,,,
1478277295.53,-1.780775,-0.196708,0.794604,1.173811,-5.669908,-0.084322,-0.959174,0.195441,0.204420,-0.059457,0.037621,0.303530,-41.091820,-10.307665,13.001404,,,,,,
1478277295.55,-1.808338,-0.210872,0.814904,0.401388,1.717094,0.980119,-0.950390,0.209312,0.230102,0.246060,-0.246483,1.014771,-37.363865,-9.672732,21.776167,,,,,,
1478277295.57,-1.764911,-0.233226,0.791083,-1.073914,2.015445,1.193479,-0.954653,0.231118,0.187675,-0.265470,0.047050,0.182671,-38.262646,-8.467276,20.690500,,,,,,
1478277295.59,-1.720406,-0.250344,0.765424,-0.794894,2.276545,0.814156,-0.958005,0.247737,0.144406,-0.009692,0.116017,-0.130017,-39.132885,-8.108873,19.149033,,,,,,
1478277295.61,-1.680961,-0.270731,0.755884,-0.110267,1.863361,1.122129,-0.957735,0.267436,0.105938,0.017137,0.135396,-0.050350,-39.132885,-8.108873,19.149033,,,,,,
1478277295.64,-1.642002,-0.291909,0.755738,0.303518,1.839486,0.793870,-0.955269,0.287781,0.068136,-0.247566,0.090545,-0.129659,-41.135857,-6.487208,15.151864,,,,,,
1478277295.66,-1.608255,-0.306185,0.767649,0.726069,1.210658,0.730953,-0.952822,0.301423,0.035708,0.065996,0.070876,-0.014987,-41.135857,-6.487208,15.151864,,,,,,
1478277295.68,-1.577266,-0.326979,0.807101,2.573973,0.868660,1.111461,-0.946997,0.321183,0.006127,0.190634,0.177077,-0.586876,-41.912254,-5.294776,13.384692,,,,,,
1478277295.70,-1.553385,-0.349551,0.880588,3.583077,-0.247140,1.016027,-0.939384,0.342476,-0.016358,0.275550,0.074516,-0.519531,-42.235283,-2.811035,13.118727,,,,,,
1478277295.72,-1.571823,-0.366936,0.937325,0.652725,-3.595135,0.691712,-0.933430,0.358757,0.000958,0.196751,-0.074913,0.080997,-42.158218,-1.392334,13.585568,,,,,,
1478277295.74,-1.660619,-0.376056,0.909957,-1.419181,-2.680369,0.522019,-0.926371,0.367255,0.083434,0.010797,-0.253318,0.929567,-42.158218,-1.392334,13.585568,,,,,,
1478277295.76,-1.674510,-0.390803,0.895732,-0.045124,0.311599,0.948245,-0.919635,0.380931,0.095722,0.335056,-0.113017,0.026028,-40.425354,-0.831678,18.136173,,,,,,
1478277295.78,-1.679128,-0.420309,0.895768,0.147472,-0.573931,1.717592,-0.907611,0.408043,0.098709,0.625445,-0.155876,-0.029251,-40.286865,0.124151,18.460083,,,,,,
1478277295.81,-1.701671,-0.466565,0.893770,0.185887,-1.134406,2.418493,-0.885481,0.449821,0.116553,0.603315,-0.197654,-0.047095,-40.095505,1.262394,18.830254,,,,,,
1478277295.83,-1.717441,-0.529785,0.887350,0.146836,-0.078954,3.287822,-0.853654,0.505348,0.126089,0.373201,-0.089225,0.197184,-39.277428,4.614897,19.995209,,,,,,
1478277295.85,-1.699232,-0.608510,0.881025,0.394803,1.584969,3.713103,-0.813743,0.571645,0.105092,0.037833,-0.059072,-0.031804,-39.081127,6.873603,19.729185,,,,,,
1478277295.87,-1.633554,-0.678676,0.889451,0.437163,2.856097,3.012273,-0.776872,0.627763,0.048819,-0.284224,-0.103624,0.132913,-39.081127,6.873603,19.729185,,,,,,
1478277295.89,-1.595801,-0.745308,0.887748,0.222222,1.021974,3.132871,-0.734649,0.678198,0.018373,0.011718,-0.174048,-0.002046,-39.453400,11.462284,16.609253,,,,,,
1478277295.91,-1.583055,-0.810042,0.900994,0.119012,-0.029700,3.155216,-0.689416,0.724316,0.008452,-0.162864,-0.359646,-0.021483,-38.804794,15.442312,14.817039,,,,,,
1478277295.93,-1.577387,-0.870090,0.899825,0.208464,0.424231,2.598327,-0.644744,0.764387,0.004249,-0.321534,-0.068845,0.100487,-37.999901,17.388699,14.746614,,,,,,
1478277295.95,-1.569266,-0.938619,0.897339,-0.072700,0.111335,2.945540,-0.590902,0.806743,-0.000904,-0.283427,0.303166,-0.119000,-36.368633,20.971554,14.189374,,,,,,
1478277295.98,-1.553992,-0.978266,0.912795,0.627557,0.333873,1.852015,-0.558383,0.829530,-0.009384,0.132205,0.135848,0.106552,-36.368633,20.971554,14.189374,,,,,,
1478277296.00,-1.515466,-1.015495,0.952125,1.157610,0.129485,1.506110,-0.526393,0.849742,-0.029155,0.100215,0.115636,0.126323,-34.977764,23.489700,13.733602,,,,,,
1478277296.02,-1.459211,-1.035349,1.010466,1.237749,0.534863,0.781850,-0.507053,0.860040,-0.056816,-0.155316,0.274374,0.084236,-34.364292,24.658331,13.224374,,,,,,
1478277296.04,-1.409618,-1.042117,1.033767,0.173615,1.146791,0.239836,-0.497856,0.863474,-0.080946,-0.069176,0.228155,0.108839,-33.928650,26.059681,11.556888,,,,,,
1478277296.06,-1.399266,-1.046446,1.036710,-0.035290,0.076180,0.263203,-0.493304,0.865649,-0.085456,-0.215894,0.242307,0.096900,-33.928650,26.059681,11.556888,,,,,,
1478277296.08,-1.399415,-1.053625,1.041944,0.449207,-0.464112,0.524394,-0.487181,0.869221,-0.084321,-0.014605,-0.068821,-0.296172,-33.827896,26.501635,10.823984,,,,,,
1478277296.10,-1.411465,-1.063318,1.032332,-0.638931,-0.666355,0.481586,-0.479819,0.873973,-0.077104,-0.040323,0.140569,-0.139464,-33.827896,26.501635,10.823984,,,,,,
1478277296.12,-1.429520,-1.076658,1.016043,-0.197153,-0.035894,0.512976,-0.469548,0.880378,-0.066781,-0.106655,0.027184,0.118249,-33.340092,26.910595,11.317244,,,,,,
1478277296.15,-1.426885,-1.086108,1.017003,0.016847,0.221389,0.414762,-0.461116,0.884820,-0.066822,-0.070851,-0.095300,0.087757,-33.085102,27.137474,11.521952,,,,,,
1478277296.17,-1.409330,-1.098435,1.027078,0.161141,0.435299,0.747966,-0.449072,0.890496,-0.073147,-0.082895,-0.100976,0.094082,-32.744480,27.627230,11.329472,,,,,,
1478277296.19,-1.391620,-1.116025,1.042290,0.158078,0.060604,0.912456,-0.432224,0.898362,-0.078284,-0.054867,-0.109940,0.032904,-32.744480,27.627230,11.329472,,,,,,
1478277296.21,-1.377526,-1.135573,1.053533,0.009486,0.210872,0.954596,-0.413763,0.906776,-0.080979,-0.021799,-0.029380,0.041809,-31.710905,29.021038,10.771240,,,,,,
1478277296.23,-1.363084,-1.156020,1.064921,0.066171,0.166797,1.009605,-0.394324,0.915206,-0.083104,-0.060922,-0.034683,-0.027949,-31.710905,29.021038,10.771240,,,,,,
1478277296.25,-1.341257,-1.177714,1.081934,0.090376,0.375218,1.122760,-0.372991,0.923733,-0.087152,-0.082255,-0.043209,-0.023901,-30.849224,30.015055,10.547213,,,,,,
1478277296.27,-1.312748,-1.201611,1.104338,0.103586,0.371095,1.198023,-0.348907,0.932622,-0.092088,-0.042984,-0.000279,0.051469,-29.858669,31.143005,10.119034,,,,,,
1478277296.29,-1.287754,-1.210094,1.122944,0.261877,0.311052,-0.005758,-0.338889,0.935649,-0.098566,-0.093118,0.220677,0.058939,-29.446138,31.608969,9.880278,,,,,,
1478277296.31,-1.267440,-1.208222,1.138099,0.298752,0.382775,0.110014,-0.338488,0.934987,-0.105952,-0.032392,-0.127156,0.029475,-29.446138,31.608969,9.880278,,,,,,
1478277296.34,-1.235539,-1.211596,1.161256,0.331911,0.465869,0.350558,-0.331954,0.936178,-0.115656,-0.053910,-0.095953,0.048472,-29.454351,31.879787,8.941048,,,,,,
1478277296.36,-1.196610,-1.218923,1.193851,0.370702,0.373493,0.612279,-0.320808,0.938729,-0.125977,-0.003319,-0.108880,0.010102,-29.454351,31.879787,8.941048,,,,,,
1478277296.38,-1.162019,-1.231699,1.224890,0.166811,0.259683,0.773802,-0.305229,0.943055,-0.132219,0.020912,-0.114015,0.040986,-29.036209,32.456245,8.204416,,,,,,
1478277296.40,-1.116339,-1.247101,1.263889,0.291947,0.468294,0.992858,-0.285788,0.948066,-0.139626,-0.008325,-0.146568,0.062126,-28.255459,33.259762,7.696687,,,,,,
1478277296.42,-1.061356,-1.263524,1.309813,0.202068,0.408109,1.006549,-0.264053,0.953162,-0.147506,0.086608,-0.199409,-0.020829,-27.791782,33.736259,7.300915,,,,,,
1478277296.44,-1.020769,-1.285165,1.355849,-0.131493,-0.515129,1.342605,-0.240206,0.959484,-0.147281,0.062762,-0.205730,-0.021054,-27.791782,33.736259,7.300915,,,,,,
1478277296.46,-1.007896,-1.315945,1.392407,-0.495578,-1.326202,1.541770,-0.213205,0.967701,-0.134532,0.182321,-0.255512,-0.036718,-26.568027,34.737282,7.161209,,,,,,
1478277296.48,-0.966691,-1.351779,1.458212,-0.098847,-0.610704,1.946625,-0.178816,0.976111,-0.123415,0.117125,-0.182197,0.171679,-24.532164,35.901230,8.549658,,,,,,
1478277296.51,-0.838816,-1.386365,1.590720,-0.076301,-0.058012,2.117374,-0.136413,0.983041,-0.122566,0.037094,-0.163308,0.067634,-23.326218,36.622997,8.858084,,,,,,
1478277296.53,-0.608736,-1.421016,1.824113,0.026286,0.052871,2.726323,-0.085329,0.988804,-0.122416,0.085436,-0.263584,-0.044088,-20.690535,38.162079,8.909513,,,,,,
,,,,,,,,,,,,,,,,37.353014,-122.034889,49.277649,0.200000,354.375000,1478280757.23
1478277296.55,-0.087539,-1.447482,2.360878,-0.009817,-1.080872,4.117424,-0.010754,0.992406,-0.122531,0.018215,-0.201437,-0.066190,-18.792557,39.130695,8.913496,,,,,,
1478277296.57,0.545907,-1.420849,3.039975,0.457142,-2.243328,4.503846,0.077560,0.988779,-0.127674,-0.058746,-0.329706,-0.220577,-18.792557,39.130695,8.913496,,,,,,
1478277296.59,0.814134,-1.348642,-2.913074,0.837251,-2.773934,4.215713,0.160210,0.975425,-0.151257,-0.168572,-0.339988,-0.032459,-12.844835,41.331741,9.514151,,,,,,
1478277296.61,0.908162,-1.280782,-2.759765,0.545468,-2.239415,3.162839,0.225448,0.958240,-0.175925,-0.233810,-0.322803,-0.007791,-6.409724,42.859852,9.261221,,,,,,
1478277296.63,0.966229,-1.236018,-2.676690,0.247060,-0.297940,1.989981,0.270322,0.944483,-0.186755,-0.283429,-0.250651,0.115665,-3.923822,43.198597,9.072291,,,,,,
1478277296.65,0.976387,-1.201832,-2.664958,1.102708,-0.165783,1.152338,0.298791,0.932701,-0.201971,-0.204354,-0.161736,-0.189829,-1.200685,43.474701,8.504731,,,,,,
1478277296.68,0.910240,-1.166361,-2.720963,2.157760,-1.042071,0.597384,0.310727,0.919325,-0.241434,-0.113660,0.100298,-0.237387,-1.200685,43.474701,8.504731,,,,,,
1478277296.70,0.861673,-1.120407,-2.734083,0.637486,-1.493075,1.816215,0.330375,0.900278,-0.283464,0.730416,4.847739,0.655641,0.110837,43.894714,6.088001,,,,,,
1478277296.72,0.869527,-1.123833,-2.709243,-0.571687,-0.315030,-0.314844,0.330233,0.901764,-0.278869,-0.382723,-0.594238,0.395400,1.517303,43.992683,5.115015,,,,,,
1478277296.74,0.857889,-1.122850,-2.726343,0.684746,0.377620,-0.093433,0.327636,0.901338,-0.283273,0.009217,-0.394014,0.107309,1.661766,43.933865,5.556604,,,,,,
1478277296.76,0.849069,-1.112857,-2.742196,0.337232,0.112042,0.270549,0.331870,0.896966,-0.292088,0.023569,-0.169152,0.218937,1.575578,43.990456,5.116534,,,,,,
,,,,,,,,,,,,,,,,37.353011,-122.034890,49.262939,0.170000,354.375000,1478280758.00
1478277296.78,0.851681,-1.106159,-2.735688,0.096024,-0.236957,0.356378,0.337144,0.893984,-0.295171,-0.060792,-0.071795,0.089620,1.923471,44.024094,4.690557,,,,,,
1478277296.80,0.851178,-1.096025,-2.734740,0.389105,0.065367,0.359654,0.343792,0.889397,-0.301297,-0.067440,-0.067208,0.095746,1.923471,44.024094,4.690557,,,,,,
1478277296.82,0.853962,-1.084932,-2.737596,0.344478,0.353540,0.321574,0.352046,0.884272,-0.306802,-0.126750,-0.085199,0.245965,2.450958,44.039246,4.284817,,,,,,
1478277296.84,0.860976,-1.076775,-2.738892,0.265244,0.337297,0.257921,0.359648,0.880433,-0.309016,-0.206893,0.003310,0.344248,2.673969,44.050224,4.031060,,,,,,
1478277296.87,0.875588,-1.076044,-2.735888,-0.455794,0.830880,-0.127162,0.364619,0.880086,-0.304140,-0.169002,0.461924,0.413316,2.980776,44.059521,3.700727,,,,,,
1478277296.89,0.889818,-1.078820,-2.722245,-0.062339,-0.276959,0.067860,0.367010,0.881401,-0.297381,-0.171392,0.460609,0.406558,2.903104,44.038612,3.999302,,,,,,
1478277296.91,0.893490,-1.081830,-2.727401,-0.174313,0.810397,-0.327209,0.366030,0.882819,-0.294368,-0.609851,0.418634,0.607066,2.882543,44.027420,4.135096,,,,,,
1478277296.93,0.904135,-1.096562,-2.731654,-0.430889,0.454858,-0.763733,0.358883,0.889642,-0.282382,-0.365795,0.628577,0.288485,2.882543,44.027420,4.135096,,,,,,
1478277296.95,0.910132,-1.123737,-2.729900,-1.044866,0.167779,-1.089314,0.341350,0.901722,-0.265287,-0.240565,0.533092,0.365430,1.952995,44.022396,4.694274,,,,,,
1478277296.97,0.928716,-1.158382,-2.717294,-1.258789,0.415660,-1.153587,0.321000,0.916156,-0.240038,-0.034989,0.198102,0.382509,1.220875,43.976295,5.330738,,,,,,
1478277296.99,0.968978,-1.194585,-2.680032,-1.767108,0.096622,-0.844117,0.302850,0.930063,-0.208000,0.126273,0.110128,0.408669,-0.424238,43.741688,7.092722,,,,,,
1478277297.01,1.054312,-1.230093,-2.582755,-2.537694,-0.439493,-0.456175,0.290564,0.942520,-0.165012,0.166101,0.167939,0.445759,-0.424238,43.741688,7.092722,,,,,,
1478277297.04,1.199156,-1.265204,-2.428704,-2.779647,0.400059,-0.570608,0.280319,0.953669,-0.109255,0.140167,0.313299,0.360857,-1.608280,42.667980,11.860816,,,,,,
1478277297.06,1.367178,-1.293010,-2.279965,-1.986620,1.501550,-0.683021,0.268562,0.961665,-0.055453,0.128945,0.316076,-0.214567,-1.608280,42.667980,11.860816,,,,,,
1478277297.08,1.528583,-1.311832,-2.138792,-2.016440,0.686320,-0.616726,0.255852,0.966656,-0.010807,0.141655,0.311085,-0.259213,-2.986865,41.639885,14.866757,,,,,,
1478277297.10,1.709807,-1.321929,-1.954790,-2.026060,0.178389,-0.594248,0.243931,0.969192,0.034129,0.063381,0.268174,-0.424327,-4.093886,40.525490,17.457001,,,,,,
1478277297.12,1.862957,-1.328460,-1.806508,-1.358512,0.616562,-0.707603,0.229802,0.970780,0.069117,0.141688,0.325775,-0.105753,-4.573515,39.953506,18.617790,,,,,,
1478277297.14,1.996929,-1.337073,-1.685260,-1.077279,0.648058,-0.904949,0.210889,0.972811,0.095733,0.137683,0.242369,-0.070968,-4.573515,39.953506,18.617790,,,,,,
1478277297.16,2.135838,-1.338860,-1.535629,-1.642809,-1.017463,-0.846836,0.194134,0.973223,0.123080,0.136662,0.170789,-0.258944,-6.499753,38.557251,20.854580,,,,,,
1478277297.18,2.284550,-1.328538,-1.352720,-1.895805,-1.159454,-0.794916,0.181339,0.970799,0.157054,0.019710,-0.007267,-0.159480,-6.499753,38.557251,20.854580,,,,,,
1478277297.21,2.405496,-1.315659,-1.207098,-1.535689,-1.051496,-0.700030,0.169447,0.967629,0.187036,0.066454,-0.112419,-0.300348,-6.610291,37.089981,23.333649,,,,,,
1478277297.23,2.494959,-1.299418,-1.086737,-1.530794,-1.331340,-0.612498,0.161507,0.963402,0.213943,0.091652,-0.189507,-0.399963,-6.569438,35.736298,25.368904,,,,,,
1478277297.25,2.563584,-1.281279,-0.985082,-1.385128,-1.378009,-0.586893,0.155979,0.958382,0.239112,0.097179,-0.184487,-0.425132,-6.353642,35.051670,26.359695,,,,,,
1478277297.27,2.610322,-1.267280,-0.903504,-1.011600,-1.559490,-0.611538,0.151420,0.954291,0.257682,0.114052,-0.255668,-0.464270,-6.353642,35.051670,26.359695,,,,,,
1478277297.29,2.633530,-1.260364,-0.845750,-0.482220,-1.409789,-0.513937,0.148607,0.952202,0.266886,0.090102,-0.464866,-0.291025,-5.762607,33.862480,27.999048,,,,,,
1478277297.31,2.638086,-1.260878,-0.812081,-0.076917,-1.206450,-0.407775,0.147153,0.952358,0.267132,0.049533,-0.548580,-0.224987,-5.005806,33.263546,28.849619,,,,,,
1478277297.33,2.635260,-1.266757,-0.794324,0.251382,-0.734323,-0.311598,0.145190,0.954135,0.261813,0.043562,-0.622226,-0.203540,-4.667407,33.195129,28.984835,,,,,,
1478277297.35,2.623607,-1.278288,-0.796243,0.631701,-0.332588,-0.205290,0.142774,0.957524,0.250528,-0.010159,-0.658024,-0.244394,-4.351213,33.428093,28.765457,,,,,,
1478277297.38,2.593394,-1.295382,-0.822106,1.014661,-0.236978,-0.064564,0.141725,0.962313,0.232096,-0.049455,-0.589571,-0.232172,-4.309983,33.745098,28.399197,,,,,,
1478277297.40,2.535766,-1.315751,-0.877894,1.240074,-0.132646,0.137350,0.143664,0.967652,0.207390,-0.021197,-0.414460,-0.017097,-4.309983,33.745098,28.399197,,,,,,
1478277297.42,2.459348,-1.332397,-0.955530,1.037598,-0.034656,0.263825,0.148900,0.971717,0.183288,0.001994,-0.020255,0.388199,-4.122847,34.727974,27.217491,,,,,,
1478277297.44,2.408144,-1.338604,-1.000603,0.202359,-0.574506,0.096481,0.154045,0.973164,0.170943,-0.167564,0.624782,0.955278,-3.766774,35.632462,26.076061,,,,,,
1478277297.46,2.433758,-1.334689,-0.956825,-0.774605,-0.849008,-0.480851,0.152092,0.972256,0.177725,-0.538475,1.304874,1.417077,-3.479178,35.717670,25.999331,,,,,,
1478277297.48,2.509206,-1.328617,-0.857839,-0.903374,-1.046355,-0.762180,0.141750,0.970818,0.193442,-0.118786,0.015190,0.336816,-3.281507,35.035145,26.936821,,,,,,
1478277297.50,2.582072,-1.325748,-0.760474,-0.610873,-0.868143,-0.831494,0.128769,0.970125,0.205609,-0.069855,-0.585482,0.042896,-3.281507,35.035145,26.936821,,,,,,
1478277297.52,2.614615,-1.326172,-0.712155,0.026574,-0.486055,-0.228826,0.121804,0.970228,0.209334,-0.062890,-0.585585,0.039171,-3.317894,34.321865,27.835644,,,,,,
1478277297.54,2.571093,-1.339127,-0.759711,1.227230,0.533997,0.281796,0.123997,0.973284,0.193241,0.046352,0.512326,-0.287189,-3.249454,34.215317,27.974545,,,,,,
1478277297.57,2.539780,-1.362062,-0.831191,1.102860,2.482522,-0.355725,0.117316,0.978294,0.170815,-0.175559,1.078591,-0.173333,-3.519303,35.104630,26.816067,,,,,,
1478277297.59,2.651436,-1.372538,-0.764606,-0.510643,1.823036,-0.838161,0.092723,0.980411,0.173771,0.246114,0.268460,0.380550,-4.715646,35.526821,26.065866,,,,,,
1478277297.61,2.733463,-1.371190,-0.696822,0.054340,0.002770,-0.304364,0.078697,0.980145,0.181997,0.808784,-0.830181,-0.405477,-6.813534,35.147774,26.115738,,,,,,
1478277297.63,2.665768,-1.384265,-0.746681,1.148676,-1.160256,0.377485,0.084950,0.982653,0.164850,0.857372,-1.280307,-0.387476,-6.813534,35.147774,26.115738,,,,,,
1478277297.65,2.437538,-1.404258,-0.969743,2.183049,0.404141,1.370487,0.107305,0.986165,0.126353,0.788707,-0.884892,-0.196422,-0.465996,33.555847,25.544781,,,,,,
1478277297.67,2.106017,-1.418111,-1.348862,2.602660,2.685184,1.191762,0.130824,0.988366,0.077572,-0.645838,1.086142,-0.541516,0.225284,34.327503,24.501421,,,,,,
1478277297.69,1.869996,-1.415342,-1.633715,1.281523,1.471093,0.653930,0.147950,0.987941,0.045637,-0.662965,1.086567,-0.509580,0.026611,36.122204,21.770016,,,,,,
1478277297.71,1.766067,-1.420288,-1.749173,0.789840,0.035631,-0.214550,0.147091,0.988695,0.029093,-0.840832,0.711546,-0.311747,0.026611,36.122204,21.770016,,,,,,
1478277297.74,1.621466,-1.421568,-1.884039,1.075391,-0.900200,0.205104,0.148484,0.988886,0.007530,0.136718,-0.134135,-0.125862,-0.162147,37.127811,20.006184,,,,,,
1478277297.76,1.439173,-1.413762,-2.041986,1.115412,-1.243566,0.379271,0.155037,0.987695,-0.020525,0.031121,-0.015939,0.058977,-0.162147,37.127811,20.006184,,,,,,
1478277297.78,1.322568,-1.402310,-2.143606,0.751668,-0.335303,0.381726,0.162550,0.985840,-0.041199,0.085908,-0.070648,0.110840,0.923392,37.809345,18.664103,,,,,,
,,,,,,,,,,,,,,,,37.353010,-122.034896,49.754028,0.200000,354.375000,1478280759.00
1478277297.80,1.244496,-1.388789,-2.235208,1.050369,1.062460,0.387630,0.171453,0.983482,-0.058019,0.220927,-0.128731,-0.022685,1.470630,38.275166,17.652107,,,,,,
1478277297.82,1.168033,-1.371362,-2.336542,1.091063,0.831618,0.548433,0.182262,0.980179,-0.077653,0.265553,-0.112824,-0.051177,1.382733,38.574421,16.995588,,,,,,
1478277297.84,1.120285,-1.349594,-2.392189,0.876598,0.151438,0.801449,0.197512,0.975634,-0.095534,0.151258,-0.096637,-0.009462,1.382733,38.574421,16.995588,,,,,,
1478277297.86,1.085572,-1.324240,-2.434114,0.990715,0.416637,0.863248,0.215893,0.969759,-0.113834,-0.235821,-0.087435,-0.065655,1.897876,39.058613,15.797804,,,,,,
1478277297.88,1.057249,-1.298961,-2.476917,1.047128,0.698818,0.748691,0.233865,0.963280,-0.131906,-0.253793,-0.080955,-0.047583,2.778614,39.463558,14.616945,,,,,,
1478277297.91,1.028610,-1.275186,-2.523300,1.139518,0.746315,0.629044,0.249543,0.956625,-0.150326,-0.299393,-0.109075,-0.077686,3.089649,39.666515,13.991771,,,,,,
1478277297.93,0.995733,-1.250206,-2.570519,1.220264,0.447160,0.660000,0.264441,0.949050,-0.171393,-0.162970,-0.070601,0.083823,3.611385,40.084084,12.608418,,,,,,
1478277297.95,0.963578,-1.223754,-2.613269,1.249267,0.415651,0.652739,0.279318,0.940383,-0.194066,-0.126608,0.094255,0.303884,3.959850,40.283619,11.844728,,,,,,
1478277297.97,0.936780,-1.198623,-2.654418,1.220679,0.625703,0.523561,0.292969,0.931539,-0.215415,-0.140259,0.103098,0.325233,3.959850,40.283619,11.844728,,,,,,
1478277297.99,0.927878,-1.176675,-2.678483,0.726753,0.582054,0.667834,0.307332,0.923334,-0.230219,-0.038457,0.000448,0.636179,4.555022,40.641251,10.309629,,,,,,
1478277298.01,0.942527,-1.158313,-2.669598,0.208499,0.089770,0.836154,0.324335,0.916128,-0.235619,-0.461816,0.126184,0.285103,5.204288,40.794823,9.351257,,,,,,
1478277298.03,0.946944,-1.145056,-2.654709,0.148841,-0.733893,0.505949,0.335201,0.910733,-0.241258,-0.829631,0.322345,-0.000289,5.726482,40.755531,9.216397,,,,,,
1478277298.05,0.932705,-1.142877,-2.655976,-0.019573,-0.394421,-0.154116,0.333325,0.909831,-0.247187,-0.971615,0.388951,0.257441,6.405090,40.716740,8.937009,,,,,,
1478277298.08,0.926085,-1.152360,-2.660793,-0.269993,-0.023482,-0.558720,0.324770,0.913726,-0.244192,-0.611117,0.414949,0.302130,6.272140,40.728951,8.975566,,,,,,
1478277298.10,0.926876,-1.168861,-2.659842,-0.642710,-0.002127,-0.651607,0.312862,0.920306,-0.234851,-0.117427,0.475782,0.462833,6.272140,40.728951,8.975566,,,,,,
1478277298.12,0.950305,-1.195887,-2.638652,-1.369348,0.392760,-0.904423,0.297928,0.930541,-0.212915,-0.285370,0.345796,0.758920,5.525569,40.719036,9.496098,,,,,,
1478277298.14,1.024950,-1.238608,-2.576172,-2.311309,0.825227,-1.235860,0.278725,0.945331,-0.169299,-0.318703,0.440442,0.529788,4.270816,40.435226,11.202700,,,,,,
1478277298.16,1.155989,-1.290989,-2.445474,-2.983632,-0.106157,-1.344611,0.252750,0.961109,-0.111301,-0.292728,0.424664,0.471790,3.332713,40.071075,12.725954,,,,,,
1478277298.18,1.335180,-1.336306,-2.243918,-2.859333,-0.985625,-1.149307,0.225927,0.972633,-0.054240,0.377466,0.450158,-0.225011,1.813603,38.815006,16.396774,,,,,,
1478277298.20,1.555067,-1.361693,-2.010865,-2.346712,0.384598,-0.715337,0.207557,0.978217,-0.003265,0.542245,0.360451,-0.338044,1.813603,38.815006,16.396774,,,,,,
1478277298.22,1.807414,-1.373787,-1.794334,-1.788907,2.435691,-0.965003,0.190284,0.980656,0.045884,0.326959,0.294078,-0.319566,0.845708,37.406578,19.462284,,,,,,
1478277298.24,2.053073,-1.380470,-1.577826,-1.732304,0.632104,-0.872363,0.167602,0.981943,0.087741,0.228196,0.096671,-0.172213,-0.329383,36.801975,20.597427,,,,,,
1478277298.27,2.262061,-1.371365,-1.358124,-2.010881,-0.459432,-0.739753,0.152634,0.980179,0.126299,-0.060516,0.106689,0.082319,-2.050165,35.556149,22.589930,,,,,,
1478277298.29,2.449376,-1.351188,-1.156578,-2.073855,-0.624208,-0.640882,0.139040,0.975983,0.167706,-0.105562,0.163391,-0.092373,-2.305196,34.793362,23.724583,,,,,,
1478277298.31,2.566053,-1.327275,-1.007481,-1.707653,-1.539459,-0.690438,0.131240,0.970495,0.202277,-0.118865,0.026484,-0.467017,-2.318142,33.167923,25.947315,,,,,,
1478277298.33,2.656665,-1.307997,-0.877363,-1.550773,-1.892608,-0.986852,0.121097,0.965667,0.229834,-0.108722,0.031312,-0.494574,-2.318142,33.167923,25.947315,,,,,,
1478277298.35,2.735115,-1.286039,-0.747570,-1.677547,-2.273601,-1.088249,0.111071,0.959730,0.258034,0.025495,-0.046156,-0.487313,-1.743149,31.754293,27.701521,,,,,,
1478277298.37,2.796890,-1.261839,-0.630922,-1.618219,-2.368489,-1.030051,0.102749,0.952651,0.286180,0.311069,-0.432845,-0.390229,-1.269358,30.985729,28.583582,,,,,,
1478277298.39,2.833499,-1.239661,-0.546207,-1.170302,-1.789147,-0.740201,0.098589,0.945674,0.309808,0.344877,-0.548640,-0.382349,-0.096608,29.456783,30.183384,,,,,,
1478277298.41,2.848877,-1.229936,-0.501541,-0.317154,-0.986823,-0.394641,0.096463,0.942467,0.320078,0.302570,-0.597878,-0.450190,-0.096608,29.456783,30.183384,,,,,,
1478277298.44,2.842892,-1.232009,-0.489439,0.210587,-0.762016,-0.114202,0.097801,0.943159,0.317627,0.216881,-0.575513,-0.491348,1.074029,28.633162,30.947317,,,,,,
1478277298.46,2.819394,-1.240143,-0.496632,0.514931,-0.819693,0.032536,0.102805,0.945831,0.307954,0.092843,-0.544601,-0.455842,1.074029,28.633162,30.947317,,,,,,
1478277298.48,2.781216,-1.254857,-0.518094,0.944105,-0.830255,0.103158,0.109564,0.950505,0.290751,0.027505,-0.525654,-0.390436,1.831272,29.025265,30.543873,,,,,,
1478277298.50,2.721822,-1.278572,-0.565580,1.490593,-0.491113,0.256144,0.117408,0.957606,0.263072,0.020546,-0.462641,-0.196315,2.698671,29.990057,29.530687,,,,,,
1478277298.52,2.642025,-1.307003,-0.649629,1.703924,0.384602,0.473806,0.124909,0.965408,0.228879,0.053192,-0.235107,0.207690,2.973078,30.717247,28.746471,,,,,,
1478277298.54,2.553828,-1.326482,-0.755660,1.198863,0.660160,0.626094,0.134129,0.970304,0.201297,0.011943,0.233432,0.793378,2.973078,30.717247,28.746471,,,,,,
1478277298.56,2.499236,-1.332830,-0.811044,0.269593,-0.546858,0.063707,0.141220,0.971819,0.188743,-0.578034,1.041486,1.106438,3.199164,32.313065,26.914295,,,,,,
1478277298.58,2.499286,-1.336853,-0.785839,-0.157873,-1.354222,-0.531165,0.138867,0.972760,0.185618,-0.301114,0.476230,0.532308,3.199164,32.313065,26.914295,,,,,,
1478277298.61,2.544905,-1.339006,-0.713496,-0.468675,-0.941794,-0.754348,0.129081,0.973257,0.190025,-0.291328,0.475733,0.527901,3.797603,32.343151,26.800125,,,,,,
1478277298.63,2.594857,-1.340611,-0.655103,-0.016961,0.091388,-0.332059,0.118619,0.973624,0.194898,0.348895,-0.280387,0.005831,3.766155,32.093124,27.103416,,,,,,
1478277298.65,2.565030,-1.351388,-0.701690,1.143937,1.112922,0.364427,0.118652,0.976026,0.182467,0.287125,0.141298,-0.265947,3.553642,32.208393,26.995169,,,,,,
1478277298.67,2.475018,-1.372150,-0.835536,1.582399,2.430695,0.514524,0.122016,0.980335,0.155100,0.347863,0.617810,-0.362025,3.553642,32.208393,26.995169,,,,,,
1478277298.69,2.460376,-1.384077,-0.895475,0.230714,1.600470,-0.305426,0.116902,0.982619,0.144203,0.016216,0.692430,-0.286247,2.648159,33.314140,25.727476,,,,,,
1478277298.71,2.542245,-1.383905,-0.837644,-0.239718,0.922566,-0.268913,0.104814,0.982587,0.153420,0.223723,-0.375241,0.125648,1.048457,33.665798,25.382334,,,,,,
1478277298.73,2.479741,-1.393648,-0.904511,1.216185,-0.196763,0.554486,0.108303,0.984350,0.139015,0.427952,-1.074408,-0.746452,0.546401,33.593922,25.493095,,,,,,
1478277298.75,2.225369,-1.403672,-1.164323,2.230640,0.509951,1.424106,0.131964,0.986067,0.101275,0.294351,-0.150984,-0.641070,1.299392,34.589451,24.096251,,,,,,
1478277298.77,1.871909,-1.397810,-1.558177,2.679531,2.401031,1.742734,0.164381,0.985075,0.051049,0.261935,-0.149992,-0.590844,1.815579,35.470932,22.743452,,,,,,
1478277298.80,1.673848,-1.376948,-1.815306,1.486221,1.879151,1.020173,0.191614,0.981270,0.019816,-0.205667,0.907569,-0.326396,1.815579,35.470932,22.743452,,,,,,
,,,,,,,,,,,,,,,,37.353005,-122.034891,51.228638,0.280000,354.375000,1478280760.00
1478277298.82,1.528354,-1.373472,-1.951030,1.292883,-1.351503,-0.110810,0.195870,0.980595,-0.008318,-0.460839,0.023464,0.155291,1.895677,36.897205,20.340858,,,,,,
1478277298.84,1.391459,-1.370836,-2.110013,1.550656,2.329985,-0.021405,0.195445,0.980074,-0.035431,0.093526,-0.397982,0.174256,2.300648,37.695698,18.774702,,,,,,
1478277298.86,1.267980,-1.360078,-2.252977,1.462957,-0.757689,0.370811,0.199645,0.977881,-0.062374,0.266083,-0.218939,-0.448978,1.697299,38.142471,17.917006,,,,,,
1478277298.88,1.166524,-1.339973,-2.339426,0.950775,-0.005150,0.634516,0.210337,0.973478,-0.089990,0.066915,-0.119246,0.273233,2.380603,38.847553,16.246483,,,,,,
1478277298.90,1.136059,-1.321056,-2.398670,1.079568,1.493331,0.486945,0.224162,0.968977,-0.104094,-0.018611,-0.003324,0.019300,2.380603,38.847553,16.246483,,,,,,
1478277298.92,1.090289,-1.301358,-2.467257,1.083052,0.760673,0.471455,0.236047,0.963920,-0.123041,-0.068185,0.015724,0.080667,2.532532,39.301804,15.089808,,,,,,
1478277298.94,1.078171,-1.283697,-2.499384,0.587993,0.960358,0.565596,0.249501,0.959069,-0.133923,-0.226536,-0.086129,0.110150,2.621861,39.552784,14.403172,,,,,,
1478277298.97,1.080125,-1.266901,-2.514777,0.588496,0.596089,0.619623,0.263934,0.954178,-0.141007,-0.240969,-0.081238,0.117234,2.928001,39.809883,13.614248,,,,,,
1478277298.99,1.066714,-1.248320,-2.536348,0.746455,0.242472,0.607887,0.277497,0.948454,-0.153072,-0.318772,-0.046827,-0.028371,3.192548,39.906532,13.267420,,,,,,
1478277299.01,1.046602,-1.229078,-2.563331,0.837692,0.271311,0.577518,0.290111,0.942180,-0.167726,-0.250469,-0.014873,0.003969,3.848456,40.146740,12.335997,,,,,,
1478277299.03,1.023715,-1.208567,-2.593714,0.977137,0.270723,0.584608,0.302640,0.935109,-0.184337,-0.215405,0.047557,0.076518,3.848456,40.146740,12.335997,,,,,,
1478277299.05,0.998549,-1.186771,-2.628026,1.069330,0.352856,0.538127,0.314968,0.927164,-0.202885,-0.227733,0.055502,0.095066,4.487372,40.414497,11.192854,,,,,,
1478277299.07,0.974723,-1.166069,-2.660726,0.985909,0.206069,0.470070,0.325862,0.919210,-0.221061,-0.063227,0.079676,0.517005,4.786616,40.556412,10.536304,,,,,,
1478277299.09,0.960131,-1.148124,-2.677178,0.520590,-0.037047,0.588311,0.336062,0.911996,-0.235213,-0.138415,-0.046792,0.684508,5.343802,40.787056,9.306323,,,,,,
1478277299.11,0.974194,-1.135498,-2.660179,-0.177378,-0.143735,0.690937,0.348835,0.906744,-0.236915,-0.515431,0.142710,0.392586,5.343802,40.787056,9.306323,,,,,,
1478277299.14,0.984615,-1.130285,-2.638007,-0.172592,-0.605532,0.260827,0.355218,0.904534,-0.235878,-0.778955,0.286506,-0.019889,6.578820,40.652531,9.101581,,,,,,
1478277299.16,0.976722,-1.134601,-2.637089,-0.176672,-0.189184,-0.422208,0.350107,0.906366,-0.236488,-0.809488,0.414496,0.109489,6.578820,40.652531,9.101581,,,,,,
1478277299.18,0.973692,-1.154097,-2.642166,-0.632584,0.178458,-0.951582,0.334711,0.914430,-0.227568,-0.488245,0.504760,0.337767,6.477267,40.641369,9.223454,,,,,,
1478277299.20,0.995615,-1.185406,-2.621517,-1.496511,0.103775,-1.040533,0.315433,0.926652,-0.204496,-0.209614,0.331329,0.717085,5.888392,40.654549,9.554199,,,,,,
1478277299.22,1.064957,-1.229241,-2.553362,-2.279356,0.441103,-1.337275,0.293006,0.942235,-0.162299,-0.433845,0.340648,0.422095,4.495667,40.368130,11.355656,,,,,,
1478277299.24,1.177461,-1.281254,-2.444181,-2.664229,0.253919,-1.544519,0.263711,0.958375,-0.109429,-0.404550,0.324508,0.369226,4.495667,40.368130,11.355656,,,,,,
1478277299.26,1.358771,-1.329852,-2.254819,-2.989812,-0.056639,-1.359640,0.233276,0.971113,-0.050215,0.381134,0.648912,0.412932,1.580873,38.883041,16.259092,,,,,,
1478277299.28,1.613092,-1.356645,-2.004305,-2.497402,0.756032,-0.888234,0.212328,0.977157,0.008986,0.503141,0.627244,-0.151533,1.580873,38.883041,16.259092,,,,,,
1478277299.31,1.865554,-1.368956,-1.772410,-2.003495,1.560010,-0.995656,0.191826,0.979699,0.058239,0.520820,0.445044,-0.470394,0.025983,37.360229,19.569374,,,,,,
1478277299.33,2.143878,-1.373315,-1.526496,-1.956681,1.594975,-1.215390,0.164854,0.980564,0.106385,0.469026,0.165493,-0.729645,-2.225924,35.981319,21.889215,,,,,,
1478277299.35,2.344232,-1.364465,-1.322180,-1.663523,-1.207234,-0.684706,0.146588,0.978789,0.143122,0.196308,0.094255,-0.770685,-3.245314,35.265530,22.903233,,,,,,
1478277299.37,2.493287,-1.345314,-1.151604,-1.949352,-0.245668,-0.751279,0.135004,0.974686,0.178215,-0.081491,0.209426,0.204583,-3.245314,35.265530,22.903233,,,,,,
1478277299.39,2.633979,-1.317408,-0.995555,-2.044036,-1.067663,-0.725043,0.121857,0.968069,0.219076,-0.171524,0.130000,-0.316030,-3.650304,32.966465,26.050629,,,,,,
1478277299.41,2.716851,-1.287180,-0.877101,-1.848461,-1.500337,-0.683187,0.115313,0.960050,0.254965,-0.164981,0.138018,-0.351919,-3.650304,32.966465,26.050629,,,,,,
1478277299.43,2.776695,-1.262319,-0.781585,-1.493593,-1.539652,-0.813935,0.108344,0.952797,0.283619,0.012491,-0.077324,-0.516636,-3.140213,31.234665,28.165276,,,,,,
1478277299.45,2.819588,-1.238258,-0.696572,-1.506031,-1.960518,-0.790875,0.103309,0.945217,0.309665,0.270500,-0.430416,-0.590244,-2.431466,29.768282,29.777264,,,,,,
1478277299.47,2.844841,-1.216015,-0.623996,-1.188657,-1.966787,-0.759073,0.101581,0.937723,0.332201,0.245236,-0.430704,-0.547549,-1.830371,29.037945,30.531879,,,,,,
1478277299.50,2.861116,-1.203769,-0.569817,-0.577044,-1.414845,-0.648171,0.099333,0.933398,0.344820,0.159121,-0.444964,-0.502306,-1.830371,29.037945,30.531879,,,,,,
1478277299.52,2.867836,-1.203026,-0.539430,0.058349,-0.822849,-0.373481,0.097201,0.933131,0.346148,0.105924,-0.533366,-0.453127,-0.758011,28.064096,31.473480,,,,,,
1478277299.54,2.861226,-1.210632,-0.530187,0.423241,-0.723790,-0.190387,0.097520,0.935839,0.338667,0.056030,-0.554659,-0.398756,-0.208944,28.015388,31.525265,,,,,,
1478277299.56,2.841119,-1.224369,-0.531877,0.773113,-0.992620,-0.149747,0.100495,0.940592,0.324327,0.013199,-0.616571,-0.416140,0.070372,28.223957,31.339291,,,,,,
1478277299.58,2.803481,-1.247110,-0.548303,1.309194,-0.988015,-0.056645,0.105504,0.948069,0.300056,0.068126,-0.666606,-0.329459,0.921865,29.064129,30.547907,,,,,,
1478277299.60,2.747055,-1.278809,-0.594309,1.784110,-0.268276,0.191803,0.110647,0.957674,0.265742,0.123164,-0.599260,-0.136881,0.921865,29.064129,30.547907,,,,,,
1478277299.62,2.667655,-1.309289,-0.682101,1.694125,0.420286,0.566943,0.117995,0.966001,0.230040,0.155199,-0.237135,0.175431,1.545434,30.584230,28.999390,,,,,,
1478277299.64,2.578128,-1.325113,-0.778809,0.763330,-0.006220,0.516792,0.129908,0.969971,0.205620,-0.571451,1.254974,1.377495,1.627481,31.374023,28.138407,,,,,,
1478277299.67,2.573943,-1.323287,-0.767735,-0.565903,-1.254462,-0.376532,0.131719,0.969526,0.206568,-0.523626,0.671939,1.163504,2.090790,32.109444,27.264635,,,,,,
1478277299.69,2.601781,-1.318435,-0.699877,-0.414257,-1.774652,-0.638775,0.128335,0.968325,0.214187,-0.520242,0.673139,1.155885,2.453920,31.890038,27.490940,,,,,,
1478277299.71,2.644536,-1.325834,-0.639660,0.020140,-0.076475,-0.816691,0.115643,0.970146,0.213173,-0.172879,0.091713,0.306832,3.006064,31.666950,27.693243,,,,,,
1478277299.73,2.693135,-1.332079,-0.593388,0.160489,0.197151,-0.354866,0.102522,0.971642,0.213075,-0.101042,-0.195687,0.065001,3.006064,31.666950,27.693243,,,,,,
1478277299.75,2.650928,-1.342586,-0.650047,1.004498,0.832043,0.710683,0.106605,0.974073,0.199544,0.146920,0.129885,-0.147145,2.308488,31.787933,27.621479,,,,,,
1478277299.77,2.560911,-1.351886,-0.771983,0.892828,1.812711,0.774859,0.119136,0.976135,0.181570,0.353734,0.787415,-0.175757,2.242324,32.134197,27.223400,,,,,,
1478277299.79,2.590490,-1.352126,-0.769576,-0.748935,0.600935,-0.559439,0.113591,0.976187,0.184814,0.147181,1.114985,-0.163284,1.692571,32.807720,26.448755,,,,,,
,,,,,,,,,,,,,,,,37.352999,-122.034884,50.261353,0.410000,354.375000,1478280761.00
1478277299.81,2.685068,-1.344788,-0.671710,-0.308112,-0.328841,-0.656128,0.098786,0.974569,0.201140,0.372650,-0.293111,-0.182509,1.692571,32.807720,26.448755,,,,,,
1478277299.84,2.661992,-1.358709,-0.684278,1.209950,-0.621855,0.250457,0.097130,0.977594,0.186752,0.649787,-1.317331,-0.516967,0.881616,32.443626,26.932909,,,,,,
1478277299.86,2.436755,-1.384963,-0.916693,2.737788,1.041593,1.547752,0.119711,0.982783,0.140739,0.627206,-1.322520,-0.470954,0.881616,32.443626,26.932909,,,,,,
1478277299.88,2.145588,-1.392799,-1.277119,2.056054,3.851581,1.598144,0.148607,0.984200,0.096260,0.171843,-0.200768,-0.420067,1.786546,34.170094,24.656870,,,,,,
1478277299.90,2.042705,-1.385522,-1.454360,0.975504,2.392612,0.596425,0.164081,0.982886,0.083742,-0.373936,1.226663,-0.913530,1.458390,35.056858,23.401665,,,,,,
1478277299.92,1.830747,-1.399938,-1.667437,2.327209,-0.931533,-0.265397,0.164316,0.985439,0.043703,-0.387109,0.346653,0.073805,0.532222,35.954491,22.039490,,,,,,
1478277299.94,1.602382,-1.406724,-1.900668,1.506523,0.478129,0.108498,0.163256,0.986570,0.005158,0.022550,-0.196073,0.457015,0.532222,35.954491,22.039490,,,,,,
1478277299.96,1.452274,-1.400143,-2.052105,1.032359,-0.445185,0.345703,0.168635,0.985474,-0.020081,-0.003031,-0.213471,-0.104843,0.686659,37.660789,18.972120,,,,,,
1478277299.98,1.354450,-1.388863,-2.144573,0.846579,0.196194,0.378180,0.176713,0.983496,-0.038839,0.009688,-0.207647,-0.112482,0.686659,37.660789,18.972120,,,,,,
1478277300.01,1.271366,-1.375349,-2.257820,1.343981,1.777228,0.339482,0.185564,0.980961,-0.057286,0.137755,-0.136189,-0.171703,1.251540,38.168659,17.897903,,,,,,
1478277300.03,1.177236,-1.357016,-2.382636,1.337438,0.860964,0.505097,0.195937,0.977236,-0.081357,0.017458,-0.086672,0.274091,0.875702,38.876217,16.328526,,,,,,
1478277300.05,1.129782,-1.336038,-2.445990,0.839964,0.801389,0.686906,0.210352,0.972571,-0.099290,0.003042,-0.082007,0.292024,1.047632,39.172523,15.593714,,,,,,
1478277300.07,1.121037,-1.315790,-2.480669,0.756213,1.224954,0.680308,0.227165,0.967662,-0.109666,-0.138878,-0.154628,0.183656,1.047632,39.172523,15.593714,,,,,,
1478277300.09,1.104667,-1.295816,-2.517471,0.891956,0.744773,0.615959,0.242560,0.962430,-0.122034,-0.258094,-0.117826,-0.026770,1.607991,39.700752,14.142580,,,,,,
1478277300.11,1.077931,-1.275054,-2.561482,0.984441,0.762651,0.598457,0.256762,0.956586,-0.137900,-0.210634,-0.092420,0.063956,1.607991,39.700752,14.142580,,,,,,
1478277300.13,1.055079,-1.253101,-2.600452,0.999703,0.579576,0.672523,0.271750,0.949958,-0.154052,-0.225622,-0.085792,0.080108,2.054715,40.078773,12.969878,,,,,,
1478277300.15,1.031213,-1.229174,-2.635135,1.032101,0.334957,0.714420,0.287418,0.942212,-0.172124,-0.241001,0.048175,0.183050,2.706040,40.422867,11.722507,,,,,,
1478277300.17,1.007021,-1.205670,-2.666146,0.989614,0.173403,0.662743,0.301809,0.934079,-0.190810,-0.301534,0.076587,0.355589,3.103168,40.577053,11.073433,,,,,,
1478277300.20,0.990683,-1.183494,-2.685428,0.693281,0.043625,0.722969,0.315902,0.925931,-0.207020,-0.322066,0.099795,0.490971,3.103168,40.577053,11.073433,,,,,,
1478277300.22,0.993641,-1.166776,-2.681581,0.241975,-0.095694,0.658396,0.329440,0.919488,-0.214502,-0.528445,0.154792,0.317849,3.955069,40.799522,9.924944,,,,,,
1478277300.24,0.995091,-1.156818,-2.676330,0.136644,-0.157183,0.287402,0.337415,0.915528,-0.218998,-0.621274,0.337127,0.158299,4.818088,40.806267,9.506968,,,,,,
1478277300.26,0.989802,-1.156390,-2.680944,0.067543,0.019039,-0.241999,0.336579,0.915356,-0.220995,-0.601304,0.417805,0.173647,5.026316,40.804047,9.408171,,,,,,
1478277300.28,0.979628,-1.165168,-2.692908,-0.163107,0.010606,-0.504445,0.327629,0.918855,-0.219921,-0.020637,0.426391,0.611843,4.663368,40.858231,9.359794,,,,,,
1478277300.30,0.992983,-1.180710,-2.678467,-0.928936,0.024270,-0.466908,0.318536,0.924876,-0.207700,-0.241769,0.307012,0.829237,4.663368,40.858231,9.359794,,,,,,
1478277300.32,1.049939,-1.206561,-2.622777,-1.796334,0.431060,-0.593811,0.308996,0.934396,-0.177271,-0.232229,0.297492,0.798807,4.038297,40.727657,10.183218,,,,,,
1478277300.34,1.161304,-1.245241,-2.519964,-2.527347,0.757263,-1.089419,0.293392,0.947473,-0.127340,-0.670880,0.335745,0.452917,3.634852,40.493839,11.215373,,,,,,
1478277300.37,1.321330,-1.288428,-2.358747,-2.881160,-0.161960,-1.216828,0.270006,0.960398,-0.068790,-0.230699,0.508581,0.112217,2.117231,39.592155,14.377993,,,,,,
1478277300.39,1.507502,-1.322749,-2.148133,-2.727474,-0.893572,-1.099343,0.245020,0.969394,-0.015529,0.271337,0.649549,-0.146123,1.403302,38.927452,16.168863,,,,,,
1478277300.41,1.726221,-1.339273,-1.921994,-2.383774,0.623394,-0.832654,0.226695,0.973318,0.035521,0.642064,0.573725,-0.359159,0.463190,37.453175,19.385386,,,,,,
1478277300.43,1.976267,-1.343137,-1.698318,-2.169317,1.790697,-0.853019,0.207398,0.974197,0.089027,0.704040,0.304947,-0.404365,0.463190,37.453175,19.385386,,,,,,
1478277300.45,2.186815,-1.332731,-1.505411,-2.073487,0.295263,-0.345402,0.192475,0.971796,0.136256,0.444045,0.083700,-0.332423,-1.441551,35.960796,21.988430,,,,,,
1478277300.47,2.317053,-1.306998,-1.357467,-2.037313,-0.763053,-0.108969,0.191451,0.965407,0.177021,-0.403289,0.316515,-0.077855,-2.049245,35.208332,23.128378,,,,,,
1478277300.49,2.423849,-1.283287,-1.235164,-1.903550,-0.284568,-0.552750,0.186497,0.958953,0.213607,-0.398335,0.322968,-0.114440,-1.745799,33.623138,25.400486,,,,,,
1478277300.51,2.530871,-1.260741,-1.117041,-1.800161,-0.531116,-0.641424,0.174969,0.952317,0.249958,-0.291348,0.356475,-0.268467,-1.745799,33.623138,25.400486,,,,,,
1478277300.54,2.605753,-1.240176,-1.010271,-1.604717,-1.664284,-0.941873,0.165744,0.945841,0.279130,-0.053165,-0.014216,-0.617768,-1.992921,31.253227,28.249107,,,,,,
1478277300.56,2.670526,-1.222009,-0.903406,-1.512132,-1.654027,-1.102942,0.155103,0.939788,0.304536,0.126086,-0.254134,-0.462052,-1.992921,31.253227,28.249107,,,,,,
1478277300.58,2.724402,-1.204913,-0.805307,-1.342827,-1.867560,-1.092564,0.144968,0.933808,0.327088,0.213904,-0.393388,-0.443650,-1.441992,29.758408,29.851391,,,,,,
1478277300.60,2.754315,-1.189678,-0.729357,-1.019438,-1.895748,-0.832692,0.140477,0.928249,0.344412,0.214259,-0.453777,-0.422537,-1.089838,29.063921,30.542572,,,,,,
1478277300.62,2.763401,-1.182751,-0.677815,-0.383172,-1.733747,-0.636167,0.139713,0.925650,0.351641,0.174206,-0.507956,-0.506838,0.001240,28.009296,31.531368,,,,,,
1478277300.64,2.753311,-1.187593,-0.657223,0.319704,-1.179699,-0.327599,0.141556,0.927472,0.346061,0.080658,-0.625470,-0.474601,0.001240,28.009296,31.531368,,,,,,
1478277300.66,2.729675,-1.200403,-0.659158,0.694941,-0.979013,-0.161468,0.144926,0.932185,0.331704,-0.008238,-0.651606,-0.477899,1.496805,28.177038,31.345846,,,,,,
1478277300.68,2.694740,-1.220735,-0.674820,1.182868,-0.951944,-0.155278,0.148201,0.939352,0.309282,-0.025795,-0.631963,-0.513826,1.496805,28.177038,31.345846,,,,,,
1478277300.70,2.634830,-1.251479,-0.718535,1.855111,-0.769378,0.015514,0.152360,0.949450,0.274465,0.044021,-0.678057,-0.430913,2.297081,29.161663,30.382046,,,,,,
1478277300.73,2.531844,-1.288618,-0.819384,2.411420,0.009541,0.426716,0.159457,0.960451,0.228270,0.129728,-0.293718,0.135545,2.980008,30.957781,28.486546,,,,,,
1478277300.75,2.383690,-1.318353,-0.983085,2.171546,0.616307,0.829503,0.171692,0.968305,0.181403,-0.045685,0.522662,0.863946,3.153823,32.016590,27.271587,,,,,,
1478277300.77,2.299734,-1.317549,-1.069596,-0.593769,-0.779645,0.515943,0.186880,0.968104,0.166885,-0.060873,0.522863,0.878464,3.153823,32.016590,27.271587,,,,,,
1478277300.79,2.383759,-1.299278,-0.935033,-1.636705,-2.507133,-1.112214,0.184344,0.963365,0.194797,-0.739382,1.787444,0.805081,4.458577,32.229416,26.835310,,,,,,
,,,,,,,,,,,,,,,,37.352990,-122.034876,50.687683,0.990000,173.320312,1478280762.00
1478277300.81,2.478457,-1.298246,-0.793923,-1.143648,-1.261225,-1.320199,0.165710,0.963088,0.212138,0.017304,-0.001708,0.635945,4.458577,32.229416,26.835310,,,,,,
1478277300.83,2.594060,-1.296193,-0.674456,-0.700292,0.533384,-1.042216,0.141164,0.962533,0.231524,0.259456,-0.700967,0.189359,4.744386,31.325777,27.837646,,,,,,
1478277300.85,2.628181,-1.294096,-0.652542,0.033694,0.502428,0.442339,0.134174,0.961962,0.237963,0.555721,-0.503802,-0.247225,3.563993,30.891977,28.490902,,,,,,
1478277300.87,2.574681,-1.293797,-0.719001,0.463465,0.614906,0.562016,0.146862,0.961880,0.230690,-0.023906,0.630588,-0.362098,3.692908,30.965422,28.394596,,,,,,
1478277300.90,2.642489,-1.300826,-0.679657,-0.071172,1.986824,-1.266422,0.127654,0.963779,0.234168,-0.961379,1.250790,-0.288291,3.692908,30.965422,28.394596,,,,,,
1478277300.92,2.770368,-1.311391,-0.583120,0.013031,0.950761,-1.145111,0.093049,0.966543,0.239034,0.621016,-1.248098,-0.468572,2.509439,31.147285,28.324852,,,,,,
1478277300.94,2.801452,-1.314046,-0.532158,-0.107338,-1.898766,-0.105485,0.084719,0.967220,0.239390,0.629347,-1.248776,-0.468928,0.400829,31.148693,28.431433,,,,,,
1478277300.96,2.688926,-1.322766,-0.620101,1.451335,-0.135581,1.071320,0.107371,0.969398,0.220770,1.103795,-1.472312,0.030283,1.151249,31.130116,28.431297,,,,,,
1478277300.98,2.570831,-1.353568,-0.802508,2.560650,3.973962,1.000296,0.116442,0.976499,0.181361,-0.113771,0.651874,-0.611369,1.550135,32.450405,26.894539,,,,,,
1478277301.00,2.411232,-1.377261,-1.034525,1.793696,2.190354,1.123442,0.128310,0.981330,0.143273,0.078339,0.911202,-0.328514,0.489007,33.483143,25.639580,,,,,,
1478277301.02,2.284430,-1.380516,-1.174514,0.645131,-0.172756,0.528558,0.142983,0.981951,0.123804,-0.273980,0.483747,-0.085688,0.489007,33.483143,25.639580,,,,,,
1478277301.04,2.196565,-1.381897,-1.261150,0.835299,0.039843,0.437097,0.152196,0.982212,0.109985,-0.201207,0.008343,-0.205902,0.502201,34.525269,24.217794,,,,,,
1478277301.07,2.048267,-1.389129,-1.416774,1.547108,0.265948,0.374094,0.160464,0.983544,0.083024,-0.180849,-0.062142,-0.256852,1.002328,35.132221,23.312456,,,,,,
1478277301.09,1.865806,-1.395258,-1.604538,1.525349,0.045214,0.297324,0.167093,0.984633,0.050776,-0.184198,-0.067107,-0.180247,1.124653,35.681190,22.457420,,,,,,
1478277301.11,1.675281,-1.397518,-1.797195,1.625934,-0.110192,0.132795,0.171472,0.985025,0.017982,-0.137750,-0.112787,-0.093391,1.421381,36.732803,20.674355,,,,,,
1478277301.13,1.472987,-1.394996,-2.005640,1.711266,0.397110,0.166798,0.174060,0.984587,-0.017079,-0.140338,-0.112349,-0.058330,1.421381,36.732803,20.674355,,,,,,
1478277301.15,1.306005,-1.382970,-2.189642,1.549996,0.673614,0.340356,0.180216,0.982412,-0.048867,-0.009135,-0.103354,0.024285,1.483164,37.785446,18.676401,,,,,,
1478277301.17,1.192471,-1.363542,-2.312672,1.281876,0.151924,0.613241,0.191223,0.978600,-0.076006,-0.007247,-0.211662,0.134706,1.460453,38.247272,17.713303,,,,,,
1478277301.19,1.120545,-1.338626,-2.389199,1.147180,0.143897,0.834309,0.207159,0.973169,-0.100133,-0.139654,-0.384256,0.124258,2.020981,38.926472,16.105696,,,,,,
1478277301.21,1.079150,-1.311238,-2.438506,1.062771,0.443549,0.926872,0.226255,0.966504,-0.121160,-0.158750,-0.377591,0.145284,2.020981,38.926472,16.105696,,,,,,
1478277301.24,1.055834,-1.282965,-2.472062,1.004403,0.326206,0.975479,0.247058,0.958862,-0.139808,-0.192416,-0.289688,0.095680,3.476819,39.588810,14.120399,,,,,,
1478277301.26,1.029635,-1.254640,-2.504428,1.133382,0.262268,0.864506,0.266489,0.950438,-0.160162,-0.265177,0.024218,0.136755,3.476819,39.588810,14.120399,,,,,,
1478277301.28,0.994160,-1.227515,-2.553917,1.418552,0.744072,0.567812,0.282154,0.941655,-0.183505,-0.370366,0.169734,0.266467,4.517956,39.934879,12.788340,,,,,,
1478277301.30,0.963369,-1.203784,-2.609210,1.248771,1.073459,0.389989,0.294641,0.933404,-0.204804,-0.370492,0.031898,0.544373,4.811969,40.153713,11.969643,,,,,,
1478277301.32,0.961161,-1.184273,-2.629895,0.541867,0.553435,0.672182,0.309062,0.926225,-0.215841,-0.206797,-0.098284,0.705420,5.024107,40.533112,10.515373,,,,,,
1478277301.34,0.977091,-1.169292,-2.617545,0.092391,0.025812,0.635597,0.323927,0.920474,-0.218630,-0.455992,0.029676,0.389437,5.024107,40.533112,10.515373,,,,,,
1478277301.36,0.982220,-1.163091,-2.608325,-0.068901,-0.137497,0.139212,0.329785,0.918033,-0.220130,-0.823285,0.505627,0.385825,6.074722,40.502655,10.068804,,,,,,
1478277301.38,1.000009,-1.172008,-2.589225,-0.900091,0.017235,-0.328161,0.326747,0.921532,-0.209798,-0.585795,0.355049,0.724935,6.074722,40.502655,10.068804,,,,,,
1478277301.40,1.072654,-1.202209,-2.508123,-2.644384,-0.207815,-0.578331,0.316511,0.932837,-0.172148,-0.575560,0.343744,0.687285,5.888029,40.340813,10.802673,,,,,,
1478277301.43,1.201196,-1.249308,-2.349845,-3.281382,-1.440909,-1.219633,0.294641,0.948766,-0.114145,-0.452646,1.442301,0.391626,5.580814,39.989155,12.184834,,,,,,
1478277301.45,1.393750,-1.299420,-2.134901,-3.624762,0.018061,-1.529929,0.263868,0.963403,-0.047211,0.170931,1.022391,0.025040,4.658381,38.694710,16.117283,,,,,,
1478277301.47,1.652705,-1.332401,-1.872875,-2.755929,0.302869,-1.193710,0.235352,0.971718,0.019321,0.907639,0.913963,-0.640323,4.658381,38.694710,16.117283,,,,,,
1478277301.49,1.875444,-1.336350,-1.670039,-1.868755,1.991862,-0.317549,0.221607,0.972643,0.069681,1.101757,0.190550,-0.221766,2.144209,36.235153,21.474733,,,,,,
1478277301.51,2.082034,-1.329036,-1.521938,-1.620162,3.324269,-0.473258,0.208801,0.970918,0.117134,0.716477,-0.012193,0.208596,2.144209,36.235153,21.474733,,,,,,
1478277301.53,2.282451,-1.316521,-1.384239,-1.627218,2.776006,-0.379291,0.190490,0.967846,0.164281,-0.100097,0.395115,-0.073445,-0.323386,35.039776,23.470360,,,,,,
1478277301.55,2.423187,-1.304814,-1.263559,-1.359497,0.114456,-0.927576,0.173008,0.964835,0.197893,-0.683949,0.694970,-0.110018,-2.598773,33.823555,25.059164,,,,,,
1478277301.57,2.560478,-1.290347,-1.112271,-1.865406,-0.664662,-1.132903,0.151944,0.960931,0.231354,-0.662885,0.698874,-0.143478,-3.101307,33.168175,25.865078,,,,,,
1478277301.60,2.651219,-1.269742,-0.975703,-1.649878,-2.515771,-1.084065,0.139651,0.955024,0.261583,-0.251742,0.238335,-0.541201,-3.101307,33.168175,25.865078,,,,,,
1478277301.62,2.698312,-1.251411,-0.860794,-1.561970,-3.055431,-1.077067,0.134669,0.949429,0.283636,0.107442,-0.135510,-0.639639,-3.000305,31.521193,27.859657,,,,,,
1478277301.64,2.739027,-1.227417,-0.755233,-1.732367,-2.623803,-0.957762,0.131901,0.941622,0.309758,0.317028,-0.418795,-0.540928,-1.372923,30.015013,29.596655,,,,,,
1478277301.66,2.762373,-1.204435,-0.671541,-1.334541,-2.623956,-0.785911,0.132612,0.933637,0.332770,0.346209,-0.615903,-0.486182,-0.564616,29.180605,30.445385,,,,,,
1478277301.68,2.760686,-1.192502,-0.617287,-0.537031,-2.242521,-0.590228,0.137305,0.929296,0.342865,0.209817,-0.691427,-0.386612,1.285353,27.982229,31.529203,,,,,,
1478277301.70,2.749547,-1.197703,-0.592112,0.379230,-1.295387,-0.443665,0.139267,0.931204,0.336843,0.131622,-0.779517,-0.408651,2.037298,27.854418,31.602673,,,,,,
1478277301.72,2.733099,-1.214485,-0.588586,0.842031,-0.797333,-0.322575,0.138561,0.937190,0.320119,0.103795,-0.733470,-0.498494,2.037298,27.854418,31.602673,,,,,,
1478277301.74,2.707993,-1.235932,-0.597303,1.062226,-0.845642,-0.273435,0.138075,0.944455,0.298228,-0.003844,-0.703641,-0.480143,2.769277,28.447186,31.013494,,,,,,
1478277301.77,2.665294,-1.261806,-0.620246,1.382882,-1.042095,-0.184086,0.139426,0.952641,0.270251,-0.005195,-0.711827,-0.452166,3.332669,29.482529,29.973686,,,,,,
1478277301.79,2.594060,-1.291989,-0.676617,1.711160,-0.585764,0.130789,0.143269,0.961384,0.234977,-0.088627,-0.715748,-0.290687,3.727196,30.145992,29.258762,,,,,,
,,,,,,,,,,,,,,,,37.352982,-122.034868,52.085938,0.990000,-1.000000,1478280763.00
1478277301.81,2.501818,-1.311856,-0.771898,1.117367,0.370048,0.631105,0.152869,0.966662,0.205416,-0.020454,0.540922,1.327085,4.348439,31.570530,27.624998,,,,,,
1478277301.83,2.473660,-1.300598,-0.806307,-1.053978,-0.312497,0.535395,0.165322,0.963718,0.209562,-0.579247,2.297405,2.040835,4.348439,31.570530,27.624998,,,,,,
1478277301.85,2.521499,-1.274001,-0.709081,-1.862007,-3.186593,-0.779227,0.169950,0.956279,0.238008,-0.583875,2.304845,2.012388,4.897967,31.326664,27.810034,,,,,,
1478277301.87,2.583636,-1.249095,-0.571823,-1.614011,-2.739075,-0.967918,0.167403,0.948699,0.268228,-0.077560,-0.208877,0.448080,5.800673,30.536623,28.506397,,,,,,
1478277301.89,2.637789,-1.235966,-0.486357,-0.918136,-0.459770,-0.624277,0.158639,0.944466,0.287780,0.265479,-0.803246,-0.018630,7.445909,29.043926,29.660694,,,,,,
1478277301.91,2.659823,-1.236933,-0.475304,0.608874,1.172878,0.154034,0.151837,0.944783,0.290396,0.297763,-0.661702,-0.482855,7.394381,28.692854,30.013182,,,,,,
1478277301.93,2.636525,-1.253975,-0.550815,1.361049,2.970861,0.680333,0.150748,0.950230,0.272649,0.261865,0.913997,-0.224278,6.310358,29.289289,29.682739,,,,,,
1478277301.96,2.693275,-1.266592,-0.560561,-0.095360,2.725752,-0.668622,0.129833,0.954086,0.269934,-0.376919,1.585587,-0.205770,6.310358,29.289289,29.682739,,,,,,
1478277301.98,2.779992,-1.258975,-0.502050,-0.529324,0.935648,-0.485438,0.108535,0.951776,0.286953,0.521791,0.090475,-0.137081,3.453460,29.795433,29.648838,,,,,,
1478277302.00,2.780965,-1.264586,-0.510231,0.864174,0.042345,0.393570,0.106369,0.953483,0.282057,0.720749,-1.454612,-0.724989,2.588058,29.494907,30.034986,,,,,,
1478277302.02,2.650025,-1.302984,-0.642287,3.264120,0.127178,1.021761,0.124904,0.964352,0.233290,-0.014171,-0.559216,-0.369291,2.660386,30.211006,29.308113,,,,,,
1478277302.04,2.415282,-1.354928,-0.942395,3.940789,3.891985,1.672959,0.142251,0.976791,0.160139,-0.031518,-0.571655,-0.296141,2.660386,30.211006,29.308113,,,,,,
1478277302.06,2.160175,-1.364415,-1.277936,1.947827,2.596450,1.656714,0.170347,0.978779,0.113903,-0.674161,1.396069,-0.534725,1.950352,34.417904,24.297157,,,,,,
1478277302.08,2.033178,-1.366606,-1.436530,1.362358,1.235973,0.025251,0.181481,0.979226,0.090454,-0.668908,0.558128,-0.424881,1.950352,34.417904,24.297157,,,,,,
1478277302.10,1.899119,-1.378860,-1.570371,1.510787,-1.429114,0.158027,0.180571,0.981637,0.061512,-0.096266,-0.177331,-0.306766,1.586296,35.470303,22.761570,,,,,,
1478277302.13,1.678674,-1.374847,-1.747115,1.394785,-2.112557,0.694550,0.193566,0.980863,0.020963,-0.010445,-0.271650,0.087359,1.780895,35.959702,21.965343,,,,,,
1478277302.15,1.524573,-1.362463,-1.874734,1.211912,-1.046473,0.468718,0.206609,0.978377,-0.009557,-0.058309,-0.022933,-0.016429,3.815529,36.854607,20.147646,,,,,,
1478277302.17,1.388846,-1.354446,-2.005815,1.339864,0.139957,0.132016,0.211123,0.976687,-0.038844,0.085263,-0.004992,0.033244,3.815529,36.854607,20.147646,,,,,,
1478277302.19,1.292276,-1.344047,-2.122149,1.287311,1.069211,0.264093,0.216148,0.974402,-0.061808,0.273018,-0.115104,0.110926,4.489638,37.959026,17.824238,,,,,,
1478277302.21,1.220287,-1.326338,-2.222210,1.284091,1.212495,0.574435,0.227315,0.970268,-0.083108,0.261851,-0.110970,0.132226,4.489638,37.959026,17.824238,,,,,,
1478277302.23,1.173920,-1.301889,-2.297464,1.220040,1.259573,0.835886,0.245028,0.964062,-0.102695,0.054869,-0.151943,0.021900,4.400781,38.602051,16.409222,,,,,,
1478277302.25,1.150941,-1.274826,-2.349516,1.094966,1.264493,0.905292,0.266336,0.956520,-0.118892,-0.309533,-0.237465,-0.113530,4.802014,39.081444,15.110569,,,,,,
1478277302.27,1.130741,-1.249111,-2.393587,1.108989,0.854047,0.783736,0.286044,0.948704,-0.134683,-0.425876,-0.134586,-0.082678,5.073648,39.265579,14.533424,,,,,,
1478277302.30,1.091951,-1.223723,-2.447987,1.390891,0.489785,0.640192,0.301890,0.940372,-0.156724,-0.347895,0.118832,0.082368,5.073648,39.265579,14.533424,,,,,,
1478277302.32,1.044491,-1.199362,-2.509164,1.419848,0.484719,0.454300,0.313834,0.931808,-0.182326,-0.254782,0.188401,0.294799,5.934975,39.920071,12.243853,,,,,,
1478277302.34,1.014392,-1.178270,-2.555579,1.058321,0.673601,0.446059,0.324824,0.923946,-0.202025,-0.224909,0.006184,0.483839,5.934975,39.920071,12.243853,,,,,,
1478277302.36,1.006547,-1.160173,-2.576086,0.568157,0.348511,0.539042,0.337304,0.916872,-0.213475,-0.295190,0.115110,0.571919,6.283248,40.275589,10.823381,,,,,,
1478277302.38,1.015839,-1.149826,-2.570815,-0.031067,0.228344,0.400448,0.347318,0.912693,-0.215319,-0.483060,0.234158,0.463473,6.826058,40.328918,10.282579,,,,,,
1478277302.40,1.037255,-1.148546,-2.556997,-0.249743,0.489932,0.064526,0.352854,0.912169,-0.208425,-0.591883,0.307451,0.162405,6.977154,40.275681,10.389271,,,,,,
1478277302.42,1.046045,-1.153887,-2.554582,-0.079355,0.091747,-0.395701,0.350452,0.914345,-0.202872,-0.531742,0.371819,-0.074517,6.977154,40.275681,10.389271,,,,,,
1478277302.44,1.032502,-1.164483,-2.565951,-0.192245,-0.169227,-0.559815,0.339335,0.918584,-0.202621,-0.194239,0.533473,0.677337,6.734048,40.231815,10.714548,,,,,,
1478277302.47,1.052015,-1.183455,-2.547004,-1.103167,0.287133,-0.656988,0.328028,0.925917,-0.187286,-0.440851,0.486177,0.618011,6.070181,40.269100,10.968161,,,,,,
1478277302.49,1.114993,-1.215003,-2.490481,-1.755791,0.546900,-1.010680,0.312772,0.937370,-0.153331,-0.425595,0.474724,0.584056,5.596522,40.132652,11.696028,,,,,,
1478277302.51,1.192172,-1.256702,-2.413724,-1.958184,-0.080945,-1.440779,0.287073,0.951077,-0.114203,-0.519266,0.341495,0.155737,4.044300,39.586899,13.973873,,,,,,
1478277302.53,1.323815,-1.300403,-2.270598,-2.868484,-0.290174,-1.236551,0.259005,0.963666,-0.065303,0.062269,0.360370,0.665629,4.044300,39.586899,13.973873,,,,,,
1478277302.55,1.560358,-1.327578,-2.020147,-3.041305,-0.148922,-0.673348,0.240814,0.970568,-0.002514,0.469421,0.332990,0.122753,2.511305,38.492752,17.051373,,,,,,
1478277302.57,1.801432,-1.331832,-1.780861,-2.498836,0.776186,-0.438802,0.230429,0.971584,0.054108,0.577157,0.485661,-0.439026,2.098032,37.621681,18.946117,,,,,,
1478277302.59,2.035080,-1.325226,-1.560001,-2.375842,0.711354,-0.599189,0.217375,0.969999,0.108860,0.452303,0.370959,-0.514683,1.111452,35.956856,22.014021,,,,,,
1478277302.61,2.207380,-1.310538,-1.392024,-1.862563,0.690774,-0.320396,0.206927,0.966324,0.152970,0.191679,0.162216,-0.296464,0.539742,35.113354,23.356133,,,,,,
1478277302.63,2.346303,-1.291922,-1.252577,-1.937218,-0.018327,-0.588667,0.196564,0.961366,0.192713,-0.276230,0.506286,-0.298655,-0.217202,33.611816,25.474430,,,,,,
1478277302.66,2.463712,-1.271135,-1.124280,-1.905397,-0.376672,-0.740456,0.185131,0.955436,0.229930,-0.264797,0.512215,-0.335872,-0.217202,33.611816,25.474430,,,,,,
1478277302.68,2.581947,-1.251527,-0.986964,-1.837343,-0.991856,-1.242157,0.166631,0.949465,0.265990,-0.195546,0.535307,-0.336424,-0.697156,32.000164,27.463638,,,,,,
1478277302.70,2.672691,-1.229652,-0.851588,-1.912153,-1.942942,-1.277951,0.151193,0.942372,0.298454,-0.054589,-0.063817,-0.502419,-0.973847,31.150049,28.416090,,,,,,
1478277302.72,2.736715,-1.206015,-0.736727,-1.815634,-2.277527,-1.195467,0.140524,0.934202,0.327902,0.010294,-0.295850,-0.560446,-0.504781,29.365602,30.268047,,,,,,
1478277302.74,2.772884,-1.178648,-0.637501,-1.802716,-2.734344,-1.038536,0.137740,0.924090,0.356490,0.088060,-0.490603,-0.619261,-0.504781,29.365602,30.268047,,,,,,
1478277302.76,2.787710,-1.156561,-0.565836,-1.210096,-2.248586,-0.763391,0.139480,0.915424,0.377549,0.134873,-0.656559,-0.588334,1.795473,26.801590,32.514595,,,,,,
1478277302.78,2.786490,-1.145258,-0.523113,-0.551596,-1.712272,-0.493773,0.143529,0.910817,0.387056,0.102458,-0.643589,-0.547182,1.795473,26.801590,32.514595,,,,,,
1478277302.80,2.775354,-1.144228,-0.499117,-0.000877,-1.499796,-0.393394,0.148166,0.910391,0.386309,0.043881,-0.521826,-0.598223,3.292634,26.020779,33.027645,,,,,,
,,,,,,,,,,,,,,,,37.352972,-122.034856,53.335205,0.970000,-1.000000,1478280764.00
1478277302.83,2.754866,-1.154252,-0.488787,0.584782,-1.299244,-0.344846,0.152600,0.914493,0.374722,0.096287,-0.646792,-0.423520,3.926456,25.969645,32.998611,,,,,,
1478277302.85,2.731923,-1.176104,-0.495272,1.247722,-0.416110,-0.249360,0.153159,0.923115,0.352706,0.095727,-0.655415,-0.401504,4.981068,26.559196,32.381260,,,,,,
1478277302.87,2.712567,-1.208847,-0.524597,1.811476,0.844330,-0.097262,0.147300,0.935208,0.322007,0.169061,-0.564710,-0.227936,4.981068,26.559196,32.381260,,,,,,
1478277302.89,2.683756,-1.246055,-0.586030,2.072360,1.561577,0.306393,0.141029,0.947733,0.286204,0.310860,-0.043131,0.165212,4.144810,29.033182,30.309124,,,,,,
1478277302.91,2.613213,-1.279022,-0.689937,1.989507,0.998527,0.703744,0.145015,0.957735,0.248424,-0.009716,0.515379,0.596440,4.144810,29.033182,30.309124,,,,,,
1478277302.93,2.517768,-1.296086,-0.787536,0.809303,-0.815537,0.524253,0.158460,0.962504,0.220175,-0.023160,0.510610,0.624689,3.495122,30.869591,28.523685,,,,,,
1478277302.95,2.490055,-1.291897,-0.782953,-0.510947,-1.439726,-0.193143,0.166943,0.961359,0.218903,-0.945111,1.498358,1.354461,4.701344,31.330769,27.839327,,,,,,
1478277302.97,2.539434,-1.290076,-0.721422,-0.672031,0.136351,-0.800228,0.156926,0.960856,0.228320,-0.935094,1.498861,1.345045,4.992490,31.140779,28.001339,,,,,,
1478277303.00,2.633366,-1.286153,-0.635838,-0.559818,0.550330,-0.746844,0.136653,0.959762,0.245323,-0.142344,0.318284,0.333596,4.992490,31.140779,28.001339,,,,,,
1478277303.02,2.643994,-1.293916,-0.636712,0.937928,0.737355,0.171183,0.130477,0.961913,0.240206,0.158036,-0.611495,-0.451831,3.864969,30.626160,28.737579,,,,,,
1478277303.04,2.561860,-1.320963,-0.749530,2.227106,1.592417,0.716014,0.135439,0.968954,0.206845,0.276380,-0.140371,-0.766355,3.250765,31.272446,28.110756,,,,,,
1478277303.06,2.434387,-1.347616,-0.924092,1.862897,2.097144,0.665185,0.143802,0.975199,0.168252,0.225018,0.525915,-0.382944,2.910909,32.197094,27.085453,,,,,,
1478277303.08,2.393131,-1.364309,-0.998099,0.754092,1.017856,-0.319884,0.139520,0.978757,0.150228,0.062918,0.137210,0.255198,1.862734,33.535904,25.507278,,,,,,
1478277303.10,2.371105,-1.384949,-1.042580,1.209790,1.245462,-0.261778,0.128696,0.982780,0.132592,0.217175,-0.381324,0.084083,1.277769,33.871799,25.096142,,,,,,
1478277303.12,2.257212,-1.400831,-1.193517,1.522883,1.805927,0.654913,0.130840,0.985591,0.107201,0.285115,-0.592723,0.122734,1.277769,33.871799,25.096142,,,,,,
1478277303.14,2.051935,-1.399437,-1.445719,1.702662,2.100502,1.434508,0.151162,0.985354,0.078916,0.341910,-0.397768,0.031573,0.241251,34.905918,23.669952,,,,,,
1478277303.17,1.833738,-1.382109,-1.702157,1.585980,1.094391,1.531264,0.181123,0.982251,0.048754,0.103957,0.025653,-0.408129,0.255274,36.118309,21.774998,,,,,,
1478277303.19,1.693277,-1.355621,-1.846491,0.824487,-0.544740,1.344819,0.211919,0.976939,0.026087,-0.326192,0.218175,-0.702341,0.776311,36.638664,20.874714,,,,,,
1478277303.21,1.605894,-1.342473,-1.923145,0.810970,-0.390089,0.345940,0.226205,0.974047,0.007943,-0.621087,0.248823,-0.013176,2.363300,37.141907,19.840403,,,,,,
1478277303.23,1.522660,-1.339786,-2.017047,1.054644,0.474153,0.027111,0.228696,0.973436,-0.011017,-0.469312,0.080855,-0.119522,2.363300,37.141907,19.840403,,,,,,
1478277303.25,1.408281,-1.338895,-2.131220,1.429216,-0.423705,-0.107025,0.226800,0.973231,-0.037187,-0.467416,0.081060,-0.093352,2.378939,37.735172,18.685431,,,,,,
1478277303.27,1.297283,-1.334174,-2.252074,1.117404,0.936310,-0.060360,0.225706,0.972135,-0.063321,0.116380,-0.064939,0.267010,2.398319,38.113819,17.897846,,,,,,
1478277303.29,1.240291,-1.325498,-2.329850,0.988074,0.546709,0.275791,0.229703,0.970065,-0.078809,0.290698,0.010267,-0.040302,2.056052,38.777935,16.455769,,,,,,
1478277303.31,1.175740,-1.307180,-2.398741,1.069681,0.039987,0.638270,0.240503,0.965454,-0.100284,0.146429,-0.065750,0.120899,2.083360,39.023136,15.861981,,,,,,
1478277303.33,1.140147,-1.283116,-2.448982,1.021800,0.990516,0.850482,0.257823,0.958905,-0.118446,-0.027217,-0.155957,0.169624,2.787132,39.486919,14.552074,,,,,,
1478277303.36,1.131372,-1.256364,-2.484153,0.961306,1.060106,0.982686,0.279894,0.950972,-0.131572,-0.154498,-0.168547,-0.129857,2.787132,39.486919,14.552074,,,,,,
1478277303.38,1.106496,-1.228214,-2.520679,1.216068,0.070364,0.926720,0.300358,0.941890,-0.150424,-0.253377,-0.149822,-0.321683,3.477069,39.832943,13.416204,,,,,,
1478277303.40,1.051099,-1.196191,-2.575706,1.640415,-0.178915,0.882812,0.317595,0.930652,-0.181715,-0.175871,-0.073947,0.233244,4.007594,40.007950,12.729934,,,,,,
1478277303.42,1.012521,-1.164371,-2.623086,1.340305,0.499835,0.804932,0.335306,0.918540,-0.209415,-0.193582,-0.061835,0.260944,5.187386,40.453461,10.740410,,,,,,
1478277303.44,0.998097,-1.139524,-2.648261,0.882600,0.192693,0.702767,0.351327,0.908435,-0.226530,-0.330514,-0.006182,0.431120,5.187386,40.453461,10.740410,,,,,,
1478277303.46,0.997227,-1.121465,-2.650839,0.234808,0.163950,0.676526,0.364852,0.900738,-0.235700,-0.620986,0.332325,0.626615,6.481631,40.704353,8.938240,,,,,,
1478277303.48,1.021297,-1.114039,-2.636672,-0.159642,0.741006,0.272088,0.376113,0.897487,-0.230338,-0.739532,0.412358,0.212821,6.481631,40.704353,8.938240,,,,,,
1478277303.50,1.044652,-1.116588,-2.627991,-0.229753,0.610896,-0.173467,0.379410,0.898609,-0.220342,-0.680649,0.380322,-0.088954,6.901668,40.600883,9.093033,,,,,,
1478277303.53,1.037304,-1.126507,-2.638476,0.094502,-0.286858,-0.702874,0.370087,0.902917,-0.218580,-0.415924,0.410087,-0.101214,6.755998,40.575058,9.315004,,,,,,
1478277303.55,1.004185,-1.140764,-2.658276,-0.268713,-0.751885,-0.749606,0.351749,0.908952,-0.223782,-0.112766,0.524458,0.498913,6.019504,40.699226,9.278271,,,,,,
1478277303.57,1.024319,-1.166269,-2.633965,-1.453088,0.337045,-0.902610,0.336263,0.919288,-0.204539,-0.268880,0.591072,0.873118,6.019504,40.699226,9.278271,,,,,,
1478277303.59,1.093027,-1.207959,-2.576532,-1.972953,0.754448,-1.421081,0.315185,0.934893,-0.163196,-0.445876,0.450513,0.127277,4.252668,40.385834,11.386269,,,,,,
1478277303.61,1.166662,-1.256618,-2.498365,-2.264710,-0.577456,-1.527709,0.284140,0.951051,-0.121520,-0.414832,0.434356,0.085600,4.252668,40.385834,11.386269,,,,,,
1478277303.63,1.319366,-1.302957,-2.315759,-3.478144,-1.022880,-1.051047,0.256327,0.964345,-0.065842,-0.062068,0.371318,0.513519,2.346718,39.671715,14.120758,,,,,,
1478277303.65,1.583201,-1.328183,-2.038318,-3.190989,0.239694,-0.666086,0.240222,0.970713,0.002980,0.469022,0.438222,-0.319081,1.466749,38.014000,18.208031,,,,,,
1478277303.67,1.861294,-1.331530,-1.768077,-2.966102,0.973542,-0.594064,0.227060,0.971512,0.067881,0.503469,0.489044,-0.585825,0.946345,37.094082,20.046976,,,,,,
1478277303.70,2.125085,-1.316089,-1.519093,-2.670662,1.014768,-0.399611,0.214238,0.967737,0.132618,0.516292,0.492819,-0.650562,0.946345,37.094082,20.046976,,,,,,
1478277303.72,2.258003,-1.301648,-1.393908,-1.379551,-0.258581,-0.416034,0.205554,0.963998,0.168689,0.055417,0.032996,-0.220340,-0.371450,35.078365,23.411926,,,,,,
1478277303.74,2.376046,-1.276076,-1.241307,-2.454027,-1.064530,-0.408766,0.201277,0.956884,0.209431,-0.074950,0.297923,-0.049443,-0.698427,33.679653,25.375996,,,,,,
1478277303.76,2.486124,-1.245906,-1.111473,-2.172733,-0.538436,-0.616918,0.194565,0.947686,0.253054,-0.246812,0.610984,-0.151125,-0.467473,32.662621,26.677378,,,,,,
1478277303.78,2.584625,-1.219063,-0.991975,-2.174351,-0.928347,-0.930088,0.182121,0.938777,0.292454,-0.254356,0.330037,-0.462346,-0.608182,30.734333,28.875227,,,,,,
,,,,,,,,,,,,,,,,37.352960,-122.034850,52.207336,0.970000,169.453125,1478280765.00
1478277303.80,2.666483,-1.186450,-0.873248,-2.322203,-1.427797,-1.024049,0.171517,0.927044,0.333424,-0.165231,-0.036022,-0.568181,-0.515530,29.662775,29.976688,,,,,,
1478277303.82,2.724553,-1.152639,-0.771476,-2.241558,-1.959110,-0.992294,0.164484,0.913839,0.371273,-0.011560,-0.248998,-0.628674,-0.515530,29.662775,29.976688,,,,,,
1478277303.84,2.752151,-1.117286,-0.685566,-2.088900,-2.474269,-0.876889,0.166343,0.898915,0.405318,0.062996,-0.497456,-0.696089,0.146086,27.408251,32.054863,,,,,,
1478277303.86,2.760411,-1.090412,-0.623107,-1.403404,-2.050284,-0.645660,0.171917,0.886817,0.428952,0.089161,-0.564979,-0.614285,1.887305,25.251215,33.727764,,,,,,
1478277303.89,2.755415,-1.075294,-0.589498,-0.649550,-1.347842,-0.314910,0.179087,0.879730,0.440457,0.081990,-0.557892,-0.625791,2.739675,24.515987,34.208313,,,,,,
1478277303.91,2.748496,-1.073726,-0.575024,0.058348,-0.812721,-0.286442,0.182659,0.878983,0.440482,-0.065090,-0.551896,-0.523230,3.861970,23.939304,34.507141,,,,,,
1478277303.93,2.735917,-1.086028,-0.569108,0.758287,-0.866773,-0.403083,0.183904,0.884783,0.428180,-0.052342,-0.600161,-0.521046,3.861970,23.939304,34.507141,,,,,,
1478277303.95,2.713943,-1.113844,-0.572994,1.520095,-0.790798,-0.465901,0.182987,0.897402,0.401480,-0.036853,-0.700578,-0.438712,4.514107,24.520092,34.016701,,,,,,
1478277303.97,2.684433,-1.155842,-0.598156,2.260096,0.061516,-0.321194,0.177950,0.915135,0.361749,0.027799,-0.701039,-0.196420,4.793730,25.266731,33.426941,,,,,,
1478277303.99,2.642622,-1.201863,-0.658619,2.418004,0.940839,0.142338,0.172565,0.932713,0.316652,0.155652,-0.348469,0.128721,4.595697,27.528564,31.619705,,,,,,
1478277304.01,2.584806,-1.232036,-0.738359,1.368261,0.461479,0.523529,0.175617,0.943167,0.282124,0.014294,0.491388,0.659007,4.210820,28.701141,30.614727,,,,,,
1478277304.03,2.553421,-1.228668,-0.758633,-0.600624,-1.059218,0.124641,0.186145,0.942043,0.279115,-0.429141,1.470646,1.090590,4.468149,29.602468,29.706524,,,,,,
1478277304.06,2.570825,-1.218933,-0.722354,-0.641551,-0.487355,-0.455019,0.186205,0.938732,0.290016,-0.429202,1.473957,1.079689,4.468149,29.602468,29.706524,,,,,,
1478277304.08,2.615345,-1.218337,-0.672593,-0.331299,0.023371,-0.742083,0.173395,0.938527,0.298500,0.038947,0.256725,0.507469,4.965560,29.007151,30.210533,,,,,,
1478277304.10,2.644866,-1.221949,-0.641338,0.095194,0.037267,-0.305448,0.162892,0.939767,0.300505,0.152019,-0.561365,-0.180632,4.659906,28.865635,30.394218,,,,,,
1478277304.12,2.621562,-1.233038,-0.676827,1.168103,0.841890,0.530728,0.164661,0.943500,0.287566,0.203060,0.113156,-0.370177,4.262324,28.992954,30.331326,,,,,,
1478277304.14,2.572394,-1.254541,-0.768473,1.631885,2.405540,0.591896,0.167621,0.950407,0.261974,-0.068057,0.931124,-0.266308,4.262324,28.992954,30.331326,,,,,,
1478277304.16,2.605960,-1.269852,-0.789530,-0.029609,2.298124,-0.595028,0.151289,0.955057,0.254907,-0.382612,1.018011,0.096015,2.290203,30.722034,28.803814,,,,,,
1478277304.18,2.720436,-1.263684,-0.707557,-0.523857,1.351512,-0.906170,0.123588,0.953210,0.275891,0.092766,-0.319925,-0.212262,2.290203,30.722034,28.803814,,,,,,
1478277304.20,2.761601,-1.274297,-0.684921,0.688335,0.668203,-0.044625,0.108371,0.956365,0.271333,0.653973,-1.621190,-0.533571,-0.105947,30.242052,29.396515,,,,,,
1478277304.23,2.667213,-1.304769,-0.790580,2.829875,0.454393,0.959113,0.120090,0.964823,0.233871,0.624051,-1.430704,-0.365233,-0.677166,30.462166,29.160692,,,,,,
1478277304.25,2.466788,-1.360921,-1.053431,3.862094,4.077287,1.037740,0.130158,0.978057,0.162676,-0.317673,-0.287124,-0.416109,-0.566920,32.667229,26.669806,,,,,,
1478277304.27,2.263214,-1.374312,-1.350951,1.441111,3.236281,1.736127,0.150263,0.980759,0.124630,-0.365473,0.847274,-0.526348,-0.566920,32.667229,26.669806,,,,,,
1478277304.29,2.145716,-1.366297,-1.471640,0.540795,-1.728441,0.488659,0.170429,0.979163,0.110427,-0.497486,0.452844,0.074327,-1.781256,35.374035,22.896570,,,,,,
1478277304.31,2.033839,-1.369250,-1.547758,0.828801,-1.094626,0.257702,0.179105,0.979758,0.089417,0.002627,-0.406562,0.042907,-1.781256,35.374035,22.896570,,,,,,
1478277304.33,1.890689,-1.370769,-1.689433,1.418984,-0.341496,0.499346,0.188616,0.980061,0.062483,-0.006884,-0.406865,0.069841,-0.342450,35.905087,22.123644,,,,,,
1478277304.35,1.704724,-1.368055,-1.855556,1.472998,-1.334189,0.462131,0.199552,0.979518,0.026887,-0.045683,-0.185634,-0.185013,0.592217,36.865421,20.477739,,,,,,
1478277304.37,1.544031,-1.360190,-1.999113,1.309354,-0.541580,0.465040,0.208978,0.977904,-0.005595,-0.003946,-0.152694,-0.054113,1.250606,37.314953,19.615765,,,,,,
1478277304.40,1.427956,-1.347065,-2.127300,1.423466,0.992047,0.518859,0.219610,0.975076,-0.031584,0.111154,0.085394,-0.001115,1.250606,37.314953,19.615765,,,,,,
1478277304.42,1.328259,-1.327816,-2.252590,1.557467,0.856261,0.696793,0.233555,0.970625,-0.057783,0.046765,0.161302,-0.042238,1.868623,38.493618,17.131760,,,,,,
1478277304.44,1.237227,-1.301946,-2.363800,1.606587,0.878211,0.838116,0.250982,0.964077,-0.086970,-0.096105,-0.035946,0.135310,1.868623,38.493618,17.131760,,,,,,
1478277304.46,1.177044,-1.272925,-2.454266,1.606303,1.445343,0.830148,0.271027,0.955963,-0.112598,-0.261262,-0.103440,0.114032,2.413806,39.265648,15.202967,,,,,,
1478277304.48,1.135209,-1.244955,-2.529438,1.469015,1.251689,0.748823,0.290215,0.947382,-0.135066,-0.243859,-0.087198,-0.103947,2.805725,39.912300,13.337328,,,,,,
1478277304.50,1.097125,-1.216556,-2.585568,1.338764,0.318149,0.850767,0.308686,0.937910,-0.158231,-0.262330,-0.077727,-0.080783,3.085322,40.169094,12.476891,,,,,,
1478277304.52,1.056629,-1.188014,-2.625318,1.169880,-0.317148,0.842943,0.325210,0.927629,-0.183693,-0.160644,0.124266,0.157417,3.085322,40.169094,12.476891,,,,,,
1478277304.54,1.030720,-1.164593,-2.650877,0.784283,0.149934,0.628341,0.338886,0.918628,-0.203174,-0.521335,0.349423,0.656375,4.166125,40.543354,10.845623,,,,,,
1478277304.56,1.038928,-1.152892,-2.660307,0.229338,1.109725,0.220541,0.349783,0.913942,-0.205823,-0.626104,0.222502,0.512326,4.964793,40.721191,9.792000,,,,,,
1478277304.59,1.063137,-1.152172,-2.661368,-0.033745,1.096603,-0.045474,0.355238,0.913649,-0.197615,-0.451963,0.243974,0.184752,4.938517,40.740692,9.723953,,,,,,
1478277304.61,1.076785,-1.153735,-2.658460,-0.125275,0.116171,-0.014415,0.356643,0.914283,-0.192071,-0.420150,0.284539,-0.035071,4.615181,40.734798,9.905762,,,,,,
1478277304.63,1.071349,-1.157148,-2.657388,-0.026322,-0.448707,-0.249914,0.352853,0.915661,-0.192511,-0.384286,0.393803,-0.027383,4.615181,40.734798,9.905762,,,,,,
1478277304.65,1.058918,-1.165457,-2.664104,-0.243162,-0.080334,-0.446311,0.343788,0.918969,-0.193149,-0.313163,0.403053,0.374531,4.508202,40.729492,9.976605,,,,,,
1478277304.67,1.092731,-1.182811,-2.638719,-1.090945,0.753228,-0.577410,0.335909,0.925673,-0.174053,-0.494295,0.268617,0.523601,4.270003,40.742298,10.028963,,,,,,
1478277304.69,1.162531,-1.211538,-2.580565,-1.715132,0.594588,-0.942130,0.322684,0.936158,-0.139583,-0.481070,0.258132,0.489132,3.332958,40.480175,11.357593,,,,,,
1478277304.71,1.254138,-1.250259,-2.486060,-2.242587,-0.190870,-1.288669,0.299411,0.949066,-0.098113,-0.559467,0.259628,0.242201,2.619085,40.200172,12.483377,,,,,,
1478277304.73,1.409892,-1.290280,-2.308646,-3.216857,-0.846886,-1.142737,0.273276,0.960913,-0.044355,-0.081091,0.612772,0.397062,1.171677,39.199959,15.515739,,,,,,
1478277304.76,1.634615,-1.313583,-2.053399,-3.105023,-1.139504,-0.804698,0.253869,0.967103,0.016224,0.246894,0.457473,-0.491153,1.171677,39.199959,15.515739,,,,,,
1478277304.78,1.862020,-1.318094,-1.801430,-2.824645,-0.194367,-0.717131,0.239494,0.968240,0.071787,0.261269,0.456335,-0.546717,0.591159,37.449799,19.388428,,,,,,
,,,,,,,,,,,,,,,,37.352949,-122.034844,52.832886,0.970000,-1.000000,1478280766.00
1478277304.80,2.094226,-1.308568,-1.576003,-2.517923,0.773737,-0.645872,0.224525,0.965815,0.129579,0.466012,0.303091,-0.436036,0.370868,36.530224,21.074947,,,,,,
1478277304.82,2.269044,-1.287823,-1.395379,-2.438480,-0.287430,-0.364744,0.213868,0.960230,0.179498,0.399810,0.132834,-0.044824,-0.745289,34.673138,23.999290,,,,,,
1478277304.84,2.392201,-1.256546,-1.261965,-2.291389,-0.138945,-0.216667,0.210559,0.951028,0.226296,0.035504,0.229636,-0.068886,-0.745289,34.673138,23.999290,,,,,,
1478277304.86,2.488258,-1.228488,-1.156538,-1.973810,-0.415619,-0.465473,0.204028,0.941982,0.266536,-0.244052,0.341083,-0.406475,-1.011075,31.854416,27.622849,,,,,,
1478277304.88,2.578012,-1.197429,-1.046231,-2.339548,-0.834550,-0.741288,0.194857,0.931104,0.308343,-0.286837,0.313769,-0.262597,-1.011075,31.854416,27.622849,,,,,,
1478277304.90,2.640869,-1.163853,-0.931629,-2.473444,-2.481435,-1.055847,0.190010,0.918335,0.347213,-0.368476,0.186874,-0.726928,-0.990096,29.811380,29.816929,,,,,,
1478277304.93,2.683020,-1.128997,-0.828158,-2.349294,-2.552105,-1.046877,0.189270,0.903984,0.383393,-0.046921,-0.334541,-0.657853,-0.369336,28.626579,30.969833,,,,,,
1478277304.95,2.708574,-1.094718,-0.735069,-2.208906,-2.752259,-1.030535,0.192307,0.888799,0.415998,0.031554,-0.569204,-0.648679,1.310689,26.228376,33.001549,,,,,,
1478277304.97,2.718934,-1.066025,-0.664425,-1.648977,-2.216780,-0.758595,0.198369,0.875285,0.441051,0.025492,-0.555690,-0.673732,1.310689,26.228376,33.001549,,,,,,
1478277304.99,2.717899,-1.047904,-0.620832,-0.918559,-1.638561,-0.466327,0.205313,0.866379,0.455230,0.018579,-0.572326,-0.576034,4.130529,23.472870,34.795273,,,,,,
1478277305.01,2.710693,-1.042469,-0.597166,-0.191251,-1.144894,-0.392253,0.210552,0.863652,0.458011,-0.040798,-0.462178,-0.560199,4.130529,23.472870,34.795273,,,,,,
1478277305.03,2.698871,-1.051167,-0.584908,0.515029,-1.016475,-0.494731,0.212726,0.868003,0.448684,-0.051685,-0.445930,-0.582977,5.300996,23.017887,34.940292,,,,,,
1478277305.05,2.681951,-1.076180,-0.580975,1.346434,-0.906434,-0.639648,0.210587,0.880151,0.425427,0.009139,-0.538155,-0.537670,6.030571,23.800144,34.291885,,,,,,
1478277305.07,2.654846,-1.118992,-0.597399,2.314727,-0.279609,-0.546975,0.204216,0.899661,0.385883,0.075905,-0.621661,-0.345554,6.225073,24.722404,33.597607,,,,,,
1478277305.10,2.615120,-1.171869,-0.653085,2.866010,1.041587,-0.026272,0.195181,0.921478,0.335831,0.176645,-0.429931,0.056259,6.225073,24.722404,33.597607,,,,,,
1478277305.12,2.553263,-1.212086,-0.754662,2.063803,1.554956,0.801588,0.194832,0.936350,0.292042,-0.150383,1.500860,1.659649,5.133821,28.719297,30.456425,,,,,,
1478277305.14,2.510929,-1.209516,-0.809919,-0.421375,-0.363668,0.562242,0.208436,0.935445,0.285477,-0.163987,1.501765,1.666214,5.133821,28.719297,30.456425,,,,,,
1478277305.16,2.508436,-1.200269,-0.788415,-0.528369,-1.295213,-0.307472,0.214256,0.932136,0.291918,-0.621147,1.909645,1.165159,5.395975,29.112925,30.034464,,,,,,
1478277305.18,2.519182,-1.202078,-0.753241,-0.137805,-0.735181,-0.602420,0.210123,0.932790,0.292833,0.058050,0.077906,0.477477,6.202702,28.744770,30.232643,,,,,,
1478277305.20,2.533760,-1.206161,-0.731773,0.002906,-0.029781,-0.160054,0.203656,0.934254,0.292736,0.086826,-0.475895,0.210209,6.194208,28.752659,30.226883,,,,,,
1478277305.22,2.514300,-1.211535,-0.763244,0.946730,0.892768,0.447486,0.206363,0.936157,0.284648,0.010876,-0.359542,-0.181804,6.194208,28.752659,30.226883,,,,,,
1478277305.24,2.475876,-1.234909,-0.846364,2.009183,2.469666,0.324209,0.203573,0.944118,0.259228,-0.115759,0.528202,-0.631527,6.017836,29.052330,29.974918,,,,,,
1478277305.26,2.462397,-1.261208,-0.921909,1.179227,2.614534,-0.111468,0.191382,0.952459,0.237054,-0.187674,0.556589,-0.186914,4.318748,30.652191,28.645063,,,,,,
1478277305.29,2.520914,-1.273061,-0.899541,-0.108020,1.364854,-0.788339,0.170612,0.956003,0.238641,-0.166904,0.553045,-0.188500,3.102858,31.188068,28.220995,,,,,,
1478277305.31,2.561626,-1.290244,-0.880527,1.139527,0.880432,-0.461877,0.151733,0.960903,0.231610,0.383531,-0.968181,-0.567318,1.186376,31.418610,28.110699,,,,,,
1478277305.33,2.474266,-1.322648,-0.989604,2.438495,0.889533,0.619599,0.152005,0.969369,0.192921,0.628406,-0.992806,-0.200993,0.713151,32.096348,27.350756,,,,,,
1478277305.35,2.255037,-1.346550,-1.243994,2.820198,1.948412,1.443175,0.172315,0.974962,0.140558,0.223040,-0.307726,-0.050164,0.713151,32.096348,27.350756,,,,,,
1478277305.37,2.037025,-1.346618,-1.526820,2.121534,2.730521,1.737615,0.198579,0.974977,0.099931,-0.427766,0.543242,-0.523607,0.765921,34.236809,24.617111,,,,,,
1478277305.39,1.902423,-1.327860,-1.682900,0.775827,-0.637215,1.040670,0.227447,0.970636,0.078320,-0.900466,1.134589,-0.827160,0.801324,35.820400,22.248703,,,,,,
1478277305.41,1.802079,-1.325430,-1.752756,0.730470,-1.374932,0.067573,0.236444,0.970048,0.055682,-0.799478,0.380461,0.041593,1.591741,36.091663,21.762491,,,,,,
1478277305.43,1.720853,-1.327897,-1.834141,1.156267,0.342587,0.101529,0.237815,0.970645,0.035956,0.083733,-0.364123,-0.617316,2.382328,36.623478,20.779634,,,,,,
1478277305.46,1.569159,-1.324464,-1.965869,1.627595,-1.732262,0.399501,0.243848,0.969813,-0.000399,0.077701,-0.363292,-0.580961,2.382328,36.623478,20.779634,,,,,,
1478277305.48,1.441420,-1.313151,-2.091162,1.416929,0.868545,0.341565,0.252674,0.966993,-0.032874,-0.003636,-0.125135,0.075080,3.293291,37.517536,18.982536,,,,,,
1478277305.50,1.372598,-1.300756,-2.196816,1.307298,1.670081,0.435129,0.261548,0.963760,-0.052528,0.037250,0.032639,0.003059,3.521724,37.928894,18.103714,,,,,,
1478277305.52,1.319300,-1.283517,-2.280462,1.254092,0.958184,0.627979,0.274430,0.959018,-0.070511,-0.037141,-0.067630,-0.074707,3.172494,38.620468,16.647608,,,,,,
1478277305.54,1.258263,-1.260326,-2.359595,1.397391,0.636155,0.805845,0.290707,0.952190,-0.093934,-0.053418,-0.060802,-0.051284,3.306250,38.914768,15.920354,,,,,,
1478277305.56,1.209653,-1.233753,-2.422594,1.234854,0.428332,0.889110,0.309366,0.943737,-0.116850,-0.310724,-0.019893,0.025618,4.028877,39.471119,14.301987,,,,,,
1478277305.58,1.168924,-1.207261,-2.471470,1.214683,0.124025,0.835308,0.327252,0.934646,-0.139082,-0.360485,0.062501,0.019591,4.028877,39.471119,14.301987,,,,,,
1478277305.60,1.125595,-1.181094,-2.520139,1.307197,0.143596,0.735472,0.342881,0.925022,-0.163606,-0.348771,0.131725,0.074021,5.006944,39.870686,12.806521,,,,,,
1478277305.63,1.085980,-1.156761,-2.571880,1.389698,0.513503,0.489756,0.355945,0.915505,-0.187493,-0.410709,0.274559,0.187219,5.474582,40.060841,11.996083,,,,,,
1478277305.65,1.051159,-1.138113,-2.623645,1.170826,0.560952,0.174751,0.363959,0.907844,-0.208214,-0.426643,0.231728,0.485878,5.983095,40.451923,10.324356,,,,,,
1478277305.67,1.042128,-1.128215,-2.647310,0.268807,0.652803,0.166898,0.369805,0.903649,-0.216014,-0.280434,0.129096,0.855968,5.983095,40.451923,10.324356,,,,,,
1478277305.69,1.067921,-1.127562,-2.638308,-0.299662,0.887767,0.068332,0.375771,0.903369,-0.206690,-0.500389,0.291730,0.005136,5.999479,40.653278,9.490264,,,,,,
1478277305.71,1.095888,-1.132586,-2.621449,-0.437817,0.382988,-0.153886,0.377362,0.905512,-0.194023,-0.627210,0.377523,-0.111427,5.999479,40.653278,9.490264,,,,,,
1478277305.73,1.100834,-1.144965,-2.618837,-0.255371,-0.013440,-0.715265,0.368295,0.910695,-0.187064,-0.618142,0.372340,-0.118387,5.728251,40.544147,10.104820,,,,,,
1478277305.75,1.109306,-1.166570,-2.612002,-0.904632,0.280269,-0.880511,0.352164,0.919407,-0.175133,-0.366446,0.437161,0.678368,4.798241,40.539371,10.596427,,,,,,
1478277305.77,1.177005,-1.199385,-2.555042,-1.876363,0.895979,-1.098975,0.335153,0.931816,-0.139254,-0.498651,0.420220,0.463762,4.134970,40.395004,11.397087,,,,,,
1478277305.79,1.271451,-1.242347,-2.467681,-1.970482,0.259833,-1.629092,0.308231,0.946544,-0.095126,-0.517383,0.484807,0.006198,4.134970,40.395004,11.397087,,,,,,
,,,,,,,,,,,,,,,,37.352937,-122.034836,54.978210,0.980000,169.804688,1478280767.00
1478277305.82,1.383488,-1.287000,-2.345988,-2.559862,-0.439927,-1.497470,0.275105,0.959999,-0.052141,-0.111409,0.449257,0.352144,1.185154,39.309647,15.234668,,,,,,
1478277305.84,1.614672,-1.315023,-2.092274,-3.387597,-0.609757,-0.851820,0.252750,0.967468,0.011097,0.314038,0.419571,0.523190,1.185154,39.309647,15.234668,,,,,,
1478277305.86,1.853644,-1.317063,-1.846536,-2.572491,0.602147,-0.427065,0.241045,0.967982,0.070057,0.532820,0.387471,-0.232991,0.155436,37.619759,19.065086,,,,,,
1478277305.88,2.085170,-1.304433,-1.641174,-2.559788,1.984527,-0.493098,0.229164,0.964734,0.129504,0.387978,0.299426,-0.582308,-0.920956,35.892391,22.127720,,,,,,
1478277305.90,2.287401,-1.278491,-1.453602,-2.733010,0.212309,-0.235616,0.217285,0.957582,0.189272,0.399857,0.306578,-0.642077,-1.840340,34.930820,23.562658,,,,,,
1478277305.92,2.399889,-1.250005,-1.343250,-1.524765,0.689766,-0.193287,0.213011,0.948986,0.232490,0.108415,0.088398,-0.622794,-1.840340,34.930820,23.562658,,,,,,
1478277305.94,2.477566,-1.229551,-1.246511,-2.125405,-1.379918,-0.675488,0.206249,0.942339,0.263551,-0.347912,0.441802,0.065749,-2.350799,33.113777,26.013451,,,,,,
1478277305.96,2.548896,-1.197185,-1.132626,-2.186832,-1.363282,-0.584813,0.203878,0.931015,0.302728,-0.139730,0.347580,-0.252817,-2.031661,31.411922,28.069759,,,,,,
1478277305.99,2.613210,-1.170472,-1.034016,-2.013429,-1.648579,-0.916059,0.196471,0.920935,0.336569,-0.167906,0.127771,-0.638326,-1.699179,30.395569,29.188530,,,,,,
1478277306.01,2.654827,-1.142413,-0.941494,-1.915745,-1.970773,-0.885252,0.194312,0.909639,0.367152,-0.004401,-0.193803,-0.553798,-0.893176,28.425501,31.143877,,,,,,
1478277306.03,2.682599,-1.115542,-0.860898,-1.899730,-2.309643,-0.842814,0.194803,0.898149,0.394182,0.071203,-0.299104,-0.668367,-0.284293,27.476585,31.995384,,,,,,
1478277306.05,2.693113,-1.086712,-0.790180,-1.781226,-2.470628,-0.687405,0.201795,0.885102,0.419373,0.097277,-0.364014,-0.754243,-0.284293,27.476585,31.995384,,,,,,
1478277306.07,2.692995,-1.065746,-0.741393,-1.062618,-1.677980,-0.457228,0.209847,0.875150,0.435978,0.042640,-0.569806,-0.577304,1.551287,25.527271,33.536545,,,,,,
1478277306.09,2.688685,-1.057701,-0.717303,-0.299281,-0.934866,-0.263839,0.214798,0.871229,0.441385,0.037689,-0.565886,-0.582712,3.113377,24.304272,34.327209,,,,,,
1478277306.11,2.680032,-1.062555,-0.710435,0.374839,-0.624281,-0.274526,0.216724,0.873602,0.435719,-0.031787,-0.473974,-0.519718,3.526332,24.154606,34.392845,,,,,,
1478277306.13,2.666392,-1.080299,-0.710114,0.957150,-0.711422,-0.443179,0.215520,0.882099,0.418871,-0.077504,-0.477146,-0.468615,3.992976,24.675270,33.969620,,,,,,
1478277306.16,2.642247,-1.109535,-0.717293,1.491672,-0.869035,-0.521735,0.213126,0.895492,0.390732,-0.071265,-0.548675,-0.354096,4.217635,25.290691,33.486423,,,,,,
1478277306.18,2.608106,-1.146821,-0.741552,1.907168,-0.286449,-0.350685,0.209206,0.911461,0.354221,-0.067345,-0.564644,-0.317584,4.217635,25.290691,33.486423,,,,,,
1478277306.20,2.568285,-1.182038,-0.792355,1.842474,0.637260,0.115439,0.205597,0.925380,0.318436,0.073090,0.018452,0.254410,4.532941,27.081656,32.012253,,,,,,
1478277306.22,2.525704,-1.204518,-0.855218,1.181001,0.678219,0.376695,0.206894,0.933667,0.292338,-0.206024,0.656391,0.808034,4.105388,28.895813,30.445454,,,,,,
1478277306.24,2.509272,-1.207017,-0.875584,-0.235171,-0.287651,0.048716,0.210289,0.934559,0.287016,-0.538125,1.279324,1.293261,3.959121,29.427219,29.951832,,,,,,
1478277306.26,2.517607,-1.198670,-0.846455,-0.666059,-1.155630,-0.311290,0.212441,0.931556,0.295080,-0.334816,1.144448,0.905619,4.362273,29.195791,30.121826,,,,,,
1478277306.28,2.537197,-1.196297,-0.799173,-0.504267,-1.011012,-0.749064,0.207875,0.930691,0.301002,0.021266,0.491184,0.527123,4.362273,29.195791,30.121826,,,,,,
1478277306.30,2.564262,-1.198562,-0.754877,-0.161607,-0.535977,-0.539933,0.198502,0.931517,0.304750,-0.025360,-0.397429,0.269743,4.887803,28.742258,30.475235,,,,,,
1478277306.33,2.544753,-1.208856,-0.768608,1.059766,-0.105130,0.223198,0.199009,0.935212,0.292873,-0.059315,-0.453476,-0.460949,4.882080,28.650698,30.562244,,,,,,
1478277306.35,2.459566,-1.237686,-0.873647,2.709816,1.215818,0.670073,0.206120,0.945030,0.253836,-0.035008,0.207176,-0.655265,5.087637,29.512749,29.696156,,,,,,
1478277306.37,2.322808,-1.275044,-1.067163,3.150672,2.778208,0.957086,0.212857,0.956583,0.199098,-0.041745,0.195623,-0.600527,5.087637,29.512749,29.696156,,,,,,
1478277306.39,2.253370,-1.295493,-1.195695,1.030815,1.716317,-0.050480,0.210934,0.962343,0.171474,-0.091809,0.722350,0.390645,3.315806,32.983418,26.073883,,,,,,
1478277306.41,2.265034,-1.303897,-1.180708,0.107357,-0.470666,-0.520609,0.202696,0.964593,0.168742,0.043870,-0.158044,0.319158,3.315806,32.983418,26.073883,,,,,,
1478277306.43,2.261783,-1.323111,-1.204724,1.109591,1.864169,-0.365912,0.188925,0.969482,0.156240,-0.020514,-0.786469,0.056879,2.741210,33.274532,25.768957,,,,,,
1478277306.45,2.209198,-1.339626,-1.314841,1.686719,2.779782,0.432058,0.183992,0.973399,0.136533,0.358626,-0.971446,-0.330274,1.967351,33.671398,25.320240,,,,,,
1478277306.47,2.062003,-1.345303,-1.526055,2.120598,2.455668,1.387562,0.197151,0.974684,0.105464,0.599785,-0.696287,-0.538600,0.249091,34.924118,23.643009,,,,,,
1478277306.49,1.868094,-1.323345,-1.733716,1.308424,-0.992128,2.023041,0.234189,0.969540,0.071750,0.234210,0.081943,-0.819416,0.249091,34.924118,23.643009,,,,,,
1478277306.52,1.762959,-1.295230,-1.814400,0.411333,-1.086695,1.019913,0.267083,0.962271,0.051965,-1.262201,0.715753,-0.106027,2.713605,36.414776,21.103275,,,,,,
1478277306.54,1.707266,-1.295449,-1.890900,1.412882,1.778922,-0.259355,0.269353,0.962331,0.036988,-1.264470,0.715693,-0.091050,2.713605,36.414776,21.103275,,,,,,
1478277306.56,1.618868,-1.308167,-2.016600,1.597983,1.303428,-0.536583,0.259320,0.965711,0.012475,-0.956967,0.098956,0.235083,2.512296,37.036324,20.018669,,,,,,
1478277306.58,1.523833,-1.317056,-2.134034,1.298470,0.558227,-0.273437,0.250749,0.967980,-0.011785,0.100966,-0.232659,-0.296595,1.206410,38.002808,18.250458,,,,,,
1478277306.60,1.432625,-1.316177,-2.226099,0.977911,-0.321749,0.099380,0.249476,0.967759,-0.034692,0.374150,-0.111451,0.018090,1.015774,38.350765,17.519558,,,,,,
1478277306.62,1.374388,-1.304149,-2.280965,0.635757,-0.214875,0.658780,0.258433,0.964660,-0.051421,0.278799,0.004273,0.080657,1.015774,38.350765,17.519558,,,,,,
1478277306.64,1.349823,-1.284453,-2.311392,0.592109,0.605132,0.857180,0.275578,0.959283,-0.061906,-0.070118,0.105780,0.147676,1.540948,38.791618,16.479794,,,,,,
1478277306.66,1.330033,-1.266350,-2.360491,1.020292,1.599224,0.540444,0.291118,0.954013,-0.071477,-0.306331,0.108258,-0.042048,2.287698,39.063084,15.734988,,,,,,
1478277306.69,1.302127,-1.252865,-2.424207,1.013237,1.330760,0.345721,0.301388,0.949884,-0.082980,-0.295056,-0.021585,-0.137372,2.239758,39.290173,15.166203,,,,,,
1478277306.71,1.265041,-1.238152,-2.480225,1.025720,0.460526,0.484593,0.311398,0.945182,-0.098294,-0.180203,-0.144935,-0.186969,2.174101,39.737400,13.962811,,,,,,
1478277306.73,1.224828,-1.219373,-2.529866,1.010714,0.315818,0.634196,0.323838,0.938884,-0.116733,-0.203492,-0.154948,-0.085873,2.430213,39.942398,13.320927,,,,,,
1478277306.75,1.194448,-1.199289,-2.572598,1.006166,0.516711,0.607306,0.337614,0.931781,-0.133420,-0.320143,-0.023166,-0.022662,2.430213,39.942398,13.320927,,,,,,
1478277306.77,1.161813,-1.180619,-2.618173,1.096954,0.398784,0.450083,0.348983,0.924842,-0.151257,-0.255798,0.230371,0.335858,3.073061,40.293472,12.072293,,,,,,
1478277306.79,1.137502,-1.164976,-2.654072,0.691406,0.497559,0.372999,0.358290,0.918779,-0.165750,-0.252929,0.180907,0.521479,3.534590,40.627495,10.754595,,,,,,
,,,,,,,,,,,,,,,,37.352924,-122.034831,53.163147,0.990000,173.320312,1478280768.00
1478277306.81,1.147578,-1.156371,-2.659516,0.058930,0.793158,0.286587,0.367138,0.915348,-0.165373,-0.261776,0.184338,0.521101,3.692054,40.720871,10.340574,,,,,,
1478277306.83,1.169433,-1.152481,-2.653405,-0.059668,0.716892,0.175467,0.373939,0.913775,-0.158700,-0.380805,0.179823,0.134438,3.794353,40.713863,10.331125,,,,,,
1478277306.86,1.189421,-1.150583,-2.644289,-0.167682,0.429740,0.141756,0.378645,0.913002,-0.151840,-0.514464,0.258080,0.074951,3.789294,40.689804,10.427320,,,,,,
1478277306.88,1.199485,-1.150490,-2.639371,0.006820,0.153316,-0.054150,0.380233,0.912964,-0.148052,-0.590469,0.332352,0.009029,3.789294,40.689804,10.427320,,,,,,
1478277306.90,1.193102,-1.155554,-2.647674,0.000418,0.013863,-0.392701,0.374978,0.915019,-0.148769,-0.484185,0.313329,0.170269,3.774836,40.644314,10.608415,,,,,,
1478277306.92,1.199552,-1.166712,-2.638304,-0.571979,-0.193947,-0.449529,0.366392,0.919463,-0.142635,-0.422606,0.381379,0.394344,3.345030,40.671295,10.649153,,,,,,
1478277306.94,1.233110,-1.185810,-2.600629,-1.226067,0.115032,-0.740545,0.354337,0.926804,-0.124420,-0.512708,0.365173,0.557526,3.082388,40.595905,11.009977,,,,,,
1478277306.96,1.305500,-1.214802,-2.525941,-1.817831,-0.040371,-1.060534,0.336329,0.937300,-0.091381,-0.399211,0.404649,0.267086,2.066437,40.170265,12.681791,,,,,,
1478277306.98,1.406000,-1.247534,-2.409275,-2.381517,-0.566365,-1.092433,0.313358,0.948204,-0.052113,-0.376239,0.393745,0.227818,2.066437,40.170265,12.681791,,,,,,
1478277307.00,1.578874,-1.272154,-2.214425,-3.114306,-0.696864,-0.824108,0.294214,0.955737,0.002377,-0.169412,0.443296,0.410313,0.866188,39.260700,15.381653,,,,,,
1478277307.03,1.776025,-1.280258,-1.991139,-2.856289,-0.621561,-0.642378,0.280456,0.958090,0.058379,0.380844,0.353647,-0.285919,0.469256,38.496487,17.220573,,,,,,
1478277307.05,1.978220,-1.273384,-1.786689,-2.734601,0.828140,-0.509126,0.269060,0.956098,0.116119,0.404539,0.344943,-0.436889,0.010958,36.738232,20.713531,,,,,,
1478277307.07,2.163933,-1.253082,-1.604908,-2.674570,0.318891,-0.309007,0.259036,0.949952,0.174618,0.340528,0.208785,-0.608731,0.010958,36.738232,20.713531,,,,,,
1478277307.09,2.281074,-1.222333,-1.472088,-2.405498,-0.931679,-0.022040,0.258883,0.939899,0.222643,-0.128024,0.189832,-0.315523,-0.907704,33.803452,25.204178,,,,,,
1478277307.11,2.365284,-1.190864,-1.369143,-2.135286,-0.103691,-0.156416,0.259842,0.928690,0.264609,-0.106430,0.315726,-0.060629,-0.907704,33.803452,25.204178,,,,,,
1478277307.13,2.446421,-1.168911,-1.283302,-1.712235,-0.039656,-0.635834,0.250541,0.920325,0.300385,-0.277778,0.395730,-0.380417,-0.596961,31.915661,27.564148,,,,,,
1478277307.15,2.524432,-1.147849,-1.185628,-2.054913,-1.008654,-0.942382,0.237536,0.911883,0.334732,-0.170214,0.136731,-0.580856,-0.888394,31.131937,28.438728,,,,,,
1478277307.17,2.587585,-1.119391,-1.077876,-2.376194,-1.685917,-1.114041,0.229501,0.899835,0.370980,-0.162179,0.148779,-0.617104,-0.929548,29.211037,30.407225,,,,,,
1478277307.19,2.634984,-1.088814,-0.976975,-2.304941,-2.265613,-1.073201,0.224915,0.886078,0.405314,-0.089630,-0.071091,-0.666316,-0.929548,29.211037,30.407225,,,,,,
1478277307.22,2.657929,-1.058819,-0.892056,-1.965329,-2.406724,-0.949363,0.227817,0.871777,0.433709,-0.047779,-0.389905,-0.661401,0.848724,25.694595,33.433746,,,,,,
1478277307.24,2.664874,-1.037592,-0.833128,-1.258757,-1.868200,-0.676189,0.233240,0.861183,0.451624,-0.049508,-0.449088,-0.637491,0.848724,25.694595,33.433746,,,,,,
1478277307.26,2.662552,-1.027543,-0.796840,-0.584236,-1.405100,-0.509400,0.238265,0.856032,0.458737,-0.054534,-0.443937,-0.644605,2.487653,24.084309,34.532677,,,,,,
1478277307.28,2.656050,-1.027017,-0.773459,-0.115097,-1.218330,-0.506852,0.241453,0.855759,0.457577,-0.061307,-0.403702,-0.509808,3.632742,23.537434,34.807190,,,,,,
1478277307.30,2.642276,-1.035980,-0.758046,0.393664,-1.270880,-0.545892,0.244049,0.860363,0.447456,-0.033783,-0.489681,-0.502784,4.132562,23.573273,34.727089,,,,,,
1478277307.32,2.620467,-1.055753,-0.754330,0.997451,-1.090981,-0.492772,0.245230,0.870272,0.427188,-0.014777,-0.554262,-0.397510,4.132562,23.573273,34.727089,,,,,,
1478277307.34,2.589343,-1.084096,-0.773716,1.575441,-0.311531,-0.186257,0.245364,0.883881,0.398185,0.013715,-0.563965,-0.215324,5.054274,24.331629,34.076004,,,,,,
1478277307.36,2.556864,-1.115639,-0.817190,1.794639,0.593089,0.046893,0.242649,0.898192,0.366569,-0.069523,-0.287962,0.051644,5.320715,25.951599,32.816952,,,,,,
1478277307.39,2.530952,-1.143095,-0.861595,1.340440,0.560195,-0.025194,0.237832,0.909922,0.339822,-0.259301,0.166540,0.390876,5.041115,26.867970,32.116154,,,,,,
1478277307.41,2.509008,-1.155118,-0.877754,0.200141,-1.062555,-0.071641,0.238745,0.914843,0.325674,-0.400428,1.165571,1.031428,4.720592,28.032444,31.155193,,,,,,
1478277307.43,2.486111,-1.156492,-0.863241,-0.215657,-1.566831,-0.399800,0.245373,0.915397,0.319126,-0.326443,1.108575,0.907085,5.397212,28.063011,31.017504,,,,,,
1478277307.45,2.510042,-1.156915,-0.829215,-0.484780,0.188342,-0.548109,0.237438,0.915567,0.324593,-0.318507,1.108405,0.901618,5.397212,28.063011,31.017504,,,,,,
1478277307.47,2.541131,-1.152492,-0.793735,-0.471261,-0.399328,-0.346175,0.229519,0.913779,0.335155,-0.005917,-0.036368,-0.033870,5.765014,27.842377,31.149872,,,,,,
1478277307.49,2.523750,-1.156161,-0.788859,0.510361,-1.330959,-0.076886,0.233366,0.915263,0.328380,0.044238,-0.092632,-0.218730,5.748441,27.475460,31.477013,,,,,,
1478277307.51,2.471102,-1.175597,-0.821153,1.352461,-0.701911,-0.072459,0.239223,0.922920,0.301648,-0.037471,-0.123192,-0.139798,6.352726,27.734661,31.131645,,,,,,
1478277307.53,2.429276,-1.200492,-0.875414,1.541013,1.100858,0.016119,0.236533,0.932217,0.273903,-0.065864,0.027286,-0.098122,6.712525,29.052528,29.826843,,,,,,
1478277307.56,2.424443,-1.221289,-0.925741,1.050342,2.418795,-0.064591,0.225062,0.939542,0.258087,0.055120,-0.051099,-0.138031,6.712525,29.052528,29.826843,,,,,,
1478277307.58,2.468156,-1.233948,-0.943899,0.437835,3.071343,-0.207428,0.206134,0.943801,0.258357,0.063978,-0.357268,-0.000926,4.872219,30.236416,28.996010,,,,,,
1478277307.60,2.505760,-1.245655,-0.968417,1.009942,2.554432,0.131582,0.189700,0.947605,0.257017,0.354199,-0.634144,-0.485914,3.426312,30.508574,28.917736,,,,,,
1478277307.62,2.451157,-1.269742,-1.061136,2.059696,0.942875,0.422218,0.188850,0.955024,0.228613,0.355049,-0.641563,-0.457510,1.148233,31.357861,28.180031,,,,,,
1478277307.64,2.344983,-1.298189,-1.189704,2.015526,1.136862,0.362334,0.192506,0.963072,0.188237,-0.127565,0.014650,-0.252767,0.916510,32.248615,27.164957,,,,,,
1478277307.66,2.263690,-1.312114,-1.315698,1.349185,2.200583,0.655137,0.196818,0.966728,0.163401,-0.629313,0.350457,-0.197718,0.277500,33.827785,25.186344,,,,,,
1478277307.68,2.212322,-1.316577,-1.410712,0.896780,1.549639,0.413037,0.201490,0.967860,0.150496,-0.483381,-0.039652,-0.420409,0.277500,33.827785,25.186344,,,,,,
1478277307.70,2.154426,-1.321359,-1.491331,0.991739,0.537157,0.423931,0.205996,0.969051,0.136033,-0.030459,-0.305615,-0.355104,-0.609073,34.653286,24.031788,,,,,,
1478277307.72,2.031981,-1.325302,-1.620835,1.574825,-0.007191,0.692179,0.217645,0.970017,0.108153,0.155662,-0.206590,-0.289840,-0.718326,35.003841,23.515167,,,,,,
1478277307.75,1.870676,-1.322131,-1.775285,1.547584,-0.862559,0.797025,0.235128,0.969242,0.072703,-0.116429,0.220898,-0.189676,0.024471,36.068657,21.858625,,,,,,
1478277307.77,1.746542,-1.315120,-1.890478,1.005115,-0.263913,0.520917,0.249004,0.967492,0.044218,-0.356014,0.343390,-0.038435,0.024471,36.068657,21.858625,,,,,,
1478277307.79,1.677125,-1.311635,-1.961841,0.823620,0.013115,0.207458,0.254822,0.966605,0.027197,-0.281113,0.185998,-0.267615,1.462091,37.216171,19.788052,,,,,,
,,,,,,,,,,,,,,,,37.352913,-122.034828,53.841064,0.980000,175.429688,1478280769.00
1478277307.81,1.594748,-1.305811,-2.045595,1.124838,-0.156477,0.471083,0.261820,0.965096,0.006272,-0.030589,-0.074624,-0.320878,1.462091,37.216171,19.788052,,,,,,
1478277307.83,1.487029,-1.291772,-2.154374,1.524792,-0.099887,0.656254,0.274452,0.961325,-0.023044,0.016976,-0.154135,-0.211697,1.926904,37.815166,18.575474,,,,,,
1478277307.85,1.390820,-1.273973,-2.259932,1.458125,0.523096,0.653348,0.287759,0.956271,-0.052356,-0.153619,0.054380,0.154010,2.353040,38.211178,17.695114,,,,,,
1478277307.87,1.326254,-1.255167,-2.350335,1.482215,1.284264,0.531401,0.301179,0.950601,-0.075155,-0.229371,0.030707,0.037512,2.910487,38.949257,15.913276,,,,,,
1478277307.89,1.270573,-1.236982,-2.440148,1.507235,1.341630,0.423566,0.312994,0.944799,-0.096897,-0.241186,0.036509,0.059253,2.910487,38.949257,15.913276,,,,,,
1478277307.92,1.225464,-1.219208,-2.512198,1.248582,0.874575,0.446253,0.324058,0.938827,-0.116579,-0.251365,-0.069869,-0.046949,2.914447,39.906651,13.330916,,,,,,
1478277307.94,1.189298,-1.201022,-2.565416,1.094853,0.585833,0.507804,0.335423,0.932409,-0.134555,-0.258030,0.015086,0.045032,2.914447,39.906651,13.330916,,,,,,
1478277307.96,1.158287,-1.182087,-2.610803,1.023451,0.432525,0.512642,0.347203,0.925399,-0.151942,-0.213582,0.148743,0.194789,3.262685,40.320393,11.931835,,,,,,
1478277307.98,1.133012,-1.163918,-2.641543,0.799724,-0.051843,0.577571,0.358423,0.918361,-0.167769,-0.087046,0.206273,0.274337,3.812943,40.612770,10.715044,,,,,,
1478277308.00,1.111457,-1.145460,-2.660244,0.592342,-0.179490,0.627247,0.369856,0.910900,-0.182941,-0.231520,0.159443,0.371295,4.233851,40.702000,10.206352,,,,,,
1478277308.02,1.112830,-1.131654,-2.661010,0.149041,0.276183,0.540778,0.381351,0.905117,-0.187975,-0.470402,0.061314,0.504000,4.233851,40.702000,10.206352,,,,,,
1478277308.04,1.132957,-1.124227,-2.650846,-0.130245,0.636690,0.284318,0.391135,0.901934,-0.183107,-0.608527,0.305891,0.181276,5.007498,40.745335,9.669060,,,,,,
1478277308.06,1.157635,-1.124312,-2.638680,-0.233161,0.566306,-0.014976,0.395464,0.901971,-0.173370,-0.612856,0.305854,0.171539,5.254369,40.662701,9.883537,,,,,,
1478277308.09,1.164274,-1.130065,-2.638136,-0.077168,0.151837,-0.369443,0.391834,0.904440,-0.168686,-0.535862,0.400202,0.021972,5.152947,40.628414,10.076060,,,,,,
1478277308.11,1.182304,-1.142080,-2.625899,-0.778520,0.518814,-0.416576,0.384726,0.909500,-0.157466,-0.403632,0.156113,0.830165,4.605320,40.615341,10.389086,,,,,,
1478277308.13,1.252969,-1.160808,-2.566062,-1.674131,0.785059,-0.476197,0.378636,0.917125,-0.124564,-0.460514,0.258366,0.551154,4.229554,40.466316,11.105671,,,,,,
1478277308.15,1.356116,-1.185594,-2.466731,-2.299732,0.413321,-0.790584,0.367121,0.926722,-0.080047,-0.577265,0.320821,0.368255,4.229554,40.466316,11.105671,,,,,,
1478277308.17,1.497441,-1.213870,-2.321492,-2.807032,0.185925,-1.055743,0.348456,0.936975,-0.025607,-0.505683,0.499045,0.184894,3.239761,39.786953,13.610674,,,,,,
1478277308.19,1.669562,-1.238108,-2.135675,-3.012258,-0.378326,-1.194854,0.324993,0.945168,0.032203,-0.185238,0.868065,0.023461,1.868710,38.538296,17.031017,,,,,,
1478277308.21,1.854858,-1.248217,-1.932007,-2.812268,-0.237712,-0.977410,0.304309,0.948421,0.088845,0.273510,0.587391,-0.219216,1.253154,37.711090,18.842806,,,,,,
1478277308.23,2.028151,-1.244122,-1.752630,-2.498336,0.456998,-0.683294,0.287915,0.947115,0.141700,0.495044,0.342955,-0.328727,0.251442,35.936680,22.073511,,,,,,
1478277308.26,2.195139,-1.227284,-1.594279,-2.489075,0.769098,-0.508277,0.273259,0.941578,0.196879,0.509700,0.348492,-0.383906,0.251442,35.936680,22.073511,,,,,,
1478277308.28,2.316595,-1.201163,-1.471946,-2.174007,0.217580,-0.281319,0.265372,0.932460,0.245145,0.115747,0.230824,-0.449644,-0.918246,34.064480,24.849869,,,,,,
1478277308.30,2.409936,-1.181116,-1.382898,-1.533769,0.596147,-0.520951,0.253808,0.925030,0.282666,-0.279015,0.274112,-0.217405,-1.176565,33.129440,26.073053,,,,,,
1478277308.32,2.493516,-1.164054,-1.292903,-1.829213,-0.188957,-0.876839,0.238817,0.918415,0.315406,-0.132525,0.323819,-0.203422,-2.058284,31.650150,27.798910,,,,,,
1478277308.34,2.574705,-1.141878,-1.193860,-1.949362,-0.946858,-1.040751,0.223336,0.909416,0.350833,-0.117043,0.332817,-0.238849,-2.418417,30.802174,28.707582,,,,,,
1478277308.36,2.625556,-1.117745,-1.095555,-2.010890,-1.908781,-1.093083,0.215983,0.899116,0.380713,-0.119624,0.051019,-0.611884,-2.318959,28.858181,30.668806,,,,,,
1478277308.38,2.660096,-1.092414,-1.012382,-1.856398,-2.055480,-0.923453,0.213188,0.887741,0.408004,-0.106712,-0.216064,-0.660537,-2.318959,28.858181,30.668806,,,,,,
1478277308.40,2.673098,-1.067068,-0.942201,-1.676968,-2.387115,-0.783285,0.217957,0.875789,0.430684,-0.070130,-0.387950,-0.665364,-1.246197,26.887936,32.468967,,,,,,
1478277308.42,2.667986,-1.048145,-0.892840,-1.042350,-2.138517,-0.507365,0.227675,0.866499,0.444234,-0.092147,-0.536466,-0.643407,-0.367374,25.962429,33.235001,,,,,,
1478277308.45,2.651081,-1.040314,-0.868420,-0.323857,-1.576936,-0.256384,0.238341,0.862563,0.446294,-0.075103,-0.540053,-0.567190,1.509652,24.754368,34.112904,,,,,,
1478277308.47,2.629639,-1.043636,-0.862178,0.297790,-1.106871,-0.210728,0.246450,0.864239,0.438580,-0.080862,-0.447415,-0.484555,1.509652,24.754368,34.112904,,,,,,
1478277308.49,2.604304,-1.059118,-0.866285,0.912803,-0.996099,-0.335698,0.250603,0.871924,0.420650,-0.052666,-0.503531,-0.531749,3.295705,25.007244,33.801243,,,,,,
1478277308.51,2.569781,-1.087742,-0.881485,1.583525,-0.972627,-0.456533,0.251359,0.885581,0.390596,-0.077867,-0.546347,-0.471025,3.295705,25.007244,33.801243,,,,,,
1478277308.53,2.522394,-1.128707,-0.916113,2.242832,-0.579703,-0.477260,0.248305,0.903860,0.348400,-0.074812,-0.564626,-0.428829,3.996276,26.461084,32.597374,,,,,,
1478277308.55,2.463971,-1.174794,-0.979924,2.552923,0.421127,-0.216387,0.241832,0.922610,0.300512,-0.006343,-0.316669,0.021403,4.159799,27.560390,31.652313,,,,,,
1478277308.57,2.396513,-1.213271,-1.075981,2.298515,1.298441,0.247024,0.237281,0.936766,0.257230,0.015938,0.298250,0.459155,3.680938,30.015947,29.397984,,,,,,
1478277308.59,2.346072,-1.226900,-1.149793,0.357994,0.335398,0.404768,0.240808,0.941448,0.235981,-0.272409,1.302387,1.393810,3.680938,30.015947,29.397984,,,,,,
1478277308.62,2.378889,-1.210472,-1.091853,-1.674765,-1.610056,-0.508698,0.243588,0.935783,0.254903,-0.777158,1.975304,1.606257,3.470166,31.012114,28.371723,,,,,,
1478277308.64,2.417269,-1.200336,-1.004198,-1.171820,-2.184498,-0.826502,0.239901,0.932161,0.271153,-0.227237,-0.041154,0.508663,3.470166,31.012114,28.371723,,,,,,
1478277308.66,2.451583,-1.197376,-0.929152,-0.776787,-1.323734,-0.860635,0.232213,0.931085,0.281350,-0.219548,-0.040079,0.498466,4.577221,29.853165,29.437824,,,,,,
1478277308.68,2.467333,-1.197340,-0.895390,0.002092,-0.361523,-0.102297,0.227774,0.931072,0.284998,-0.236197,-0.896770,-0.173426,5.035304,29.313499,29.901714,,,,,,
1478277308.70,2.421619,-1.207311,-0.953480,1.554195,0.789347,0.751613,0.234427,0.934663,0.267299,-0.013068,-0.025941,-0.623958,5.110139,29.493048,29.711857,,,,,,
1478277308.72,2.361585,-1.225014,-1.062004,1.661660,2.738293,0.504708,0.238366,0.940811,0.240950,-0.037042,1.334366,-0.596861,5.110139,29.493048,29.711857,,,,,,
1478277308.74,2.428185,-1.233477,-1.029131,-1.353022,0.574330,-1.251574,0.216584,0.943645,0.250250,-0.593278,1.571644,0.244669,3.231329,31.128679,28.272102,,,,,,
1478277308.76,2.526566,-1.231566,-0.927004,-0.334823,0.051912,-1.095998,0.191997,0.943011,0.271785,0.085515,-0.212985,-0.319408,3.231329,31.128679,28.272102,,,,,,
1478277308.79,2.528000,-1.250041,-0.921732,1.224615,-0.351554,-0.145439,0.181543,0.948997,0.257771,0.532278,-1.552299,-0.832570,1.945043,30.389177,29.179831,,,,,,
,,,,,,,,,,,,,,,,37.352901,-122.034824,54.713379,0.980000,176.484375,1478280770.00
1478277308.81,2.410348,-1.278909,-1.040616,2.606792,0.367334,0.876108,0.192165,0.957703,0.214193,0.638935,-0.349670,-0.336095,2.175582,31.663767,27.774462,,,,,,
1478277308.83,2.214723,-1.298375,-1.304603,3.246112,4.114322,1.909496,0.215183,0.963122,0.161530,-0.364734,0.999891,-0.640931,2.258487,32.869644,26.329330,,,,,,
1478277308.85,2.089916,-1.294268,-1.521347,1.403448,2.865107,1.318357,0.237049,0.962009,0.135448,-0.386600,1.001004,-0.614849,2.258487,32.869644,26.329330,,,,,,
1478277308.87,2.003863,-1.297078,-1.611071,1.271982,-1.225489,-0.017171,0.245359,0.962772,0.113439,-0.713819,0.463711,-0.233357,1.069408,34.820694,23.772331,,,,,,
1478277308.89,1.895398,-1.309952,-1.708797,1.386971,0.124416,0.024831,0.244428,0.966173,0.082251,-0.044874,-0.283113,0.174921,1.577435,35.673882,22.441788,,,,,,
1478277308.91,1.788825,-1.311870,-1.824582,1.323015,-0.112096,0.397316,0.249981,0.966665,0.055384,-0.111248,-0.224280,-0.207956,1.570271,36.157475,21.654543,,,,,,
1478277308.93,1.669165,-1.308443,-1.935357,1.251365,-0.712316,0.322698,0.258100,0.965782,0.025471,-0.304563,-0.045937,-0.200398,2.116274,37.026886,20.081806,,,,,,
1478277308.95,1.586565,-1.304131,-2.017741,0.890550,0.347645,0.228531,0.263483,0.964655,0.004155,-0.234217,-0.056757,0.044032,2.460385,37.375504,19.384689,,,,,,
1478277308.98,1.536009,-1.299448,-2.090723,0.931654,1.058435,0.232122,0.267868,0.963410,-0.009322,-0.056610,-0.019410,-0.000596,2.460385,37.375504,19.384689,,,,,,
1478277309.00,1.494130,-1.290265,-2.151115,0.696935,0.594891,0.464232,0.276053,0.960908,-0.021205,-0.155692,-0.131959,-0.036580,2.321049,37.907490,18.340746,,,,,,
1478277309.02,1.459243,-1.277686,-2.199109,0.741519,0.563936,0.558146,0.287136,0.957350,-0.032164,-0.166774,-0.128401,-0.025621,2.453299,38.304794,17.477755,,,,,,
1478277309.04,1.421870,-1.263606,-2.255468,0.952709,0.899351,0.540447,0.299034,0.953187,-0.044866,-0.278054,-0.158448,-0.062861,2.636209,38.486507,17.046619,,,,,,
1478277309.06,1.377845,-1.248998,-2.323904,1.172117,1.025728,0.493118,0.310404,0.948668,-0.060647,-0.304224,-0.116423,-0.118705,2.819172,38.956028,15.913143,,,,,,
1478277309.08,1.332293,-1.232568,-2.395467,1.272884,1.064901,0.549872,0.322424,0.943344,-0.078391,-0.218161,-0.053619,-0.094430,2.819172,38.956028,15.913143,,,,,,
1478277309.10,1.290602,-1.213766,-2.464919,1.306157,1.143167,0.583342,0.335864,0.936939,-0.096650,-0.165835,0.015912,0.018952,2.966475,39.504063,14.469862,,,,,,
1478277309.12,1.258049,-1.193699,-2.524273,1.183154,0.966811,0.635067,0.350361,0.929737,-0.113293,-0.221623,0.040233,0.147961,3.076297,39.769867,13.698250,,,,,,
1478277309.15,1.228134,-1.173165,-2.571165,1.046083,0.465502,0.644616,0.364723,0.921981,-0.130110,-0.315071,0.092942,0.315153,3.466758,40.202374,12.267784,,,,,,
1478277309.17,1.212944,-1.154979,-2.598377,0.575925,0.496579,0.608235,0.378349,0.914786,-0.141485,-0.427238,0.075509,0.502386,3.787971,40.361507,11.633907,,,,,,
1478277309.19,1.214025,-1.141544,-2.607472,0.333768,0.369028,0.459097,0.389983,0.909277,-0.145355,-0.631149,0.187235,0.315109,4.381603,40.484306,10.980459,,,,,,
1478277309.21,1.212204,-1.134035,-2.617737,0.275055,0.359084,0.133162,0.396100,0.906126,-0.148457,-0.729474,0.291627,0.235005,4.381603,40.484306,10.980459,,,,,,
1478277309.23,1.213708,-1.133587,-2.623225,0.013684,0.235755,-0.104181,0.396703,0.905937,-0.148003,-0.733587,0.353722,0.195870,4.593614,40.550900,10.642904,,,,,,
1478277309.25,1.214236,-1.139017,-2.622905,-0.193374,-0.191572,-0.291784,0.392166,0.908223,-0.146074,-0.495803,0.563320,0.314501,4.516684,40.566486,10.616390,,,,,,
1478277309.27,1.220005,-1.150359,-2.602550,-0.834911,-0.771254,-0.394644,0.383303,0.912911,-0.140261,-0.496554,0.485146,0.602724,4.215565,40.539185,10.842123,,,,,,
1478277309.29,1.265863,-1.171299,-2.539370,-1.811551,-0.382530,-0.666388,0.371011,0.921257,-0.116776,-0.484262,0.476799,0.579239,4.215565,40.539185,10.842123,,,,,,
1478277309.32,1.362206,-1.203086,-2.428089,-2.490402,-0.412211,-1.129074,0.351687,0.933153,-0.074442,-0.608172,0.505171,0.173883,3.301065,39.752518,13.696289,,,,,,
1478277309.34,1.501593,-1.237369,-2.267551,-2.964588,-0.539093,-1.237095,0.326500,0.944926,-0.022631,-0.101204,0.643178,0.215289,3.301065,39.752518,13.696289,,,,,,
1478277309.36,1.677066,-1.258329,-2.073311,-2.719455,-0.297895,-0.882508,0.305674,0.951578,0.032607,0.415976,0.551855,-0.116194,2.046570,38.492889,17.113068,,,,,,
1478277309.38,1.846803,-1.261472,-1.895135,-2.453101,0.280299,-0.482135,0.292894,0.952539,0.082958,0.622390,0.453116,-0.412243,1.180813,36.942032,20.313540,,,,,,
1478277309.40,2.028552,-1.251370,-1.726969,-2.423760,1.444659,-0.495509,0.281692,0.949416,0.138778,0.538620,0.246965,-0.311293,0.734599,36.123127,21.756107,,,,,,
1478277309.42,2.200536,-1.236366,-1.582082,-2.096031,1.541299,-0.497118,0.265270,0.944597,0.193307,0.086750,0.139158,-0.141259,0.734599,36.123127,21.756107,,,,,,
1478277309.44,2.333354,-1.217941,-1.463480,-2.029298,0.658825,-0.574765,0.249878,0.938390,0.238716,-0.214218,0.269420,-0.345024,-1.689496,33.629433,25.395958,,,,,,
1478277309.46,2.432094,-1.194543,-1.352952,-2.053316,-0.610525,-0.599736,0.239369,0.930048,0.278772,-0.203709,0.277762,-0.385080,-1.689496,33.629433,25.395958,,,,,,
1478277309.49,2.496952,-1.167830,-1.261677,-2.067337,-1.219761,-0.413245,0.235647,0.919902,0.313451,-0.120076,0.259603,-0.530782,-2.163305,31.861488,27.548386,,,,,,
1478277309.51,2.536246,-1.136822,-1.172149,-2.217749,-2.182860,-0.617360,0.239273,0.907302,0.345763,-0.270935,0.065248,-0.410079,-1.294169,29.926464,29.689726,,,,,,
1478277309.53,2.571762,-1.108984,-1.086614,-1.936721,-1.861585,-0.744537,0.240381,0.895247,0.375167,-0.169794,-0.184507,-0.503234,-0.606080,28.873896,30.735628,,,,,,
1478277309.55,2.595369,-1.082344,-1.012369,-1.933017,-2.141286,-0.680532,0.243764,0.883060,0.400979,-0.118550,-0.289005,-0.529015,-0.606080,28.873896,30.735628,,,,,,
1478277309.57,2.605131,-1.057192,-0.948584,-1.549907,-2.074515,-0.570584,0.251112,0.870979,0.422300,-0.075743,-0.332833,-0.576963,0.733640,26.929754,32.449932,,,,,,
1478277309.59,2.602779,-1.041992,-0.906558,-0.864340,-1.657266,-0.427626,0.258869,0.863411,0.433023,-0.056217,-0.352882,-0.572656,2.453237,25.270403,33.676937,,,,,,
1478277309.61,2.592575,-1.037656,-0.883752,-0.194336,-1.248052,-0.347075,0.265225,0.861215,0.433548,-0.034100,-0.335397,-0.570496,3.179544,24.822647,33.948120,,,,,,
1478277309.63,2.576904,-1.046025,-0.876082,0.485961,-0.971270,-0.370926,0.268120,0.865439,0.423235,-0.063041,-0.483206,-0.551042,4.215008,24.747555,33.890121,,,,,,
1478277309.65,2.552040,-1.065704,-0.882390,1.091410,-0.881637,-0.390168,0.269037,0.875130,0.402203,-0.063958,-0.492897,-0.530011,4.573881,25.113726,33.572731,,,,,,
1478277309.68,2.513964,-1.096971,-0.907369,1.792323,-0.646252,-0.379000,0.267948,0.889830,0.369334,-0.052036,-0.565275,-0.475794,4.573881,25.113726,33.572731,,,,,,
1478277309.70,2.458531,-1.137788,-0.961536,2.432647,-0.069316,-0.219693,0.264841,0.907708,0.325463,-0.082117,-0.466774,-0.145730,5.096506,26.592501,32.335934,,,,,,
1478277309.72,2.383293,-1.179255,-1.053462,2.622174,0.738893,0.184552,0.262431,0.924322,0.277054,-0.029811,-0.018499,0.305802,5.042768,28.951984,30.250635,,,,,,
1478277309.74,2.303459,-1.204841,-1.163941,1.801580,1.112097,0.597389,0.266018,0.933783,0.239342,-0.033397,-0.027960,0.343513,4.787959,30.168093,29.081085,,,,,,
1478277309.76,2.279643,-1.204478,-1.196542,-0.593038,-0.360396,0.098723,0.271900,0.933652,0.233161,-0.678165,1.852084,1.812585,4.527460,31.382099,27.810320,,,,,,
1478277309.78,2.317256,-1.195039,-1.127200,-1.156153,-1.693054,-0.726739,0.269397,0.930230,0.249193,-0.392444,1.194785,0.889723,4.527460,31.382099,27.810320,,,,,,
,,,,,,,,,,,,,,,,37.352889,-122.034822,55.128235,0.990000,176.835938,1478280771.00
1478277309.80,2.348412,-1.197186,-1.053768,-0.702511,-1.503078,-1.053556,0.260080,0.931016,0.256063,-0.073206,0.048949,0.483058,5.205346,30.500072,28.660040,,,,,,
1478277309.82,2.396619,-1.202613,-0.986528,-0.549704,-0.286162,-0.833627,0.244009,0.932983,0.264580,-0.111975,-0.705673,0.211036,5.516181,30.222382,28.895111,,,,,,
1478277309.85,2.408686,-1.207548,-0.974952,0.596280,0.316089,0.029447,0.237716,0.934748,0.264080,-0.221938,-1.139536,-0.340893,5.157258,29.895176,29.298960,,,,,,
1478277309.87,2.339104,-1.228249,-1.072232,2.494501,1.504210,0.691949,0.241532,0.941902,0.233414,-0.077577,-0.363426,-0.735093,5.011800,30.176842,29.034256,,,,,,
1478277309.89,2.256024,-1.250291,-1.220906,1.713006,3.318352,0.521551,0.243932,0.949076,0.199377,-0.373433,2.060979,0.397608,4.047978,32.157902,26.985760,,,,,,
1478277309.91,2.356800,-1.244726,-1.144983,-2.308049,-0.328039,-1.175508,0.226365,0.947308,0.226640,-0.355866,2.062747,0.370345,4.047978,32.157902,26.985760,,,,,,
1478277309.93,2.438853,-1.249828,-1.054783,0.467823,0.378431,-1.027721,0.203902,0.948930,0.240739,0.079790,-0.632967,-0.839539,2.385922,31.567507,27.866610,,,,,,
1478277309.95,2.409691,-1.280642,-1.097691,1.854019,0.519078,-0.167675,0.191197,0.958200,0.212831,0.528042,-1.509332,-0.770464,1.815036,31.459389,28.031422,,,,,,
1478277309.97,2.295728,-1.307372,-1.232935,2.340536,1.268910,0.712684,0.194912,0.965504,0.172659,0.649006,-1.114872,-0.439612,1.050709,32.909588,26.355320,,,,,,
1478277309.99,2.134075,-1.310817,-1.471199,2.234223,4.299035,2.011645,0.217347,0.966395,0.137260,0.612899,-0.234431,-0.248832,1.050709,32.909588,26.355320,,,,,,
1478277310.02,2.060482,-1.291734,-1.627791,0.729640,2.254477,1.149413,0.243083,0.961314,0.129560,-1.211573,1.384847,-1.192044,-0.003072,35.291870,23.091808,,,,,,
1478277310.04,1.947104,-1.301529,-1.729247,1.945496,-1.782071,-0.200698,0.247411,0.963966,0.097761,-0.664541,0.210946,-0.035826,-0.003072,35.291870,23.091808,,,,,,
1478277310.06,1.800492,-1.314160,-1.864387,1.462272,-0.038096,0.053180,0.247162,0.967249,0.057792,-0.664292,0.207662,0.004143,0.522903,36.265308,21.524450,,,,,,
1478277310.08,1.701673,-1.315666,-1.965854,1.087985,-0.213984,0.193069,0.250213,0.967630,0.032935,-0.144165,-0.190134,-0.205283,0.668965,36.824181,20.549454,,,,,,
1478277310.10,1.618007,-1.310489,-2.047653,0.927132,-0.027072,0.386026,0.257091,0.966311,0.012147,-0.071560,-0.132876,-0.221421,0.975668,37.534977,19.207331,,,,,,
1478277310.12,1.546193,-1.302676,-2.137201,1.220834,1.159223,0.372867,0.264840,0.964270,-0.006517,0.032157,-0.044700,-0.087569,0.975668,37.534977,19.207331,,,,,,
1478277310.14,1.481414,-1.291211,-2.235269,1.206676,1.338305,0.565809,0.274855,0.961170,-0.024633,0.001344,0.000302,0.041143,1.053825,38.493484,17.201424,,,,,,
1478277310.16,1.441615,-1.274396,-2.299459,0.791570,0.892590,0.765053,0.289645,0.956394,-0.037626,-0.186282,-0.046421,0.059019,1.053825,38.493484,17.201424,,,,,,
