timestamp(unix),attitude_roll(radians),attitude_pitch(radians),attitude_yaw(radians),rotation_rate_x(radians/s),rotation_rate_y(radians/s),rotation_rate_z(radians/s),gravity_x(G),gravity_y(G),gravity_z(G),user_acc_x(G),user_acc_y(G),user_acc_z(G),magnetic_field_x(microteslas),magnetic_field_y(microteslas),magnetic_field_z(microteslas),latitude(degree),longitude(degree),altitude(meter),speed(m/s),course(degree),timestamp(unix)
1478277170.83,1.115501,-0.924609,-1.862979,0.103534,0.220800,-0.055359,0.540807,0.798386,-0.264780,-0.045537,0.003769,0.022181,17.214256,39.618752,3.432142,,,,,,
,,,,,,,,,,,,,,,,37.352906,-122.034866,50.730347,0.000000,256.992188,1478280632.10
1478277170.85,1.117117,-0.925685,-1.865096,-0.030578,0.111368,-0.067889,0.540461,0.799033,-0.263530,-0.030360,-0.023398,0.048259,16.973854,39.714798,3.518352,,,,,,
,,,,,,,,,,,,,,,,37.352906,-122.034866,50.730347,0.000000,256.992188,1478280630.00
1478277170.87,1.121543,-0.927891,-1.865269,-0.040864,0.255498,-0.102219,0.540033,0.800357,-0.260369,-0.028269,-0.041370,0.034218,16.973854,39.714798,3.518352,,,,,,
1478277170.89,1.127828,-0.930695,-1.865176,-0.079514,0.299529,-0.161929,0.539630,0.802035,-0.256007,-0.047869,-0.048465,0.009013,16.834946,39.759224,3.680332,,,,,,
,,,,,,,,,,,,,,,,37.352906,-122.034866,50.730347,0.000000,256.992188,1478280632.18
1478277170.91,1.132384,-0.936611,-1.863842,-0.143550,0.123849,-0.264288,0.536485,0.805555,-0.251527,-0.063401,-0.040723,-0.015395,16.737747,39.788895,3.801034,,,,,,
1478277170.93,1.134354,-0.943699,-1.866213,-0.074331,0.239015,-0.361138,0.531792,0.809734,-0.248050,-0.041069,-0.085155,0.025866,16.387552,39.909477,4.054339,,,,,,
1478277170.95,1.136368,-0.952272,-1.870304,-0.054901,0.204297,-0.433124,0.525973,0.814735,-0.244047,-0.070910,-0.076179,0.002485,16.140259,39.998650,4.166065,,,,,,
1478277170.98,1.136193,-0.962511,-1.875798,-0.097998,0.167647,-0.549786,0.518337,0.820629,-0.240614,-0.112590,-0.150509,0.007048,15.531035,40.219040,4.355610,,,,,,
1478277171.00,1.135834,-0.976515,-1.879231,-0.214308,0.119403,-0.698361,0.507777,0.828551,-0.235934,-0.161616,-0.072188,0.007708,15.531035,40.219040,4.355610,,,,,,
,,,,,,,,,,,,,,,,37.352906,-122.034866,50.730347,0.000000,256.992188,1478280632.18
1478277171.02,1.133580,-0.993050,-1.884050,-0.253670,0.059414,-0.751709,0.494765,0.837695,-0.231245,-0.148604,-0.081332,0.003020,14.688315,40.502640,4.641686,,,,,,
1478277171.04,1.132037,-1.011736,-1.891265,-0.201899,0.315580,-0.962903,0.480151,0.847754,-0.225318,-0.037021,-0.038046,-0.028374,14.191511,40.660343,4.805540,,,,,,
1478277171.06,1.127318,-1.034246,-1.900994,-0.256345,0.144643,-1.055818,0.461726,0.859477,-0.219337,0.119512,0.120915,-0.073770,12.944391,41.029709,5.173151,,,,,,
1478277171.08,1.125138,-1.054532,-1.911228,-0.108923,0.478227,-0.925324,0.445420,0.869669,-0.212782,0.114135,0.170507,-0.012529,12.944391,41.029709,5.173151,,,,,,
1478277171.10,1.122658,-1.068082,-1.927210,0.092639,0.529860,-0.587309,0.434230,0.876278,-0.208761,0.168462,0.250736,-0.034876,11.020739,41.529785,5.619250,,,,,,
1478277171.12,1.125954,-1.072842,-1.935263,0.020987,0.388474,-0.142432,0.431146,0.878561,-0.205531,0.128928,0.150064,0.006191,11.020739,41.529785,5.619250,,,,,,
1478277171.14,1.130452,-1.074292,-1.936579,0.027583,0.261245,-0.100933,0.430913,0.879253,-0.203047,-0.024648,0.043141,-0.042894,10.541913,41.642799,5.700984,,,,,,
1478277171.17,1.127414,-1.076483,-1.947168,0.238128,0.240902,-0.277469,0.428553,0.880295,-0.203528,0.073812,-0.174973,-0.001856,10.470985,41.654919,5.743005,,,,,,
1478277171.19,1.123307,-1.076234,-1.957679,0.113510,0.140013,-0.104074,0.427911,0.880176,-0.205381,0.074454,-0.174854,-0.000002,10.197128,41.746067,5.571376,,,,,,
1478277171.21,1.123055,-1.079995,-1.959301,-0.083183,0.050491,-0.170601,0.424872,0.881955,-0.204054,-0.060828,0.046069,0.009459,10.197128,41.746067,5.571376,,,,,,
1478277171.23,1.120306,-1.085534,-1.963864,-0.090803,0.142803,-0.237040,0.419905,0.884553,-0.203091,-0.023939,-0.020600,-0.010120,9.852402,41.819534,5.640275,,,,,,
1478277171.25,1.122074,-1.092501,-1.964206,-0.152881,0.064029,-0.370513,0.414701,0.887781,-0.199671,-0.036268,-0.038217,-0.023855,9.852402,41.819534,5.640275,,,,,,
1478277171.27,1.119663,-1.102717,-1.967927,-0.156048,-0.014900,-0.516911,0.406035,0.892437,-0.196705,-0.038847,-0.010234,-0.026790,9.363415,41.913174,5.776511,,,,,,
1478277171.29,1.114343,-1.114780,-1.971045,-0.197569,-0.126899,-0.565902,0.395290,0.897814,-0.194103,-0.035411,-0.012987,-0.005726,8.693846,42.028503,5.981465,,,,,,
1478277171.31,1.108217,-1.128686,-1.976723,-0.180032,-0.011392,-0.686290,0.382883,0.903851,-0.190931,-0.022241,-0.010189,0.019452,8.306581,42.089981,6.098363,,,,,,
1478277171.34,1.101486,-1.143555,-1.983010,-0.237326,-0.099583,-0.661015,0.369561,0.910112,-0.187404,-0.000314,-0.032900,-0.000981,8.306581,42.089981,6.098363,,,,,,
1478277171.36,1.095311,-1.159714,-1.983914,-0.388768,-0.352565,-0.719213,0.355274,0.916689,-0.182926,-0.018711,-0.065035,-0.010602,7.403290,42.220844,6.351961,,,,,,
1478277171.38,1.089906,-1.178046,-1.977540,-0.576131,-0.642087,-0.708259,0.339323,0.923860,-0.177039,-0.002760,-0.072206,-0.016488,6.533279,42.297485,6.781960,,,,,,
1478277171.40,1.086714,-1.197271,-1.966700,-0.521295,-0.545610,-0.701718,0.322974,0.931047,-0.169823,-0.001501,-0.113527,-0.003059,6.123672,42.306004,7.103414,,,,,,
1478277171.42,1.075701,-1.213606,-1.968363,-0.262035,-0.458108,-0.744591,0.307660,0.936883,-0.166121,-0.065655,-0.124535,-0.007524,5.312579,42.321636,7.642735,,,,,,
1478277171.44,1.051157,-1.235359,-1.983541,-0.316933,-0.497374,-1.227177,0.285730,0.944266,-0.163461,-0.100824,-0.076530,0.001413,4.808977,42.356232,7.783269,,,,,,
1478277171.46,1.004849,-1.267298,-2.018896,-0.326696,-0.670756,-1.756528,0.252262,0.954297,-0.160254,-0.067356,-0.086560,-0.001795,4.808977,42.356232,7.783269,,,,,,
1478277171.48,0.922863,-1.308257,-2.086168,-0.426051,-0.962195,-2.300809,0.206935,0.965734,-0.156639,-0.104441,-0.155904,0.007911,3.031548,42.452309,8.146593,,,,,,
1478277171.51,0.792987,-1.355679,-2.193036,-0.591605,-1.264858,-2.536973,0.152081,0.976951,-0.149790,-0.039151,-0.207527,0.019191,0.308213,42.455593,8.670824,,,,,,
1478277171.53,0.584784,-1.400446,-2.375037,-0.604793,-1.519551,-2.602206,0.093583,0.985525,-0.141357,0.019516,-0.252890,-0.002716,-1.223710,42.354458,9.075142,,,,,,
1478277171.55,0.289283,-1.429586,-2.643021,-0.215922,-1.447326,-1.984030,0.040149,0.990046,-0.134894,0.039365,-0.318202,-0.005548,-4.197721,41.976433,9.905264,,,,,,
1478277171.57,0.013527,-1.434950,-2.888831,0.014229,-1.347892,-1.569225,0.001832,0.990787,-0.135417,-0.022401,-0.336322,0.020961,-4.197721,41.976433,9.905264,,,,,,
1478277171.59,-0.233394,-1.428387,-3.117755,0.114539,-0.710497,-1.461413,-0.032825,0.989877,-0.138081,0.010807,-0.058541,-0.183727,-5.952858,41.695061,10.190263,,,,,,
1478277171.61,-0.429293,-1.426051,2.978069,-0.385816,-0.433832,-1.089136,-0.060037,0.989543,-0.131152,-0.014823,-0.210704,0.010089,-6.808076,41.571552,10.159334,,,,,,
1478277171.63,-0.591743,-1.424354,2.830060,-0.467594,-0.957400,-0.826803,-0.081395,0.989296,-0.121109,-0.032817,-0.158928,0.028656,-8.144062,41.186245,10.729562,,,,,,
1478277171.65,-0.738532,-1.423178,2.702322,-0.536525,-0.884219,-0.682814,-0.099017,0.989124,-0.108762,-0.015195,-0.158756,0.016309,-8.523901,40.995899,11.155052,,,,,,
1478277171.68,-0.881501,-1.421200,2.574313,-0.642795,-0.783524,-0.669228,-0.115012,0.988831,-0.094788,-0.013573,-0.171433,0.021637,-9.114851,40.601746,12.090226,,,,,,
1478277171.70,-1.047394,-1.419174,2.426445,-0.765235,-0.823096,-0.643645,-0.130821,0.988527,-0.075495,-0.022530,-0.168291,0.086924,-9.114851,40.601746,12.090226,,,,,,
1478277171.72,-1.195318,-1.416832,2.291788,-0.858793,-0.632932,-0.431827,-0.142673,0.988171,-0.056239,0.003223,-0.186199,0.049555,-9.610748,40.091347,13.344409,,,,,,
1478277171.74,-1.335118,-1.408799,2.163185,-0.464126,-0.362386,-1.466292,-0.156831,0.986907,-0.037662,-0.446486,1.487031,-0.002820,-9.773828,39.834435,13.980197,,,,,,
1478277171.76,-1.358602,-1.378160,2.134531,-0.024996,-0.068095,0.010953,-0.187153,0.981503,-0.040320,0.447361,1.898044,0.104987,-11.160410,39.208218,14.694101,,,,,,
1478277171.78,-1.358055,-1.393039,2.146855,0.117419,-0.470784,0.335324,-0.172837,0.984243,-0.037335,-0.035308,-0.479512,-0.099491,-11.160410,39.208218,14.694101,,,,,,
1478277171.80,-1.336320,-1.392974,2.166464,0.026673,0.189217,0.016217,-0.172046,0.984231,-0.041097,-0.061245,-0.010141,0.071385,-10.658897,39.355694,14.672180,,,,,,
1478277171.82,-1.344122,-1.392859,2.156555,-0.033963,0.051875,-0.028243,-0.172472,0.984211,-0.039779,-0.060820,-0.010120,0.070067,-10.658897,39.355694,14.672180,,,,,,
1478277171.84,-1.333809,-1.392891,2.165274,0.094117,0.159734,0.050152,-0.172022,0.984217,-0.041548,0.021235,0.016928,-0.018282,-10.723986,39.329609,14.694681,,,,,,
1478277171.87,-1.318325,-1.394249,2.176067,0.066159,0.221279,0.089376,-0.170064,0.984456,-0.043873,-0.007579,0.006847,-0.053250,-10.729206,39.354618,14.623745,,,,,,
1478277171.89,-1.305698,-1.396317,2.185905,0.036663,0.100250,0.128555,-0.167532,0.984817,-0.045483,0.021856,-0.009078,-0.017261,-10.713409,39.416721,14.467225,,,,,,
1478277171.91,-1.297649,-1.399246,2.191110,-0.016620,0.180121,0.152603,-0.164381,0.985321,-0.046051,0.021406,0.000763,0.006592,-10.713409,39.416721,14.467225,,,,,,
1478277171.93,-1.286783,-1.402239,2.197343,0.022799,0.233173,0.151792,-0.161040,0.985828,-0.047008,-0.023027,0.002667,-0.027470,-10.554474,39.498142,14.361611,,,,,,
1478277171.95,-1.273082,-1.404816,2.206950,0.048319,0.176329,0.137301,-0.157952,0.986257,-0.048465,-0.046806,0.005442,-0.046506,-10.554474,39.498142,14.361611,,,,,,
1478277171.97,-1.256254,-1.407192,2.220155,0.078252,0.200310,0.151586,-0.154885,0.986647,-0.050391,-0.064811,0.016558,-0.068658,-10.470886,39.561516,14.247915,,,,,,
1478277171.99,-1.225746,-1.409378,2.245440,0.199207,0.286765,0.169892,-0.151246,0.987000,-0.054362,-0.081787,0.022643,-0.103231,-10.381876,39.655888,14.049302,,,,,,
1478277172.01,-1.174227,-1.410746,2.291669,0.359248,0.250942,0.192045,-0.147000,0.987219,-0.061557,-0.093341,0.018396,-0.130551,-10.333462,39.738728,13.849506,,,,,,
1478277172.04,-1.107400,-1.411410,2.352634,0.442688,0.397992,0.215401,-0.141974,0.987325,-0.070942,-0.065118,-0.061452,-0.061305,-10.333462,39.738728,13.849506,,,,,,
1478277172.06,-1.019530,-1.409491,2.431708,0.644392,0.451651,0.208754,-0.136815,0.987019,-0.084120,-0.051204,0.106594,-0.131425,-10.158339,40.117775,12.850217,,,,,,
1478277172.08,-0.916956,-1.405460,2.529389,0.739474,0.165366,0.303325,-0.130639,0.986363,-0.100107,-0.003806,0.012584,-0.130835,-10.158339,40.117775,12.850217,,,,,,
1478277172.10,-0.819239,-1.399788,2.623411,0.735210,0.309638,0.240765,-0.124335,0.985414,-0.116193,-0.010110,0.013533,-0.114749,-9.937786,40.482082,11.840490,,,,,,
1478277172.12,-0.737577,-1.392568,2.698694,0.658317,0.309263,0.150163,-0.119225,0.984159,-0.131210,-0.085457,-0.049742,-0.170090,-9.738151,40.813839,10.823811,,,,,,
1478277172.14,-0.691174,-1.383984,2.744098,0.468593,0.030696,-0.055262,-0.118390,0.982601,-0.143103,-0.069995,-0.106671,-0.050776,-9.701532,40.936840,10.383219,,,,,,
1478277172.16,-0.678674,-1.376548,2.754893,0.272225,0.131345,-0.179334,-0.121176,0.981193,-0.150255,-0.061639,-0.142280,0.045656,-9.701532,40.936840,10.383219,,,,,,
1478277172.18,-0.680369,-1.370516,2.751013,0.142819,0.044957,-0.207002,-0.125152,0.980011,-0.154647,-0.041886,-0.135284,0.060470,-9.863737,41.028748,9.854156,,,,,,
1478277172.21,-0.692680,-1.369538,2.738989,-0.162327,-0.009133,-0.058045,-0.127658,0.979816,-0.153832,0.043490,-0.137821,0.087609,-10.129482,41.014160,9.643021,,,,,,
1478277172.23,-0.707924,-1.376349,2.721069,-0.450790,0.213101,0.176288,-0.125646,0.981155,-0.146795,0.105504,-0.153503,0.060248,-10.162818,40.980717,9.749557,,,,,,
1478277172.25,-0.714754,-1.389704,2.707129,-0.618630,0.350343,0.390085,-0.118046,0.983648,-0.136025,0.101216,-0.025029,-0.050712,-9.973053,40.897995,10.278517,,,,,,
1478277172.27,-0.721964,-1.407075,2.692790,-0.717080,0.316363,0.476883,-0.107714,0.986628,-0.122326,0.090884,-0.028009,-0.064411,-9.973053,40.897995,10.278517,,,,,,
1478277172.29,-0.732700,-1.424884,2.673931,-0.695973,0.432629,0.430612,-0.097252,0.989374,-0.108082,0.064277,0.082434,-0.138088,-9.506614,40.802624,11.069138,,,,,,
1478277172.31,-0.742175,-1.439071,2.654628,-0.466231,0.415561,0.301157,-0.088775,0.991337,-0.096801,-0.201050,0.116055,-0.167771,-9.284105,40.741989,11.473951,,,,,,
1478277172.33,-0.738169,-1.446311,2.653407,-0.149712,0.095743,0.193226,-0.083554,0.992262,-0.091844,-0.418170,0.022799,-0.159239,-9.025032,40.649132,11.998035,,,,,,
1478277172.35,-0.736935,-1.451282,2.659107,-0.223381,-0.339259,0.193824,-0.080125,0.992867,-0.088294,-0.384276,-0.104057,-0.026559,-8.919222,40.646152,12.086910,,,,,,
1478277172.37,-0.761980,-1.461749,2.638693,-0.568669,-0.036228,0.296930,-0.075133,0.994060,-0.078737,-0.191255,-0.198787,0.045503,-8.533735,40.596989,12.522615,,,,,,
1478277172.40,-0.814219,-1.478331,2.575632,-0.854317,0.874989,0.361773,-0.067144,0.995728,-0.063381,-0.078028,-0.154008,0.079021,-8.533735,40.596989,12.522615,,,,,,
1478277172.42,-0.902328,-1.496635,2.456750,-0.930241,1.677071,0.340065,-0.058147,0.997251,-0.045922,-0.018422,-0.014524,0.134850,-8.311332,40.377480,13.354272,,,,,,
1478277172.44,-1.049974,-1.512910,2.273356,-0.874065,1.495723,0.298869,-0.050183,0.998325,-0.028788,-0.024280,0.104336,-0.011999,-8.420791,40.223934,13.743404,,,,,,
1478277172.46,-1.318659,-1.525767,1.985902,-0.886128,0.492248,0.288621,-0.043591,0.998986,-0.011230,-0.030872,0.103675,-0.029557,-8.694823,39.910046,14.468721,,,,,,
,,,,,,,,,,,,,,,,37.352915,-122.034864,50.730347,0.000000,256.992188,1478280633.15
1478277172.48,-1.703180,-1.530528,1.592932,-0.732845,0.380309,0.099693,-0.039905,0.999189,0.005314,-0.011898,0.064089,-0.112690,-8.694823,39.910046,14.468721,,,,,,
1478277172.50,-2.002136,-1.526261,1.288844,-0.588803,0.189849,-0.095645,-0.040443,0.999008,0.018614,-0.025185,-0.023865,-0.011045,-8.701657,39.415886,15.761506,,,,,,
1478277172.52,-2.203811,-1.516518,1.078698,-0.739557,0.549774,-0.133271,-0.043740,0.998527,0.032094,-0.053229,0.031731,0.116603,-8.701657,39.415886,15.761506,,,,,,
1478277172.54,-2.417977,-1.502627,0.843881,-1.031261,1.207701,0.034571,-0.045100,0.997677,0.051048,-0.051870,0.032581,0.097649,-9.071037,39.035114,16.484297,,,,,,
1478277172.57,-2.577192,-1.484393,0.653810,-1.047134,1.512439,0.038959,-0.046160,0.996270,0.072912,-0.089841,0.068550,-0.069387,-9.348022,38.775925,16.935108,,,,,,
1478277172.59,-2.625931,-1.466820,0.570900,-0.852669,1.592867,-0.196901,-0.051180,0.994599,0.090293,-0.059981,0.071151,-0.066245,-10.154190,38.201084,17.757408,,,,,,
1478277172.61,-2.628377,-1.449355,0.539273,-0.760403,1.156508,-0.282144,-0.059479,0.992635,0.105536,0.073837,0.054286,-0.032843,-10.154190,38.201084,17.757408,,,,,,
1478277172.63,-2.632645,-1.433462,0.516857,-0.681165,0.666164,-0.225410,-0.066707,0.990584,0.119551,0.151729,0.003877,0.005861,-11.675161,37.392033,18.527882,,,,,,
1478277172.65,-2.636920,-1.420687,0.504953,-0.506929,0.174584,-0.227479,-0.072309,0.988755,0.130903,0.114087,-0.024765,-0.019666,-11.675161,37.392033,18.527882,,,,,,
1478277172.67,-2.642116,-1.408081,0.494173,-0.625947,0.426334,-0.190534,-0.077592,0.986791,0.142208,0.074555,-0.034215,0.033558,-12.161262,36.962776,19.068628,,,,,,
1478277172.69,-2.654092,-1.392870,0.464932,-0.786147,0.992338,-0.105619,-0.082905,0.984213,0.156371,0.075794,-0.026800,-0.022170,-12.684477,36.491600,19.627098,,,,,,
1478277172.71,-2.667282,-1.377337,0.428008,-0.804583,1.070572,-0.032165,-0.087807,0.981345,0.171031,0.026223,0.017160,-0.055064,-13.064816,36.225677,19.868740,,,,,,
1478277172.74,-2.681838,-1.361498,0.392564,-0.814533,0.889359,-0.052202,-0.092195,0.978177,0.186199,0.030611,0.020328,-0.070232,-13.064816,36.225677,19.868740,,,,,,
1478277172.76,-2.688881,-1.345450,0.366946,-0.785437,0.844965,-0.130132,-0.097736,0.974717,0.200935,-0.016705,-0.011002,-0.066109,-14.072030,35.410854,20.635046,,,,,,
1478277172.78,-2.683317,-1.328671,0.351853,-0.781558,1.049873,-0.228751,-0.106073,0.970831,0.215026,-0.011908,-0.055959,-0.057724,-14.072030,35.410854,20.635046,,,,,,
,,,,,,,,,,,,,,,,37.352915,-122.034864,50.730347,0.000000,256.992188,1478280634.00
1478277172.80,-2.667395,-1.311506,0.343243,-0.759201,1.157788,-0.295076,-0.117076,0.966572,0.228104,0.002177,-0.055653,-0.102341,-14.928799,34.800228,21.067297,,,,,,
1478277172.82,-2.650196,-1.293675,0.337047,-0.789894,1.043281,-0.335846,-0.129095,0.961847,0.241216,0.020040,-0.005289,-0.111120,-16.022696,34.132771,21.353754,,,,,,
1478277172.84,-2.636851,-1.275947,0.330808,-0.770812,0.819345,-0.306754,-0.140527,0.956846,0.254359,0.083825,0.035357,-0.127863,-16.543797,33.779449,21.517607,,,,,,
1478277172.86,-2.628736,-1.259486,0.323939,-0.680890,0.614573,-0.293986,-0.150295,0.951933,0.266899,0.147426,0.058885,-0.228248,-16.543797,33.779449,21.517607,,,,,,
1478277172.88,-2.616815,-1.247264,0.323962,-0.364462,0.555143,-0.268422,-0.159283,0.948118,0.275137,0.297391,0.059359,-0.355444,-17.378614,33.105469,21.903595,,,,,,
1478277172.91,-2.600659,-1.242149,0.328102,-0.118391,0.616082,-0.103259,-0.166202,0.946480,0.276682,0.304310,0.060997,-0.356989,-18.047176,32.670521,22.015728,,,,,,
1478277172.93,-2.591675,-1.239449,0.319573,-0.223459,0.948784,0.140095,-0.170016,0.945605,0.277355,0.276279,0.156980,-0.174755,-18.317554,32.596317,21.902124,,,,,,
1478277172.95,-2.585796,-1.238075,0.299486,-0.185177,1.230910,0.252571,-0.172329,0.945157,0.277455,0.042859,0.176181,-0.247959,-18.855087,32.539246,21.527634,,,,,,
1478277172.97,-2.575602,-1.238874,0.287455,0.015295,0.798190,0.093271,-0.174743,0.945418,0.275045,-0.058090,0.245943,-0.365011,-19.132830,32.563423,21.244156,,,,,,
1478277172.99,-2.558726,-1.243489,0.295121,0.384316,0.305093,0.013602,-0.176957,0.946912,0.268412,0.118104,0.321979,-0.386515,-19.132830,32.563423,21.244156,,,,,,
1478277173.01,-2.534911,-1.255164,0.315207,0.764660,0.189436,0.096496,-0.176983,0.950600,0.255022,0.255367,0.291816,-0.424822,-19.475185,32.702553,20.712700,,,,,,
1478277173.03,-2.499435,-1.276648,0.349494,1.326514,0.076243,0.259398,-0.173643,0.957049,0.232173,0.357435,0.307004,-0.361491,-19.510349,33.233562,19.814953,,,,,,
1478277173.05,-2.451317,-1.308907,0.398119,1.694129,0.095919,0.574891,-0.164858,0.965903,0.199635,0.335559,0.240656,-0.199436,-19.393669,33.724422,19.086767,,,,,,
1478277173.07,-2.385931,-1.349430,0.459812,2.036641,0.348434,0.790768,-0.150570,0.975598,0.159802,0.178386,0.064563,-0.212216,-18.813354,35.093040,17.096552,,,,,,
1478277173.10,-2.250005,-1.393202,0.595768,2.507643,-0.084655,0.513898,-0.137455,0.984272,0.110975,-0.196453,-0.025028,-0.406660,-18.813354,35.093040,17.096552,,,,,,
1478277173.12,-1.987862,-1.426441,0.860080,2.393992,0.336058,0.189655,-0.131523,0.989599,0.058272,-0.461555,0.156519,-0.225066,-18.154903,36.626884,14.374518,,,,,,
1478277173.14,-1.663103,-1.440800,1.166672,1.932741,1.280231,0.113509,-0.129078,0.991562,0.011949,-0.054027,0.285446,0.090773,-18.036518,37.236946,12.878263,,,,,,
1478277173.16,-1.318013,-1.441475,1.486326,1.989656,1.182637,0.222272,-0.124862,0.991650,-0.032253,0.097961,0.204151,0.145138,-21.592661,29.957750,13.446564,,,,,,
1478277173.18,-1.004154,-1.429647,1.798632,1.991454,-0.469481,0.295914,-0.118694,0.990055,-0.075518,0.091792,0.205746,0.188402,-21.592661,29.957750,13.446564,,,,,,
1478277173.20,-0.787046,-1.408370,2.039113,1.967857,-1.072931,0.327160,-0.114537,0.986838,-0.114160,0.099995,0.141260,0.238092,-21.265141,31.348238,10.469064,,,,,,
1478277173.22,-0.630971,-1.384172,2.219321,1.664258,-0.945602,0.466744,-0.109457,0.982636,-0.149817,0.164755,0.168655,0.258109,-21.265141,31.348238,10.469064,,,,,,
1478277173.24,-0.517332,-1.363826,2.363860,1.573981,-1.695892,0.633449,-0.101630,0.978658,-0.178605,0.088355,0.185404,0.069764,-20.542233,32.179989,9.326552,,,,,,
1478277173.27,-0.430412,-1.337366,2.494854,1.754199,-1.930070,0.651926,-0.096516,0.972879,-0.210219,-0.049694,0.108207,0.059401,-20.014788,32.600380,9.007956,,,,,,
1478277173.29,-0.358327,-1.311189,2.609556,1.550287,-1.783781,0.790487,-0.090027,0.966491,-0.240397,-0.111786,0.012849,0.260706,-18.792400,33.482334,8.384444,,,,,,
1478277173.31,-0.305129,-1.286842,2.703727,1.460524,-1.857796,0.688801,-0.084163,0.959955,-0.267213,-0.185262,-0.117243,0.387391,-18.792400,33.482334,8.384444,,,,,,
1478277173.33,-0.279557,-1.262053,2.772792,1.305502,-1.852552,0.517047,-0.083844,0.952716,-0.292065,-0.110263,-0.180408,0.483425,-16.952187,34.646370,7.534727,,,,,,
1478277173.35,-0.265551,-1.242661,2.822511,0.950076,-1.423934,0.449241,-0.084579,0.946645,-0.310982,-0.109528,-0.174337,0.502342,-16.952187,34.646370,7.534727,,,,,,
1478277173.37,-0.254472,-1.230392,2.863121,0.563072,-1.187908,0.460132,-0.084046,0.942620,-0.323117,-0.060744,-0.131050,0.467221,-16.061638,35.145119,7.166884,,,,,,
1478277173.39,-0.245873,-1.226660,2.900713,0.183813,-1.327380,0.579089,-0.082120,0.941367,-0.327237,-0.031573,-0.295844,0.329129,-15.227496,35.506256,7.207545,,,,,,
1478277173.41,-0.240193,-1.231167,2.936291,-0.227648,-1.256889,0.586512,-0.079250,0.942878,-0.323574,-0.041264,-0.404243,0.323498,-14.735706,35.657318,7.478939,,,,,,
1478277173.44,-0.238484,-1.244820,2.961947,-0.719666,-0.921982,0.507457,-0.075649,0.947338,-0.311171,-0.061222,-0.431851,0.314756,-14.735706,35.657318,7.478939,,,,,,
1478277173.46,-0.239013,-1.268398,2.975288,-1.216049,-0.426188,0.418890,-0.070505,0.954625,-0.289345,-0.084341,-0.426366,0.296867,-13.456478,35.768517,9.168211,,,,,,
1478277173.48,-0.244105,-1.299703,2.973093,-1.560658,0.011397,0.258215,-0.064721,0.963479,-0.259846,-0.090293,-0.366112,0.212575,-13.456478,35.768517,9.168211,,,,,,
1478277173.50,-0.263317,-1.335114,2.950936,-1.725688,0.097608,0.101116,-0.060778,0.972355,-0.225458,-0.045087,-0.236058,0.070779,-13.044612,35.447163,10.856172,,,,,,
1478277173.52,-0.315153,-1.368287,2.901506,-1.554860,-0.414373,-0.130481,-0.062342,0.979565,-0.191223,-0.079351,0.040729,-0.309235,-12.970776,34.842846,12.737927,,,,,,
1478277173.54,-0.411135,-1.392106,2.825008,-1.105730,-1.319896,-0.244650,-0.071034,0.984077,-0.162929,-0.070659,0.036217,-0.337528,-12.943082,34.496655,13.673958,,,,,,
1478277173.56,-0.489517,-1.405518,2.778174,-0.473907,-1.499581,0.075458,-0.077360,0.986373,-0.145205,0.038145,0.148881,-0.485151,-12.943082,34.496655,13.673958,,,,,,
1478277173.58,-0.474075,-1.407621,2.820634,0.423299,-1.120992,0.482893,-0.074162,0.986716,-0.144536,0.092259,0.417199,-0.816371,-12.429096,34.040783,15.207315,,,,,,
1478277173.61,-0.365899,-1.398812,2.948399,0.836242,-0.530197,0.904564,-0.061231,0.985247,-0.159809,0.007825,0.403196,-0.476162,-11.379627,34.346146,15.341640,,,,,,
1478277173.63,-0.218031,-1.391572,3.098930,0.662401,0.111258,1.121733,-0.038560,0.983982,-0.174046,-0.014845,0.404461,-0.461925,-10.757273,34.702351,14.984917,,,,,,
1478277173.65,-0.099616,-1.381567,-3.061749,0.505872,-0.317006,0.854145,-0.018707,0.982150,-0.187169,0.015976,-0.642901,-0.066295,-9.584054,35.355610,14.235395,,,,,,
1478277173.67,-0.060035,-1.383609,-3.003086,-0.442374,-1.073038,0.307712,-0.011166,0.982532,-0.185761,0.010494,-0.728458,0.305298,-9.584054,35.355610,14.235395,,,,,,
1478277173.69,-0.092336,-1.408855,-3.018024,-1.651330,-0.589602,-0.288135,-0.014867,0.986916,-0.160548,-0.130412,-0.192727,0.523600,-8.632689,35.473186,14.548178,,,,,,
1478277173.71,-0.241007,-1.451648,3.119829,-2.244823,0.122981,-0.577612,-0.028371,0.992910,-0.115431,-0.165660,0.853357,0.354277,-8.510312,35.137508,15.409409,,,,,,
1478277173.73,-0.303920,-1.482873,3.038289,-0.775859,1.053617,0.360678,-0.026278,0.996137,-0.083786,-0.056562,1.246264,-0.076172,-9.093968,33.902313,17.676329,,,,,,
1478277173.75,-0.201957,-1.477332,3.135436,0.703873,-0.704218,0.359884,-0.018721,0.995635,-0.091432,-0.437136,1.644990,-0.680083,-9.214170,33.729095,17.943436,,,,,,
1478277173.77,-0.114298,-1.461417,-3.038998,0.849360,-0.450416,0.282804,-0.012450,0.994024,-0.108449,-0.410814,-0.817343,0.706090,-8.493571,34.210361,17.379015,,,,,,
,,,,,,,,,,,,,,,,37.352915,-122.034864,51.057129,0.000000,256.992188,1478280635.00
1478277173.80,-0.117190,-1.454932,-3.044658,-0.190070,0.018493,-0.217811,-0.013517,0.993295,-0.114813,-0.586764,-1.381662,0.590170,-8.493571,34.210361,17.379015,,,,,,
1478277173.82,-0.189708,-1.474890,-3.107282,-1.534142,-0.467260,-0.197883,-0.018057,0.995405,-0.094041,-0.582223,-1.383771,0.569398,-8.505174,34.345650,17.104332,,,,,,
1478277173.84,-0.601435,-1.512756,2.751314,-2.409300,1.393925,-1.109100,-0.032822,0.998316,-0.047829,-0.264190,0.093893,0.838631,-8.436257,34.008179,17.798681,,,,,,
1478277173.86,-1.416750,-1.501641,1.868349,-1.420876,3.653683,-1.543092,-0.068282,0.997610,-0.010603,0.676681,1.525782,0.245725,-10.319789,32.364342,19.762875,,,,,,
1478277173.88,-1.717686,-1.503449,1.535545,-1.202672,0.012862,0.798267,-0.066571,0.997733,0.009850,0.837247,0.545571,-0.127754,-10.319789,32.364342,19.762875,,,,,,
1478277173.90,-2.272310,-1.509000,0.989166,-1.334124,-0.151038,0.793607,-0.047174,0.998091,0.039856,-0.025580,-0.268111,-0.032975,-11.611408,31.102533,21.031578,,,,,,
1478277173.92,-2.573504,-1.497080,0.685061,-0.844313,0.053213,0.071637,-0.039625,0.997284,0.062081,-0.544192,-0.302521,-0.368402,-11.611408,31.102533,21.031578,,,,,,
1478277173.94,-2.601352,-1.485008,0.660912,-0.437405,-0.284361,-0.366948,-0.044070,0.996322,0.073480,-0.357083,-0.243408,-0.118707,-11.278668,30.522554,22.038261,,,,,,
1478277173.97,-2.606059,-1.469975,0.660018,-0.751414,0.017594,-0.307367,-0.051362,0.994922,0.086560,0.034272,0.128064,0.266407,-11.335518,30.303024,22.310368,,,,,,
1478277173.99,-2.645329,-1.452699,0.611157,-0.851549,0.581489,-0.109519,-0.056101,0.993035,0.103610,0.039011,0.129951,0.249356,-11.631116,29.697447,22.962984,,,,,,
1478277174.01,-2.687280,-1.435923,0.555415,-0.831590,0.677875,-0.064167,-0.059009,0.990918,0.120825,0.018818,0.099383,-0.016119,-11.631116,29.697447,22.962984,,,,,,
1478277174.03,-2.701714,-1.420266,0.523747,-0.713155,0.801306,-0.163257,-0.063859,0.988692,0.135686,0.093628,-0.129210,-0.151800,-12.513634,28.720667,23.728716,,,,,,
1478277174.05,-2.705812,-1.405663,0.507005,-0.666898,0.427572,-0.175157,-0.069389,0.986396,0.149020,0.143425,-0.118904,-0.086948,-12.513634,28.720667,23.728716,,,,,,
1478277174.07,-2.716355,-1.390872,0.490286,-0.708171,0.257135,-0.156311,-0.073826,0.983857,0.163017,0.116428,-0.086686,0.022239,-13.113991,28.130215,24.108795,,,,,,
1478277174.09,-2.729717,-1.375393,0.468590,-0.768044,0.455287,-0.091476,-0.077729,0.980969,0.177925,0.083375,-0.060483,0.080452,-13.482204,27.511969,24.613848,,,,,,
1478277174.11,-2.746294,-1.358535,0.441518,-0.866578,0.445931,-0.079801,-0.081126,0.977557,0.194425,0.001475,-0.063372,-0.055066,-13.702194,27.181835,24.857944,,,,,,
1478277174.14,-2.757188,-1.340982,0.422209,-0.805947,0.343426,-0.166346,-0.085425,0.973709,0.211172,-0.062738,-0.121444,-0.213873,-13.702194,27.181835,24.857944,,,,,,
1478277174.16,-2.756526,-1.324649,0.415706,-0.727722,0.331450,-0.238164,-0.091527,0.969858,0.225826,-0.063044,-0.160746,-0.207378,-14.342916,26.104290,25.639158,,,,,,
1478277174.18,-2.756488,-1.307458,0.407470,-0.839910,0.410246,-0.197669,-0.097785,0.965526,0.241240,-0.035790,-0.123226,-0.140929,-14.342916,26.104290,25.639158,,,,,,
1478277174.20,-2.757413,-1.287266,0.398736,-0.959355,0.261597,-0.336330,-0.104849,0.960074,0.259355,-0.060953,-0.071371,-0.177492,-14.829842,25.350557,26.114071,,,,,,
1478277174.22,-2.741856,-1.267311,0.412289,-0.625308,0.062323,-0.598730,-0.116305,0.954301,0.275288,0.269701,0.123962,-0.205586,-15.335999,24.409611,26.711380,,,,,,
1478277174.24,-2.726466,-1.257026,0.430244,-0.263691,-0.175624,-0.266141,-0.124479,0.951176,0.282433,0.376387,0.319453,0.044731,-15.555528,24.065998,26.895594,,,,,,
1478277174.26,-2.740957,-1.248898,0.414481,-0.556798,0.238381,0.258859,-0.123385,0.948636,0.291316,0.375292,0.321993,0.035847,-15.555528,24.065998,26.895594,,,,,,
1478277174.28,-2.757119,-1.243136,0.381729,-0.285909,0.904319,0.333968,-0.120709,0.946798,0.298334,-0.157093,0.237177,-0.535456,-15.577080,23.700600,27.205809,,,,,,
1478277174.30,-2.753806,-1.249436,0.371507,0.553478,0.340514,0.244537,-0.119439,0.948807,0.292405,-0.069511,0.502838,-0.771531,-15.964481,23.608696,27.060757,,,,,,
1478277174.33,-2.747971,-1.273052,0.372560,1.310720,0.332186,0.538768,-0.112516,0.956001,0.270930,0.187162,0.524026,-0.598887,-16.022501,23.906414,26.763454,,,,,,
1478277174.35,-2.732813,-1.313954,0.370296,2.046538,1.034643,0.878924,-0.100974,0.967197,0.233098,0.292227,0.402249,-0.498875,-15.958078,25.373192,25.417721,,,,,,
1478277174.37,-2.685541,-1.372830,0.399321,3.036305,0.694828,0.843968,-0.086617,0.980469,0.176575,0.100701,0.245255,-0.609330,-15.989114,26.502369,24.217607,,,,,,
1478277174.39,-2.539095,-1.442421,0.542080,3.359578,-0.024595,0.626314,-0.072551,0.991771,0.105481,-0.178624,0.254521,-0.400815,-15.989114,26.502369,24.217607,,,,,,
1478277174.41,-2.198812,-1.492322,0.882816,2.472802,0.430567,0.305631,-0.063436,0.996922,0.046059,-0.581874,0.426936,0.507056,-15.634747,29.206577,21.143560,,,,,,
1478277174.43,-1.555124,-1.513291,1.491550,1.974006,2.433231,0.375370,-0.057467,0.998347,-0.000901,-0.587843,0.425512,0.554017,-15.530648,31.048672,18.420061,,,,,,
1478277174.45,-0.831616,-1.503520,2.174690,2.093438,1.087623,0.268757,-0.049681,0.997738,-0.045289,-0.345247,0.172413,0.476228,-16.004623,31.696104,16.844250,,,,,,
1478277174.47,-0.481156,-1.464352,2.543041,2.488322,-1.544622,-0.001676,-0.049170,0.994340,-0.094181,0.204520,0.166655,-0.157330,-16.117550,32.863506,14.308535,,,,,,
1478277174.50,-0.335648,-1.421772,2.710783,1.971134,-0.499595,0.286335,-0.048904,0.988916,-0.140188,0.431884,0.231543,0.204717,-16.117550,32.863506,14.308535,,,,,,
1478277174.52,-0.230024,-1.388814,2.828591,1.652308,-0.713411,0.464805,-0.041264,0.983487,-0.176213,0.237980,0.323840,0.283985,-15.532866,33.884613,12.453225,,,,,,
1478277174.54,-0.164361,-1.357000,2.925718,1.707490,-1.725967,0.720372,-0.034716,0.977232,-0.209312,0.068179,0.133028,0.265236,-15.179893,34.325306,11.656065,,,,,,
1478277174.56,-0.113137,-1.322943,3.019998,1.651571,-1.854299,0.785375,-0.027696,0.969441,-0.243755,-0.147978,-0.032903,0.301784,-13.905710,35.220909,10.518484,,,,,,
1478277174.58,-0.073775,-1.296365,3.095794,1.181136,-1.515111,0.786347,-0.019975,0.962579,-0.270262,-0.327254,-0.181940,0.366179,-13.157385,35.658714,9.992952,,,,,,
1478277174.60,-0.052675,-1.272960,-3.130191,1.138439,-1.621570,0.618580,-0.015451,0.955974,-0.293046,-0.284354,-0.333735,0.414826,-11.809932,36.330551,9.226923,,,,,,
1478277174.62,-0.044638,-1.253148,-3.089100,0.806792,-1.384910,0.484796,-0.013937,0.949973,-0.312022,-0.285867,-0.327734,0.433803,-11.809932,36.330551,9.226923,,,,,,
1478277174.64,-0.050339,-1.241993,-3.064021,0.390972,-1.389323,0.278795,-0.016248,0.946430,-0.322501,-0.207537,-0.370853,0.442908,-10.769186,36.791557,8.655952,,,,,,
1478277174.67,-0.063773,-1.238961,-3.050695,0.017046,-1.112832,0.185262,-0.020762,0.945446,-0.325116,-0.005453,-0.413586,0.484311,-10.386015,36.914078,8.602405,,,,,,
1478277174.69,-0.067000,-1.243840,-3.034183,-0.357234,-0.781996,0.308545,-0.021502,0.947024,-0.320442,-0.037077,-0.473178,0.446998,-9.824354,36.998428,8.894830,,,,,,
1478277174.71,-0.063491,-1.258265,-3.013566,-0.854792,-0.810506,0.348222,-0.019508,0.951558,-0.306849,-0.039070,-0.477712,0.433406,-9.824354,36.998428,8.894830,,,,,,
1478277174.73,-0.071109,-1.284333,-3.000465,-1.451321,-0.992367,0.212745,-0.020076,0.959249,-0.281847,-0.140325,-0.581747,0.378863,-8.887661,36.794888,10.567190,,,,,,
1478277174.75,-0.089746,-1.322722,-3.003094,-1.980029,-0.517794,0.053446,-0.022006,0.969387,-0.244550,-0.086422,-0.539104,0.289166,-8.887661,36.794888,10.567190,,,,,,
1478277174.77,-0.118381,-1.367876,-3.032315,-2.190413,0.265430,-0.167229,-0.023802,0.979482,-0.200120,-0.096361,-0.318838,0.030290,-8.493906,36.156746,12.847691,,,,,,
,,,,,,,,,,,,,,,,37.352915,-122.034864,51.864258,0.000000,256.992188,1478280636.00
1478277174.79,-0.178569,-1.408633,-3.102755,-1.739203,0.447283,-0.344702,-0.028678,0.986880,-0.158887,-0.026391,0.097058,-0.514041,-8.577661,35.676060,14.077011,,,,,,
1478277174.81,-0.211309,-1.424175,-3.140544,-0.065053,-0.013926,0.067901,-0.030642,0.989270,-0.142847,0.217593,0.788974,-1.413336,-9.098855,34.764912,15.910112,,,,,,
1478277174.84,-0.150008,-1.407480,-3.054751,1.322664,-1.949466,0.738774,-0.024299,0.986694,-0.160765,0.142905,1.456528,-1.472337,-9.098855,34.764912,15.910112,,,,,,
1478277174.86,-0.048996,-1.377261,-2.910413,1.526727,-1.424684,1.216414,-0.009420,0.981330,-0.192098,-0.322093,-0.345741,-0.233164,-7.315340,35.596294,14.963597,,,,,,
1478277174.88,0.067431,-1.352888,-2.787919,0.826219,0.547441,1.062387,0.014567,0.976352,-0.215697,-0.538874,-0.378711,0.020995,-7.315340,35.596294,14.963597,,,,,,
1478277174.90,0.105776,-1.351904,-2.762748,-0.374389,0.358376,-0.323770,0.022926,0.976139,-0.215935,-0.547234,-0.378498,0.021232,-5.910432,36.336868,13.755669,,,,,,
1478277174.92,0.102281,-1.351477,-2.775449,0.375022,0.706240,0.266934,0.022214,0.976046,-0.216429,0.369327,0.731657,0.650053,-6.224652,36.268509,13.797421,,,,,,
1478277174.94,0.175212,-1.336164,-2.719902,0.629364,0.759916,0.839072,0.040526,0.972600,-0.228926,-0.067580,-0.316899,0.436186,-6.140213,36.429893,13.404496,,,,,,
1478277174.96,0.214840,-1.328964,-2.674003,-0.222286,-0.846545,0.297560,0.051055,0.970901,-0.233976,-0.452621,-0.467956,0.333067,-6.140213,36.429893,13.404496,,,,,,
1478277174.98,0.196598,-1.345858,-2.678733,-0.922491,-0.139909,-0.554286,0.043569,0.974808,-0.218750,-0.496205,-0.337051,0.607819,-5.330349,36.546715,13.432971,,,,,,
1478277175.00,0.153339,-1.374570,-2.745633,-1.559795,1.705008,-0.913834,0.029779,0.980809,-0.192681,-0.451960,0.029353,0.763299,-5.330349,36.546715,13.432971,,,,,,
1478277175.03,0.159931,-1.423354,-2.790540,-2.493329,2.580986,-0.592948,0.023395,0.989150,-0.145033,-0.370945,0.192399,0.739379,-6.737336,35.818821,14.701702,,,,,,
1478277175.05,0.220315,-1.475350,-2.775284,-2.248903,1.706638,-0.323425,0.020827,0.995448,-0.092998,-0.061263,0.440098,0.131114,-8.535398,34.481236,16.814013,,,,,,
1478277175.07,0.250989,-1.514320,-2.763859,-1.595122,0.479455,-0.363231,0.014019,0.998406,-0.054677,-0.054455,0.437141,0.092794,-9.113579,33.866096,17.735554,,,,,,
1478277175.09,0.524862,-1.549549,-2.490443,-1.797552,-0.207019,-0.076139,0.010646,0.999774,-0.018386,0.267384,0.205533,0.199675,-9.113579,33.866096,17.735554,,,,,,
1478277175.11,2.724541,-1.555035,-0.289931,-1.338862,-0.080779,-0.259865,0.006384,0.999876,0.014410,0.020731,-0.194563,-0.019933,-9.493501,32.797588,19.460508,,,,,,
1478277175.13,3.126575,-1.532994,0.122272,-1.042200,-0.527819,-0.309835,0.000568,0.999286,0.037789,-0.043231,-0.172000,0.071509,-9.620103,31.819889,20.963490,,,,,,
1478277175.15,-3.053384,-1.510049,0.229698,-1.141488,0.126534,-0.279601,-0.005348,0.998155,0.060474,-0.127785,-0.054552,0.100064,-9.599142,31.419758,21.567913,,,,,,
1478277175.17,-2.990006,-1.484010,0.277580,-1.189930,0.966142,-0.326931,-0.013089,0.996236,0.085684,-0.110187,0.025095,-0.024282,-10.088264,30.523016,22.607344,,,,,,
1478277175.20,-2.932063,-1.460854,0.318890,-0.940760,0.652613,-0.431309,-0.022822,0.993962,0.107321,-0.065694,-0.037343,-0.164725,-10.088264,30.523016,22.607344,,,,,,
1478277175.22,-2.881886,-1.438934,0.355666,-0.990458,0.738611,-0.423688,-0.033764,0.991319,0.127071,0.000332,-0.135026,-0.030574,-11.033264,29.629210,23.343019,,,,,,
1478277175.24,-2.843758,-1.416955,0.375604,-0.935714,0.853135,-0.401733,-0.044967,0.988190,0.146489,0.019607,-0.114929,-0.063877,-11.487074,29.188242,23.677277,,,,,,
1478277175.26,-2.820935,-1.395660,0.383682,-0.950231,0.614712,-0.353925,-0.054920,0.984703,0.165361,0.039890,-0.107567,-0.093843,-12.488228,28.310778,24.229397,,,,,,
1478277175.28,-2.805314,-1.374194,0.387505,-0.945090,0.545850,-0.367324,-0.064457,0.980736,0.184397,0.042042,-0.126610,-0.082392,-12.887289,27.872061,24.527243,,,,,,
1478277175.30,-2.789232,-1.352692,0.390254,-0.944647,0.705433,-0.363904,-0.074676,0.976309,0.203085,0.033385,-0.084296,-0.068777,-13.661768,26.972378,25.107101,,,,,,
1478277175.32,-2.775990,-1.331105,0.386810,-0.994402,0.797083,-0.289192,-0.084874,0.971411,0.221712,-0.021662,0.017496,-0.196001,-13.661768,26.972378,25.107101,,,,,,
1478277175.34,-2.772966,-1.307511,0.373247,-1.155420,0.779316,-0.244651,-0.093779,0.965540,0.242771,-0.012758,0.023367,-0.217060,-14.551245,26.043156,25.583881,,,,,,
1478277175.37,-2.761205,-1.283715,0.366195,-0.935876,0.886976,-0.399154,-0.105129,0.959074,0.262914,0.027294,-0.041197,-0.636816,-14.962714,25.529236,25.863003,,,,,,
1478277175.39,-2.730359,-1.269340,0.384515,-0.295373,0.439016,-0.521976,-0.118687,0.954905,0.272157,0.311940,0.030828,-0.523958,-15.949409,24.559446,26.210106,,,,,,
1478277175.41,-2.708431,-1.262931,0.407445,-0.115167,-0.318747,-0.292904,-0.127193,0.952982,0.275039,0.559978,0.113164,-0.204757,-15.949409,24.559446,26.210106,,,,,,
1478277175.43,-2.716275,-1.260663,0.409582,-0.028664,-0.340480,0.055177,-0.125923,0.952293,0.277996,0.629508,0.204674,-0.084224,-16.273466,24.071236,26.462608,,,,,,
1478277175.45,-2.730381,-1.266228,0.394333,0.318553,0.168383,0.471576,-0.119869,0.953977,0.274882,0.440166,0.280322,-0.332835,-16.273466,24.071236,26.462608,,,,,,
1478277175.47,-2.739643,-1.287864,0.380013,1.246473,0.177087,0.634213,-0.109216,0.960241,0.256922,0.054971,0.356348,-0.749735,-16.035696,24.376400,26.328068,,,,,,
1478277175.49,-2.724967,-1.331910,0.393086,2.421525,0.048832,0.687771,-0.095755,0.971602,0.216380,-0.009790,0.243715,-0.940287,-15.885572,24.935919,25.891472,,,,,,
1478277175.51,-2.648018,-1.396769,0.466575,3.332878,0.518921,0.741737,-0.082034,0.984896,0.152483,-0.023511,0.230421,-0.876391,-15.394299,27.069733,23.974255,,,,,,
1478277175.53,-2.491441,-1.464473,0.613375,2.974703,0.224643,1.058470,-0.064237,0.994353,0.084474,-0.048250,0.732042,-0.123444,-15.394299,27.069733,23.974255,,,,,,
1478277175.56,-2.248901,-1.520030,0.855523,2.209393,0.383480,1.082862,-0.039518,0.998712,0.031833,-0.772326,0.595084,0.709134,-14.368368,30.888893,19.594540,,,,,,
1478277175.58,-1.201669,-1.545565,1.864148,1.757718,2.636852,0.639043,-0.023530,0.999682,-0.009103,-0.811828,0.294630,0.516518,-14.368368,30.888893,19.594540,,,,,,
1478277175.60,-0.147281,-1.520857,2.870973,1.999314,1.379828,0.602460,-0.007325,0.998753,-0.049378,-0.704879,0.229884,-0.231827,-14.559164,32.374115,16.866152,,,,,,
1478277175.62,-0.065431,-1.473368,2.980246,2.251120,-2.737220,0.013845,-0.006360,0.995258,-0.097066,-0.006884,0.228162,-0.304393,-14.439495,33.606327,14.374819,,,,,,
1478277175.64,-0.027292,-1.429852,3.061715,2.069867,-0.818465,0.570121,-0.003833,0.990084,-0.140426,0.658481,0.209867,0.191574,-13.748346,34.115906,13.842241,,,,,,
1478277175.66,0.040952,-1.386950,3.137479,1.953023,-0.767163,0.559846,0.007484,0.983148,-0.182659,0.297005,0.164695,0.163555,-13.748346,34.115906,13.842241,,,,,,
1478277175.68,0.056668,-1.345959,-3.092624,1.891941,-2.092865,0.683887,0.012627,0.974830,-0.222590,0.043693,0.059792,0.475703,-12.861857,35.188736,11.867828,,,,,,
1478277175.70,0.056809,-1.304946,-3.036784,1.913305,-2.801951,0.760316,0.014917,0.964869,-0.262306,-0.182093,-0.067607,0.549812,-11.445589,36.112244,10.460592,,,,,,
1478277175.73,0.048607,-1.264360,-2.982248,1.839023,-2.863925,0.862226,0.014657,0.953415,-0.301306,-0.348809,-0.174530,0.574912,-10.556752,36.553619,9.844163,,,,,,
1478277175.75,0.030265,-1.226524,-2.935658,1.643273,-2.888733,0.687907,0.010213,0.941321,-0.337357,-0.323888,-0.505942,0.555084,-8.737632,37.341972,8.587819,,,,,,
1478277175.77,0.007194,-1.201012,-2.904087,0.871824,-2.172129,0.450172,0.002600,0.932405,-0.361405,-0.279226,-0.627657,0.570222,-7.996558,37.622585,8.069441,,,,,,
1478277175.79,-0.011519,-1.192942,-2.887699,0.122451,-1.292267,0.193537,-0.004250,0.929459,-0.368902,-0.272377,-0.624710,0.577719,-7.996558,37.622585,8.069441,,,,,,
,,,,,,,,,,,,,,,,37.352915,-122.034864,51.313965,0.000000,256.992188,1478280637.00
1478277175.81,-0.021311,-1.198113,-2.877030,-0.441400,-0.775073,0.212145,-0.007759,0.931354,-0.364034,-0.164208,-0.418948,0.499822,-7.118232,37.852993,7.810330,,,,,,
1478277175.83,-0.020265,-1.213453,-2.860440,-0.859120,-0.662918,0.335130,-0.007088,0.936829,-0.349715,-0.167625,-0.465058,0.496032,-6.642139,37.804581,8.438921,,,,,,
1478277175.85,-0.013503,-1.236847,-2.838576,-1.257185,-0.632615,0.382284,-0.004426,0.944755,-0.327747,-0.220458,-0.537788,0.486942,-6.350101,37.719383,9.024636,,,,,,
1478277175.87,0.001089,-1.270762,-2.813170,-1.820285,-0.271265,0.377498,0.000322,0.955326,-0.295553,-0.248491,-0.622822,0.457006,-5.715456,37.372944,10.729230,,,,,,
1478277175.90,0.025492,-1.317917,-2.794133,-2.477359,0.667729,0.078934,0.006377,0.968196,-0.250111,-0.298263,-0.574245,0.325551,-5.509496,37.046280,11.905395,,,,,,
1478277175.92,0.032466,-1.373568,-2.812534,-2.557239,1.341266,-0.492997,0.006361,0.980613,-0.195849,-0.276228,-0.237144,-0.099867,-5.509496,37.046280,11.905395,,,,,,
1478277175.94,-0.019843,-1.404018,-2.890390,-0.432622,0.746075,-0.625831,-0.003294,0.986125,-0.165974,0.255186,1.664647,-2.202602,-6.079047,35.943333,14.684746,,,,,,
1478277175.96,-0.037440,-1.387327,-2.889803,1.112423,-1.697584,0.399297,-0.006829,0.983217,-0.182314,0.090996,1.223754,-0.868497,-7.029417,35.452278,15.435122,,,,,,
1478277175.98,0.009937,-1.362225,-2.800899,1.198426,-1.630900,0.927953,0.002058,0.978328,-0.207052,0.082110,1.228642,-0.843760,-6.417898,35.758560,14.988518,,,,,,
1478277176.00,0.087585,-1.338693,-2.717164,0.945354,0.799185,0.732405,0.020121,0.973185,-0.229143,-0.877528,-0.193705,0.024157,-4.811636,36.452606,13.877146,,,,,,
1478277176.02,0.083108,-1.334140,-2.742396,-0.111211,0.671061,-0.832114,0.019463,0.972127,-0.233644,-0.766655,0.884669,0.376664,-4.811636,36.452606,13.877146,,,,,,
1478277176.04,0.054937,-1.323695,-2.793698,1.150218,1.275998,-0.091335,0.013430,0.969626,-0.244225,0.311261,0.894464,-0.159813,-5.418976,36.554955,13.374960,,,,,,
1478277176.07,0.166168,-1.298984,-2.725735,0.454555,2.580968,1.344188,0.044407,0.963286,-0.264779,0.858364,-0.190718,1.500940,-5.905620,36.665054,12.857574,,,,,,
1478277176.09,0.311546,-1.306529,-2.618357,-1.081461,1.538214,1.010959,0.080066,0.965284,-0.248628,-0.213245,-1.030241,1.391115,-5.486267,37.096016,11.760363,,,,,,
1478277176.11,0.396386,-1.330946,-2.550773,-1.373390,0.592086,-0.134170,0.091718,0.971373,-0.219138,-0.763532,-1.113387,0.729453,-5.486267,37.096016,11.760363,,,,,,
1478277176.13,0.376672,-1.365466,-2.599413,-1.508729,2.139037,-1.562546,0.074996,0.978994,-0.189596,-0.254150,0.927882,0.477377,-5.992148,36.365971,13.642946,,,,,,
1478277176.15,0.348685,-1.416010,-2.696568,-2.118043,3.619850,-1.503386,0.052674,0.988044,-0.144892,-0.231827,0.918831,0.432673,-5.992148,36.365971,13.642946,,,,,,
1478277176.17,0.421180,-1.466041,-2.688377,-2.211475,2.427108,-0.322088,0.042750,0.994518,-0.095426,-0.043833,0.718891,0.164671,-9.171539,35.122013,15.061434,,,,,,
1478277176.19,0.779581,-1.499050,-2.360599,-1.898840,1.078455,0.371256,0.050393,0.997427,-0.050983,0.060951,0.019174,0.186114,-10.252263,34.471462,15.847054,,,,,,
1478277176.21,1.388113,-1.513536,-1.763021,-1.861093,0.239382,0.129201,0.056276,0.998361,-0.010397,0.026457,-0.122430,0.104284,-10.620810,33.510178,17.572313,,,,,,
1478277176.23,2.000408,-1.511330,-1.150294,-1.527972,-0.012769,-0.187666,0.054030,0.998232,0.024754,0.100480,-0.096362,0.073665,-10.620810,33.510178,17.572313,,,,,,
1478277176.26,2.351127,-1.498876,-0.788408,-1.070673,-0.626556,-0.158717,0.051069,0.997415,0.050553,0.134448,-0.011392,0.017730,-10.646841,32.053089,20.093878,,,,,,
1478277176.28,2.569158,-1.485641,-0.567722,-1.074559,0.202348,-0.266102,0.046071,0.996376,0.071494,-0.097936,-0.086266,-0.050544,-10.646841,32.053089,20.093878,,,,,,
1478277176.30,2.741524,-1.464036,-0.403877,-1.285423,0.544399,-0.102705,0.041502,0.994307,0.098143,-0.294936,-0.117063,-0.186476,-10.807078,31.292175,21.178446,,,,,,
1478277176.32,2.870671,-1.442186,-0.286046,-1.088158,0.550419,-0.435525,0.034324,0.991741,0.123578,-0.388343,-0.122707,-0.138135,-11.356047,30.368755,22.210323,,,,,,
1478277176.34,3.004134,-1.423407,-0.163203,-1.030542,0.587690,-0.643477,0.020123,0.989158,0.145471,-0.126797,-0.250495,-0.002038,-11.799042,29.897985,22.614437,,,,,,
1478277176.36,3.115797,-1.400339,-0.068917,-1.210935,1.103019,-0.563611,0.004375,0.985507,0.169576,0.110874,-0.230289,0.027110,-11.799042,29.897985,22.614437,,,,,,
1478277176.38,-3.089820,-1.372552,-0.019113,-1.339758,1.380536,-0.378275,-0.010192,0.980414,0.196684,0.150146,-0.227347,-0.047102,-13.659744,28.266829,23.641438,,,,,,
1478277176.40,-3.042293,-1.343363,0.004664,-1.365548,0.985010,-0.337403,-0.022353,0.974248,0.224367,0.086623,-0.210821,-0.001970,-13.659744,28.266829,23.641438,,,,,,
1478277176.43,-3.007345,-1.312172,0.020269,-1.488206,0.993954,-0.337375,-0.034231,0.966743,0.253450,0.098501,-0.203315,-0.031053,-14.839130,27.074011,24.317026,,,,,,
1478277176.45,-2.980905,-1.279821,0.025972,-1.469563,0.859292,-0.273572,-0.045901,0.957965,0.283191,-0.078870,-0.090945,-0.440829,-15.887608,25.749386,25.081326,,,,,,
1478277176.47,-2.965219,-1.252345,0.033497,-1.084865,0.107728,-0.412608,-0.054936,0.949721,0.308239,-0.198634,-0.087096,-0.697658,-16.275745,25.115252,25.472418,,,,,,
1478277176.49,-2.931625,-1.235379,0.067313,-0.430216,0.243675,-0.732676,-0.068607,0.944273,0.321934,0.091663,0.037050,-0.675098,-16.275745,25.115252,25.472418,,,,,,
1478277176.51,-2.893737,-1.230204,0.096361,-0.050645,0.515035,-0.250805,-0.081950,0.942557,0.323837,0.563151,0.212594,-0.361206,-16.808495,24.130440,26.071365,,,,,,
1478277176.53,-2.899941,-1.231329,0.077926,0.056903,0.576430,0.546033,-0.079686,0.942932,0.323310,0.714512,0.474289,-0.271338,-17.444244,23.880978,25.882755,,,,,,
1478277176.55,-2.918518,-1.246503,0.045735,1.009507,0.453475,0.668975,-0.070492,0.947876,0.310744,0.421048,0.280380,-0.691267,-17.481932,24.059093,25.691666,,,,,,
1478277176.57,-2.919586,-1.290791,0.041576,2.655272,-0.043579,0.410803,-0.060851,0.961054,0.269578,0.039138,0.578192,-1.046525,-17.301712,25.399797,24.495323,,,,,,
1478277176.60,-2.901309,-1.360309,0.069036,3.420945,-0.541563,0.486484,-0.049722,0.977929,0.202934,0.028009,0.561316,-0.979881,-17.052269,26.644979,23.319199,,,,,,
1478277176.62,-2.859629,-1.439866,0.122408,3.880952,-0.475661,0.692908,-0.036326,0.991441,0.125401,0.063304,0.571624,-0.328434,-17.052269,26.644979,23.319199,,,,,,
1478277176.64,-2.978814,-1.516648,0.017879,2.992991,-0.389102,1.575531,-0.008771,0.998534,0.053407,-0.460467,1.185716,1.048751,-16.223513,29.441826,20.359182,,,,,,
1478277176.66,2.085322,-1.549181,-1.241365,1.491917,3.132686,1.003472,0.018815,0.999766,0.010637,-0.488054,1.184484,1.091521,-14.793672,31.967602,17.428122,,,,,,
1478277176.68,1.077538,-1.533464,-2.312261,1.768391,2.405619,0.677530,0.032874,0.999303,-0.017673,-1.140998,0.325434,0.076022,-15.063922,32.614315,15.934377,,,,,,
1478277176.70,0.563720,-1.489050,-2.848569,2.410458,-0.379643,0.355553,0.043631,0.996661,-0.069021,0.160150,0.460187,0.113180,-15.470496,33.782627,12.803033,,,,,,
1478277176.72,0.450035,-1.443205,-2.928598,2.151737,-1.387860,0.905159,0.055351,0.991871,-0.114575,0.684593,0.352336,0.088590,-15.470496,33.782627,12.803033,,,,,,
1478277176.74,0.417046,-1.394326,-2.963782,2.074363,0.261648,0.503274,0.071111,0.984469,-0.160509,0.668833,0.359738,0.134523,-14.256099,34.926392,11.019548,,,,,,
1478277176.76,0.347359,-1.352109,-3.012919,2.032510,-1.797691,0.356552,0.073853,0.976183,-0.203991,-0.066849,0.043913,0.347821,-13.931230,35.435719,9.733979,,,,,,
1478277176.79,0.278991,-1.306376,-3.028574,2.170723,-2.823575,0.561468,0.071972,0.965244,-0.251245,-0.225277,-0.043384,0.487679,-13.120067,36.163925,8.034554,,,,,,
,,,,,,,,,,,,,,,,37.352915,-122.034864,51.335388,0.000000,256.992188,1478280638.00
1478277176.81,0.209805,-1.255399,-3.027762,2.361413,-3.491933,0.589981,0.064604,0.950673,-0.303392,-0.318861,-0.242055,0.541262,-12.451134,36.544243,7.348975,,,,,,
1478277176.83,0.136013,-1.209254,-3.026342,1.968744,-3.547514,0.228364,0.047962,0.935352,-0.350450,-0.335224,-0.582905,0.578966,-11.103098,37.223286,5.972254,,,,,,
1478277176.85,0.050183,-1.173849,-3.039695,1.412016,-3.222334,-0.209564,0.019393,0.922246,-0.386118,-0.202361,-0.773320,0.581782,-11.103098,37.223286,5.972254,,,,,,
1478277176.87,-0.010998,-1.157039,-3.052877,0.472267,-1.765158,-0.228288,-0.004422,0.915617,-0.402028,-0.080554,-0.705839,0.611928,-10.568029,37.496918,5.178573,,,,,,
1478277176.89,-0.037151,-1.156322,-3.057726,-0.220947,-0.609317,0.043950,-0.014958,0.915328,-0.402431,-0.167583,-0.514480,0.710689,-10.530931,37.513977,5.130376,,,,,,
1478277176.91,-0.031847,-1.168851,-3.046991,-0.790942,-0.084971,0.289643,-0.012457,0.920302,-0.391011,-0.170084,-0.519453,0.699269,-10.405783,37.489910,5.544910,,,,,,
1478277176.93,-0.016830,-1.192988,-3.029493,-1.351255,-0.065066,0.362566,-0.006208,0.929475,-0.368832,-0.256213,-0.527223,0.657452,-10.405783,37.489910,5.544910,,,,,,
1478277176.96,0.003395,-1.229770,-3.003174,-1.966910,-0.295673,0.510261,0.001135,0.942412,-0.334452,-0.093970,-0.612425,0.429423,-9.737129,37.275143,7.763495,,,,,,
1478277176.98,0.037700,-1.279195,-2.960720,-2.560152,-0.177792,0.599124,0.010836,0.957785,-0.287282,-0.034319,-0.570334,0.243336,-9.737129,37.275143,7.763495,,,,,,
1478277177.00,0.096797,-1.339048,-2.906660,-2.957282,0.697067,0.341370,0.022198,0.973266,-0.228604,-0.078411,-0.262207,-0.251987,-9.005414,36.758480,10.594163,,,,,,
1478277177.02,0.147787,-1.392355,-2.883809,-2.036736,1.572536,-0.281887,0.026136,0.984122,-0.175561,-0.173078,0.562219,-1.285239,-8.829777,36.292847,12.222279,,,,,,
1478277177.04,0.132618,-1.408190,-2.904113,0.141510,-0.974715,-0.157208,0.021407,0.986809,-0.160469,0.074129,1.790978,-2.225960,-9.540382,35.353447,14.270063,,,,,,
1478277177.06,0.102374,-1.384555,-2.889393,1.506657,-2.461650,0.526073,0.018923,0.982707,-0.184197,-0.098803,1.514836,-0.950385,-9.540382,35.353447,14.270063,,,,,,
1478277177.08,0.115163,-1.351737,-2.830320,1.369376,-1.679181,0.790123,0.024971,0.976102,-0.215872,-0.717751,-0.654996,-0.076898,-7.820236,36.108788,13.398478,,,,,,
1478277177.10,0.142888,-1.326890,-2.796435,0.801051,0.606315,0.101806,0.034389,0.970402,-0.239034,-0.727169,-0.649296,-0.053736,-7.820236,36.108788,13.398478,,,,,,
1478277177.13,0.131324,-1.327664,-2.838414,-0.153868,2.030053,-0.594731,0.031525,0.970589,-0.238671,-0.669891,0.257256,0.657525,-7.189542,36.636532,12.271704,,,,,,
1478277177.15,0.202825,-1.324727,-2.833727,0.112734,3.223913,0.796733,0.049069,0.969877,-0.238600,0.922199,1.010179,1.126295,-8.503474,36.554100,11.662256,,,,,,
1478277177.17,0.351628,-1.320969,-2.728431,-0.389726,1.671611,1.093245,0.085155,0.968955,-0.232109,-0.191783,-0.557227,1.052910,-8.367423,36.708958,11.267586,,,,,,
1478277177.19,0.443260,-1.323420,-2.661074,-0.368604,0.830354,0.411210,0.105018,0.969558,-0.221197,-0.211646,-0.557830,1.041998,-8.367423,36.708958,11.267586,,,,,,
1478277177.21,0.468065,-1.345202,-2.622324,-1.729364,-1.381960,-0.394465,0.100918,0.974661,-0.199627,-0.882733,-0.779578,0.355206,-7.811173,36.628147,11.911510,,,,,,
1478277177.23,0.500019,-1.404962,-2.602551,-3.010312,2.664306,-1.475852,0.079144,0.986281,-0.144865,-0.572338,0.197969,1.080137,-7.811173,36.628147,11.911510,,,,,,
1478277177.25,0.727992,-1.476514,-2.476508,-3.164929,5.058722,-1.017554,0.062640,0.995559,-0.070279,0.087781,1.075074,0.583173,-9.433252,35.259258,14.571143,,,,,,
1478277177.27,1.445619,-1.504520,-1.811966,-2.521438,1.024535,0.696633,0.065709,0.997805,-0.008269,0.364299,0.790190,-0.346712,-12.237395,33.524521,16.458197,,,,,,
1478277177.30,1.972033,-1.482496,-1.296056,-1.626422,0.657208,0.468544,0.081181,0.996104,0.034441,-0.068532,0.084783,-0.103823,-11.984451,33.055870,17.555683,,,,,,
1478277177.32,2.250661,-1.467392,-1.019588,-1.365518,-0.298402,-0.255367,0.080270,0.994659,0.064893,-0.342171,-0.259887,-0.107114,-11.984451,33.055870,17.555683,,,,,,
1478277177.34,2.444283,-1.458217,-0.812509,-0.828490,-0.461026,-0.511587,0.072141,0.993670,0.086118,-0.028944,-0.251741,0.097384,-11.981897,32.231907,19.027819,,,,,,
1478277177.36,2.600219,-1.451416,-0.654621,-0.866658,0.229118,-0.439925,0.061372,0.992883,0.102066,-0.067720,-0.108178,0.075287,-12.175131,31.467039,20.152205,,,,,,
1478277177.38,2.743091,-1.432835,-0.528678,-1.212525,1.150596,-0.229160,0.053364,0.990498,0.126748,-0.059712,-0.105794,0.050605,-12.471908,31.099632,20.537384,,,,,,
1478277177.40,2.848850,-1.411502,-0.443315,-1.072432,0.760685,-0.225852,0.045775,0.987340,0.151873,0.000765,-0.003422,-0.104265,-13.387795,30.223310,21.256485,,,,,,
1478277177.42,2.924776,-1.392481,-0.377009,-0.984374,0.452590,-0.324353,0.038156,0.984144,0.173219,0.020010,-0.133116,0.000915,-13.715143,29.818611,21.616312,,,,,,
1478277177.44,2.999937,-1.372665,-0.316269,-1.052879,0.959743,-0.368032,0.027790,0.980436,0.194866,0.010677,-0.167951,-0.023525,-13.715143,29.818611,21.616312,,,,,,
1478277177.46,3.074042,-1.349567,-0.267520,-1.149606,1.331367,-0.374980,0.014811,0.975628,0.218929,-0.024272,-0.092251,-0.140392,-14.482303,28.962095,22.270603,,,,,,
1478277177.49,3.138986,-1.325562,-0.226998,-1.196645,1.114103,-0.408209,0.000633,0.970080,0.242783,-0.055625,-0.023349,-0.211350,-15.717515,27.974741,22.691259,,,,,,
1478277177.51,-3.087526,-1.297220,-0.195540,-1.387696,1.350721,-0.423144,-0.014600,0.962811,0.269782,-0.058672,-0.024426,-0.148627,-16.308952,27.436802,22.929449,,,,,,
1478277177.53,-3.037388,-1.267638,-0.171345,-1.316861,1.118416,-0.444678,-0.031053,0.954398,0.296917,-0.127532,-0.156501,-0.508633,-17.626968,26.200823,23.395010,,,,,,
1478277177.55,-3.000001,-1.240810,-0.144575,-1.127212,0.185496,-0.661442,-0.045727,0.946047,0.320787,-0.112858,-0.148150,-0.532503,-17.626968,26.200823,23.395010,,,,,,
1478277177.57,-2.959479,-1.219580,-0.099815,-0.658316,-0.059078,-0.918229,-0.062309,0.938955,0.338350,0.064689,-0.078008,-0.672579,-18.506992,24.970724,24.051483,,,,,,
1478277177.59,-2.932771,-1.209947,-0.071070,-0.287231,-0.049120,-0.186367,-0.073194,0.935597,0.345399,0.681821,0.307506,-0.084077,-18.816500,24.393309,24.401340,,,,,,
1478277177.61,-2.948826,-1.202836,-0.096462,-0.410340,0.738514,0.635269,-0.068912,0.933063,0.353050,0.512302,0.331616,-0.387123,-19.085478,23.916302,24.663227,,,,,,
1478277177.63,-2.973258,-1.205838,-0.147264,0.316193,1.127241,0.872155,-0.059797,0.934139,0.351866,0.503187,0.330540,-0.385939,-19.127960,23.955509,24.592163,,,,,,
1478277177.66,-2.994686,-1.233189,-0.179162,1.688664,-0.044780,0.636452,-0.048485,0.943550,0.327663,-0.131767,0.520256,-1.147533,-19.141064,24.876762,23.649231,,,,,,
1478277177.68,-3.020657,-1.285227,-0.207750,2.704494,0.432387,0.856359,-0.033985,0.959501,0.279646,0.112812,0.579592,-0.791243,-19.141064,24.876762,23.649231,,,,,,
1478277177.70,-3.055802,-1.349390,-0.264471,3.024206,0.936958,0.992748,-0.018817,0.975590,0.218794,-0.071698,0.438030,-0.343519,-18.630569,27.016222,21.622799,,,,,,
1478277177.72,3.139028,-1.415447,-0.360306,3.004408,-0.211714,1.005053,0.000397,0.987958,0.154725,-0.352707,0.664417,-0.059342,-18.521671,28.294256,20.022549,,,,,,
1478277177.74,2.934442,-1.468246,-0.570357,2.337086,0.840959,0.915464,0.021055,0.994746,0.100183,-0.635877,0.687200,0.708533,-17.655872,30.626663,17.169668,,,,,,
1478277177.76,2.595748,-1.501504,-0.952058,1.871150,2.507492,0.961787,0.035943,0.997600,0.059176,-0.965600,0.645542,0.591444,-17.655872,30.626663,17.169668,,,,,,
1478277177.78,1.951281,-1.516255,-1.652444,2.064106,2.173749,0.425534,0.050616,0.998513,0.020245,-0.262133,0.202415,-0.287869,-17.596270,32.862568,12.447589,,,,,,
1478277177.80,1.223612,-1.507609,-2.383658,1.857067,-1.076578,0.593122,0.059377,0.998004,-0.021485,0.412577,0.272214,-0.108169,-17.596270,32.862568,12.447589,,,,,,
1478277177.83,0.820211,-1.469556,-2.768190,2.437651,-0.569050,0.669603,0.073910,0.994880,-0.068935,0.398044,0.275338,-0.060719,-17.197178,33.827133,10.222607,,,,,,
,,,,,,,,,,,,,,,,37.352915,-122.034864,50.968689,0.000000,256.992188,1478280639.00
1478277177.85,0.584988,-1.428333,-2.989601,2.097143,-0.957312,0.096380,0.078401,0.989869,-0.118373,-0.123658,0.091430,0.304423,-16.671902,34.376213,9.211040,,,,,,
1478277177.87,0.421185,-1.387050,-3.111835,2.203317,-2.312398,0.170860,0.074701,0.983166,-0.166746,-0.139307,0.020664,0.469328,-16.160484,35.072212,7.300585,,,,,,
1478277177.89,0.316999,-1.341253,3.117991,2.214487,-2.654345,0.328559,0.070926,0.973770,-0.216196,-0.288089,-0.112473,0.343882,-16.160484,35.072212,7.300585,,,,,,
1478277177.91,0.223020,-1.294604,3.085850,2.176924,-3.083727,0.171572,0.060313,0.962101,-0.265941,-0.356029,-0.263294,0.373515,-14.967719,35.925175,5.465239,,,,,,
1478277177.93,0.137320,-1.252341,3.066394,1.849009,-3.126374,0.034743,0.042860,0.949720,-0.310153,-0.342405,-0.460752,0.479083,-14.967719,35.925175,5.465239,,,,,,
1478277177.95,0.068431,-1.222226,3.054815,1.105904,-2.316437,-0.055314,0.023355,0.939862,-0.340755,-0.200616,-0.580167,0.590313,-14.364306,36.285667,4.640763,,,,,,
1478277177.97,0.035435,-1.211598,3.050643,0.192721,-0.888660,-0.027172,0.012454,0.936179,-0.351303,-0.207217,-0.432486,0.624252,-14.115390,36.406113,4.457625,,,,,,
1478277178.00,0.031899,-1.215524,3.055044,-0.392791,-0.126788,0.137760,0.011094,0.937552,-0.347669,-0.205857,-0.433859,0.620618,-14.065294,36.409840,4.583759,,,,,,
1478277178.02,0.048235,-1.228041,3.073343,-0.711813,-0.048121,0.338186,0.016205,0.941832,-0.335692,-0.221390,-0.367843,0.577285,-14.065294,36.409840,4.583759,,,,,,
1478277178.04,0.073005,-1.247266,3.102008,-1.099756,-0.125564,0.401091,0.023189,0.948119,-0.317069,-0.245662,-0.558699,0.510260,-13.799247,36.426579,5.215834,,,,,,
1478277178.06,0.108583,-1.278584,3.139639,-1.800466,0.103395,0.383620,0.031218,0.957609,-0.286375,-0.215926,-0.626875,0.485808,-13.321642,36.398571,6.495974,,,,,,
1478277178.08,0.163573,-1.325875,-3.095421,-2.550606,0.629660,0.217551,0.039486,0.970156,-0.239243,-0.162747,-0.585116,0.308259,-13.113964,36.277683,7.514875,,,,,,
1478277178.10,0.242498,-1.384347,-3.037687,-2.875913,1.319806,-0.139023,0.044513,0.982669,-0.179948,-0.058887,-0.281344,-0.102096,-13.126748,35.617336,10.179070,,,,,,
1478277178.12,0.323038,-1.434427,-2.991118,-1.806910,1.776206,-0.329792,0.043156,0.990716,-0.128915,0.009456,0.259086,-0.993491,-13.507884,35.094482,11.420773,,,,,,
1478277178.14,0.346950,-1.438313,-2.985382,0.699767,-0.106322,0.244087,0.044917,0.991237,-0.124225,0.165716,1.188237,-2.353909,-13.507884,35.094482,11.420773,,,,,,
1478277178.16,0.361583,-1.414330,-2.948122,1.034046,-1.191989,0.820384,0.055125,0.987784,-0.145753,0.003560,1.627069,-1.228728,-14.089175,34.737019,11.804848,,,,,,
1478277178.19,0.401852,-1.381186,-2.888748,1.307885,-0.406316,1.093925,0.073718,0.982078,-0.173462,-0.447390,0.365212,-0.600739,-12.866541,35.441299,11.085398,,,,,,
1478277178.21,0.453111,-1.357480,-2.851305,0.404970,0.958409,0.322895,0.092676,0.977334,-0.190339,-0.902261,-0.238488,-0.068114,-12.188753,35.878399,10.425665,,,,,,
1478277178.23,0.410257,-1.358359,-2.902613,0.479291,0.328777,-0.604746,0.084094,0.977520,-0.193347,-0.037066,0.854359,-0.405377,-12.247871,36.056618,9.717484,,,,,,
1478277178.25,0.391380,-1.327141,-2.939171,1.704325,1.183102,0.930562,0.092029,0.970463,-0.223009,0.911618,0.208477,1.201738,-12.247871,36.056618,9.717484,,,,,,
1478277178.27,0.495243,-1.308545,-2.860566,-0.317356,1.111592,1.074253,0.123210,0.965809,-0.228107,0.880437,0.213131,1.206836,-12.186970,36.516655,7.907689,,,,,,
1478277178.29,0.572958,-1.313618,-2.801243,-0.654518,0.815155,0.099328,0.137890,0.967112,-0.213733,-0.778866,-1.168238,0.674075,-11.642593,36.758583,7.601078,,,,,,
1478277178.31,0.600815,-1.340307,-2.790501,-1.525766,1.110400,-1.001175,0.129148,0.973555,-0.188446,-0.807188,-0.259840,0.444122,-11.596210,36.674469,8.064176,,,,,,
1478277178.33,0.679845,-1.395068,-2.768515,-2.522313,3.681385,-1.426539,0.109908,0.984599,-0.135957,-0.422576,0.656941,0.760346,-12.330938,36.282818,8.719215,,,,,,
1478277178.36,0.947221,-1.449727,-2.580425,-2.738377,3.289543,-0.651641,0.098044,0.992680,-0.070525,-0.055274,0.884136,0.313689,-14.807781,34.993431,10.035388,,,,,,
1478277178.38,1.442915,-1.470227,-2.127106,-2.356192,1.694500,0.360044,0.099580,0.994947,-0.012804,0.065887,0.486910,-0.093229,-14.807781,34.993431,10.035388,,,,,,
1478277178.40,1.895964,-1.454029,-1.708428,-2.218129,1.717172,0.524922,0.110397,0.993190,0.037219,-0.024475,0.135121,0.114408,-15.618840,34.111832,11.702748,,,,,,
1478277178.42,2.215600,-1.429022,-1.415971,-1.905876,1.325063,-0.035218,0.112929,0.989967,0.084927,-0.139571,-0.244850,-0.059231,-15.659969,33.829556,12.443716,,,,,,
1478277178.44,2.403456,-1.410593,-1.240471,-1.314416,0.326380,-0.234673,0.107342,0.987195,0.118000,-0.095257,-0.212064,-0.021869,-16.093302,33.051830,13.896113,,,,,,
1478277178.46,2.523893,-1.394217,-1.123841,-1.137823,0.349779,-0.219177,0.101737,0.984450,0.143203,-0.089652,-0.209319,-0.047073,-16.093302,33.051830,13.896113,,,,,,
1478277178.48,2.630189,-1.375437,-1.031344,-1.253886,0.990788,-0.170216,0.095002,0.980978,0.169283,-0.088151,0.069208,-0.146304,-16.742033,32.023071,15.451440,,,,,,
1478277178.50,2.722981,-1.354807,-0.962006,-1.067638,1.263484,-0.197752,0.087117,0.976765,0.195809,-0.097737,-0.023335,-0.191475,-16.742033,32.023071,15.451440,,,,,,
1478277178.53,2.809583,-1.335964,-0.902925,-1.075154,1.336647,-0.297255,0.075841,0.972553,0.219973,-0.065465,-0.117481,-0.116442,-17.502022,31.347862,15.984695,,,,,,
1478277178.55,2.888457,-1.316554,-0.846238,-1.063113,1.086789,-0.378917,0.062989,0.967854,0.243497,-0.014207,-0.137028,-0.134885,-17.985949,31.002504,16.120483,,,,,,
1478277178.57,2.964983,-1.294182,-0.796373,-1.240677,1.517810,-0.357257,0.047982,0.961985,0.268853,0.031303,-0.128322,-0.146645,-18.944181,30.226896,16.491589,,,,,,
1478277178.59,3.037878,-1.267468,-0.756817,-1.339778,1.629476,-0.363594,0.030924,0.954348,0.297093,0.029165,-0.136721,-0.219701,-18.944181,30.226896,16.491589,,,,,,
1478277178.61,3.101000,-1.240344,-0.721815,-1.297130,1.266038,-0.478946,0.013167,0.945896,0.324203,-0.049850,-0.240650,-0.192810,-20.694813,28.843842,16.860527,,,,,,
1478277178.63,-3.127565,-1.214479,-0.687974,-1.199541,0.972158,-0.533824,-0.004893,0.937188,0.348791,-0.031789,-0.231942,-0.217398,-20.694813,28.843842,16.860527,,,,,,
1478277178.65,-3.085486,-1.188124,-0.660833,-1.238921,0.652788,-0.480682,-0.020939,0.927670,0.372813,-0.040676,-0.115765,-0.356242,-21.744213,27.825834,17.246212,,,,,,
1478277178.67,-3.053305,-1.163198,-0.636757,-1.015444,0.434961,-0.598543,-0.034952,0.918076,0.394861,0.004160,0.132095,-0.844538,-22.517952,26.802889,17.862442,,,,,,
1478277178.69,-3.009991,-1.148259,-0.604145,-0.363328,0.829508,-0.685137,-0.053811,0.912051,0.406530,0.433419,0.152325,-0.637411,-22.933874,26.315899,18.056316,,,,,,
1478277178.72,-2.977975,-1.147305,-0.584688,0.084226,0.445939,-0.114699,-0.066938,0.911660,0.405458,0.653135,0.336891,-0.277055,-22.933874,26.315899,18.056316,,,,,,
1478277178.74,-2.979666,-1.149173,-0.599403,0.080277,0.716979,0.471767,-0.065978,0.912426,0.403888,0.575103,0.349278,-0.409717,-23.778812,25.968218,17.456789,,,,,,
1478277178.76,-2.986856,-1.161367,-0.625384,0.874731,0.736115,0.594442,-0.061353,0.917348,0.393330,0.087949,0.130519,-0.992512,-23.778812,25.968218,17.456789,,,,,,
1478277178.78,-2.982315,-1.206085,-0.632494,2.784742,0.278731,0.404834,-0.056571,0.934227,0.352165,-0.130013,0.209252,-1.387184,-23.723434,26.685656,16.419327,,,,,,
,,,,,,,,,,,,,,,,37.352915,-122.034864,50.692139,0.000000,256.992188,1478280640.00
1478277178.80,-2.989370,-1.272842,-0.632693,3.211004,-0.646470,0.568148,-0.044515,0.955939,0.290171,0.089254,0.579751,-0.716059,-23.399057,28.320885,13.961776,,,,,,
1478277178.82,-3.010149,-1.347692,-0.643515,3.532619,-0.286824,0.674159,-0.028999,0.975215,0.219350,0.014244,0.549153,-0.226094,-22.994867,29.246864,12.663998,,,,,,
1478277178.84,-3.073235,-1.414451,-0.707906,2.703375,0.388651,1.094898,-0.010636,0.987803,0.155345,-0.145843,0.809026,0.359471,-22.994867,29.246864,12.663998,,,,,,
1478277178.86,3.084749,-1.458747,-0.875184,1.682109,2.834249,0.829850,0.006353,0.993729,0.111634,-1.109807,0.648391,0.478179,-22.177607,30.976562,9.650183,,,,,,
1478277178.89,2.850267,-1.486039,-1.173798,1.634805,2.611910,1.454175,0.024315,0.996410,0.081089,-1.173699,0.243214,-0.548038,-21.736839,32.157009,6.160883,,,,,,
1478277178.91,2.392705,-1.519420,-1.679472,2.261757,1.833453,0.175125,0.034963,0.998681,0.037614,-1.184346,0.240943,-0.504563,-21.276230,32.749172,4.396995,,,,,,
1478277178.93,1.483814,-1.531033,-2.581200,1.803189,-1.356663,0.346579,0.039602,0.999210,-0.003453,0.481195,0.377316,-0.100764,-21.065346,33.143852,1.502069,,,,,,
1478277178.95,0.783639,-1.502152,3.017360,2.163511,-0.024398,0.346178,0.048416,0.997645,-0.048586,0.545609,0.328649,0.132708,-20.819508,33.320515,0.900650,,,,,,
1478277178.97,0.513235,-1.466328,2.748360,1.957940,-0.508351,0.122906,0.051200,0.994548,-0.090843,0.088875,0.082463,0.076317,-20.819508,33.320515,0.900650,,,,,,
1478277178.99,0.396770,-1.429790,2.657372,1.631170,-1.593488,0.433177,0.054310,0.990075,-0.129622,-0.044972,0.075019,0.330107,-20.575397,33.463478,-1.169750,,,,,,
1478277179.01,0.346859,-1.393737,2.652138,1.582734,-2.298204,0.635488,0.059876,0.984366,-0.165646,-0.304750,-0.049612,0.353711,-20.260731,33.613125,-2.044598,,,,,,
1478277179.03,0.303345,-1.357731,2.665920,1.597029,-3.031023,0.639998,0.063165,0.977387,-0.201803,-0.383798,-0.286820,0.310262,-19.998743,33.762768,-2.155350,,,,,,
1478277179.06,0.239868,-1.323810,2.670430,1.364184,-3.082927,0.369026,0.058083,0.969654,-0.237483,-0.245369,-0.607212,0.474162,-19.563139,34.028732,-1.961837,,,,,,
1478277179.08,0.184014,-1.303980,2.668982,0.637618,-2.194587,0.094809,0.048244,0.964615,-0.259210,-0.235530,-0.602173,0.495889,-19.563139,34.028732,-1.961837,,,,,,
1478277179.10,0.159807,-1.300758,2.672775,-0.138385,-0.792504,0.082817,0.042450,0.963761,-0.263369,-0.140473,-0.652756,0.599001,-19.490660,34.098896,-1.378127,,,,,,
1478277179.12,0.165182,-1.308663,2.686353,-0.511090,-0.282190,0.113226,0.042611,0.965839,-0.255614,-0.207085,-0.660694,0.502730,-19.472748,34.120834,-1.049045,,,,,,
1478277179.14,0.174924,-1.322835,2.704544,-0.820566,-0.422391,0.103972,0.042713,0.969415,-0.241683,-0.187687,-0.627542,0.476791,-19.367708,34.195145,-0.322021,,,,,,
1478277179.16,0.195310,-1.345511,2.736020,-1.328801,-0.483678,0.172836,0.043352,0.974730,-0.219138,-0.129000,-0.627044,0.444174,-19.367708,34.195145,-0.322021,,,,,,
1478277179.18,0.248780,-1.380786,2.800278,-2.018045,-0.401755,0.272021,0.046504,0.982002,-0.183055,-0.031367,-0.602638,0.295299,-19.081802,34.292675,2.101683,,,,,,
1478277179.20,0.369388,-1.427626,2.922346,-2.564850,0.332386,0.192094,0.051514,0.989769,-0.133057,-0.002640,-0.439094,0.062043,-19.081802,34.292675,2.101683,,,,,,
1478277179.23,0.583279,-1.475243,3.120971,-2.301235,1.050416,-0.155941,0.052547,0.995438,-0.079634,-0.100185,0.000320,-0.648028,-18.846682,34.169708,4.664056,,,,,,
1478277179.25,0.791309,-1.495123,-2.974451,-0.357557,0.536200,0.249318,0.053773,0.997138,-0.053141,0.086058,0.799401,-1.943746,-18.963049,33.941948,5.732936,,,,,,
1478277179.27,0.808676,-1.474834,-2.938771,0.927784,-1.366846,1.014492,0.069310,0.995399,-0.066156,0.539943,1.945885,-2.106359,-18.843929,33.930355,6.177150,,,,,,
1478277179.29,0.718507,-1.434207,-2.995654,1.862999,-1.623872,1.124768,0.089632,0.990686,-0.102504,-0.112353,0.967856,-0.852697,-18.843929,33.930355,6.177150,,,,,,
1478277179.31,0.661253,-1.393333,-3.021849,1.373519,-1.310310,0.972636,0.108410,0.984295,-0.139324,-0.846081,-1.038463,0.051708,-16.664021,35.233631,5.041954,,,,,,
1478277179.33,0.633031,-1.377640,-3.035824,0.098204,-0.221444,-0.136777,0.113560,0.981403,-0.154763,-0.651646,-0.272022,0.351617,-16.664021,35.233631,5.041954,,,,,,
1478277179.35,0.596785,-1.390490,-3.087042,-0.213102,1.345528,-0.740432,0.100781,0.983789,-0.148333,-0.638867,-0.274408,0.345186,-16.211731,35.496544,4.657785,,,,,,
1478277179.37,0.685051,-1.386186,-3.050678,0.262035,2.389125,0.979462,0.116143,0.983008,-0.142149,0.519401,1.752069,0.659986,-16.793074,35.307671,3.985079,,,,,,
1478277179.39,0.747618,-1.359235,-3.007976,0.709118,0.880087,1.098878,0.142769,0.977704,-0.153986,-0.456322,-0.156385,0.749368,-16.273720,35.623600,3.262649,,,,,,
1478277179.42,0.781340,-1.341185,-2.998015,0.234383,0.428527,0.275807,0.160283,0.973755,-0.161589,-1.036213,-0.998398,0.346052,-16.273720,35.623600,3.262649,,,,,,
1478277179.44,0.805780,-1.364604,-2.950304,-1.897457,-0.890609,-0.774656,0.147689,0.978818,-0.141788,-1.075515,-0.907498,0.359028,-15.571571,35.972328,2.835018,,,,,,
1478277179.46,0.996243,-1.422617,-2.814571,-2.921515,4.999426,-1.794230,0.123932,0.989042,-0.080235,-0.850922,-0.126874,1.262516,-15.571571,35.972328,2.835018,,,,,,
1478277179.48,1.586466,-1.471905,-2.347074,-3.307090,5.368702,-1.003694,0.098718,0.995114,0.001547,-0.117684,0.716861,1.005243,-17.472916,34.936707,4.317817,,,,,,
1478277179.50,2.239462,-1.455395,-1.736985,-2.819300,0.513041,0.072070,0.090349,0.993349,0.071383,0.495039,0.495436,-0.127475,-19.073032,33.945869,5.330771,,,,,,
1478277179.52,2.446157,-1.408532,-1.535914,-2.470279,0.608683,0.846848,0.103510,0.986864,0.124036,0.285452,-0.112047,0.298449,-18.909451,33.806026,6.641160,,,,,,
1478277179.54,2.585935,-1.364816,-1.419996,-1.978601,1.434535,0.105511,0.107888,0.978861,0.173757,0.281073,-0.104044,0.248729,-18.909451,33.806026,6.641160,,,,,,
1478277179.56,2.681763,-1.340253,-1.335407,-1.144104,0.164514,-0.378024,0.101410,0.973543,0.204771,-0.153687,-0.252763,-0.336240,-18.574238,33.562431,8.548724,,,,,,
1478277179.59,2.751690,-1.326050,-1.260156,-0.959616,-0.199653,-0.463935,0.092102,0.970199,0.224124,-0.244720,-0.114242,-0.362155,-18.991312,33.019409,9.673069,,,,,,
1478277179.61,2.818326,-1.304589,-1.200816,-1.281915,1.070902,-0.207302,0.083570,0.964776,0.249447,-0.295896,0.016563,-0.214947,-19.200497,32.728325,10.233146,,,,,,
1478277179.63,2.895919,-1.282716,-1.159953,-1.048082,1.959100,-0.275408,0.069099,0.958791,0.275581,-0.172080,-0.043447,-0.255791,-19.846296,32.174648,10.744123,,,,,,
1478277179.65,2.973524,-1.264315,-1.117133,-0.962302,1.633444,-0.470490,0.050469,0.953401,0.297455,-0.090523,-0.153017,-0.126739,-20.329208,31.899788,10.660510,,,,,,
1478277179.67,3.049815,-1.244440,-1.074133,-1.057600,1.706584,-0.507668,0.029382,0.947217,0.319244,0.022055,-0.238065,-0.087158,-20.329208,31.899788,10.660510,,,,,,
1478277179.69,3.124262,-1.221236,-1.036053,-1.166474,1.854790,-0.552583,0.005935,0.939523,0.342434,-0.011047,-0.057779,-0.365749,-21.378639,31.241575,10.556392,,,,,,
1478277179.71,-3.090155,-1.195240,-1.002553,-1.230458,1.661767,-0.584477,-0.018858,0.930304,0.366305,0.013747,-0.048559,-0.389620,-22.524307,30.474436,10.415563,,,,,,
1478277179.73,-3.037308,-1.168356,-0.977044,-1.211460,1.200753,-0.540503,-0.040771,0.920108,0.389537,0.097213,-0.035800,-0.307719,-23.079506,30.058599,10.408491,,,,,,
1478277179.76,-2.999741,-1.141913,-0.958944,-1.196676,0.866641,-0.483917,-0.058792,0.909431,0.411678,0.125580,-0.019981,-0.656139,-23.965637,29.262814,10.670318,,,,,,
1478277179.78,-2.962387,-1.117072,-0.937276,-0.943133,0.911870,-0.736467,-0.078129,0.898821,0.431297,0.257649,0.142775,-0.774146,-23.965637,29.262814,10.670318,,,,,,
1478277179.80,-2.912051,-1.105064,-0.905040,-0.118534,0.916718,-0.671521,-0.102179,0.893493,0.437298,0.281699,0.148102,-0.780148,-24.841503,28.413355,10.959049,,,,,,
,,,,,,,,,,,,,,,,37.352918,-122.034849,50.676636,0.930000,-1.000000,1478280641.00
1478277179.82,-2.896562,-1.101347,-0.894120,-0.187544,-0.052891,-0.028675,-0.109745,0.891818,0.438882,0.660297,0.369871,-0.317575,-25.358633,28.056328,10.691203,,,,,,
1478277179.84,-2.909223,-1.102967,-0.907950,0.209227,0.135900,0.500878,-0.103847,0.892549,0.438830,0.492488,0.243025,-0.496798,-25.516123,27.918598,10.677036,,,,,,
1478277179.86,-2.925795,-1.119597,-0.933651,0.924800,0.299675,0.753901,-0.093369,0.899925,0.425931,0.109970,0.324227,-0.822614,-25.516123,27.918598,10.677036,,,,,,
1478277179.88,-2.948368,-1.155154,-0.960237,1.951697,-0.030608,0.923706,-0.077535,0.914857,0.396263,0.058294,0.482115,-1.113686,-24.675724,29.112305,9.386269,,,,,,
1478277179.90,-2.968555,-1.216399,-0.991023,3.179843,0.796368,1.144834,-0.059749,0.937856,0.341843,0.130535,0.436458,-0.958954,-24.675724,29.112305,9.386269,,,,,,
1478277179.92,-3.011145,-1.290926,-1.057569,3.186903,0.777385,1.695247,-0.035931,0.961091,0.273884,0.089032,0.869109,-0.348484,-23.758444,30.628527,6.476831,,,,,,
1478277179.95,-3.116077,-1.350659,-1.177457,2.436495,0.614106,1.381046,-0.005571,0.975867,0.218293,-1.037291,0.794717,0.574493,-23.063875,31.503550,4.483716,,,,,,
1478277179.97,3.114428,-1.394323,-1.266158,1.960718,2.384637,0.815178,0.004768,0.984469,0.175494,-1.145164,0.298124,0.432920,-21.712360,32.728436,1.393757,,,,,,
1478277179.99,2.988276,-1.438512,-1.448643,2.368354,2.113874,0.734655,0.020143,0.991263,0.130352,-1.160539,0.291330,0.478062,-21.712360,32.728436,1.393757,,,,,,
1478277180.01,2.853319,-1.490995,-1.579421,2.558098,-1.835516,0.051860,0.022663,0.996818,0.076427,0.085369,0.328851,-0.054927,-20.547411,33.273041,-3.902338,,,,,,
1478277180.03,2.287435,-1.534518,-2.106078,2.360751,-1.047253,0.199425,0.027349,0.999342,0.023824,0.753489,0.289431,-0.028951,-20.547411,33.273041,-3.902338,,,,,,
1478277180.05,0.922298,-1.529460,2.814565,2.303732,-0.431612,0.204707,0.032935,0.999146,-0.024960,0.304910,0.263595,-0.140492,-20.634901,33.006393,-5.412805,,,,,,
1478277180.07,0.452699,-1.490766,2.369167,2.122253,-1.456448,0.238973,0.034967,0.996799,-0.071892,0.060156,0.107617,0.351128,-20.560802,32.671673,-7.371211,,,,,,
1478277180.09,0.312774,-1.445921,2.275334,2.204575,-2.608970,0.426558,0.038324,0.992213,-0.118509,-0.056848,0.041249,0.354028,-20.617718,32.514755,-7.887978,,,,,,
1478277180.12,0.240285,-1.399975,2.259899,2.014180,-2.774463,0.526568,0.040454,0.985446,-0.165108,-0.296009,-0.106555,0.486870,-20.617718,32.514755,-7.887978,,,,,,
1478277180.14,0.169745,-1.354710,2.258877,2.159898,-3.574310,0.324831,0.036220,0.976744,-0.211327,-0.275249,-0.521376,0.405053,-21.008963,32.146545,-8.351215,,,,,,
1478277180.16,0.094488,-1.315310,2.256072,1.526794,-3.141791,0.189928,0.023843,0.967540,-0.251589,-0.262872,-0.512172,0.445315,-21.008963,32.146545,-8.351215,,,,,,
1478277180.18,0.050856,-1.297901,2.258345,0.373202,-1.444645,0.012769,0.013701,0.962995,-0.269172,-0.178328,-0.642957,0.561180,-21.650024,31.830540,-7.912830,,,,,,
1478277180.20,0.039365,-1.302103,2.256237,-0.470393,0.015788,-0.007084,0.010448,0.964119,-0.265266,-0.089702,-0.604957,0.547157,-21.951189,31.766447,-7.318324,,,,,,
1478277180.22,0.055436,-1.318038,2.269333,-0.875967,0.094814,0.189792,0.013856,0.968226,-0.249691,-0.081407,-0.587169,0.454555,-21.912260,31.852425,-7.056602,,,,,,
1478277180.24,0.082353,-1.339932,2.303280,-1.201347,-0.512006,0.378570,0.018823,0.973469,-0.228044,-0.132943,-0.609654,0.432817,-21.912260,31.852425,-7.056602,,,,,,
1478277180.26,0.128776,-1.370519,2.367150,-1.703574,-0.836359,0.559783,0.025548,0.980012,-0.197294,-0.112981,-0.649506,0.366330,-21.670912,32.240555,-5.952963,,,,,,
1478277180.29,0.228502,-1.411401,2.480030,-2.288321,-0.223656,0.594317,0.035953,0.987323,-0.154595,-0.141666,-0.648990,0.245355,-21.244072,32.850639,-3.747609,,,,,,
1478277180.31,0.441356,-1.460612,2.680821,-2.739820,1.218707,0.301528,0.046972,0.993936,-0.099424,-0.172826,-0.353616,-0.098452,-20.946156,33.160515,-2.481653,,,,,,
1478277180.33,0.818538,-1.499551,3.022936,-1.741933,1.720448,0.055754,0.051976,0.997463,-0.048640,0.292903,1.267246,-2.449529,-20.611008,33.456928,-0.583118,,,,,,
1478277180.35,0.894540,-1.496006,3.100158,0.781850,-1.477060,0.523199,0.058276,0.997204,-0.046766,0.286603,1.267505,-2.451403,-20.536278,33.505527,-0.400529,,,,,,
1478277180.37,0.783153,-1.468590,3.033254,1.195439,-2.025863,0.839604,0.071983,0.994781,-0.072307,0.187203,1.782654,-1.338201,-20.536278,33.505527,-0.400529,,,,,,
1478277180.39,0.676385,-1.432441,2.960684,1.634777,-1.385554,0.842827,0.086331,0.990444,-0.107551,-0.684430,-0.222790,-0.440453,-19.842213,33.922661,-0.243378,,,,,,
1478277180.41,0.634833,-1.402973,2.937807,0.856581,-0.505157,0.514430,0.099060,0.985951,-0.134493,-0.647705,-1.028462,0.044390,-18.967615,34.406574,-0.967947,,,,,,
1478277180.43,0.647626,-1.408517,2.937298,-0.811962,1.376264,-0.635658,0.097473,0.986862,-0.128854,-0.631745,-0.675247,0.683617,-18.704113,34.540787,-1.268848,,,,,,
1478277180.46,0.674853,-1.432091,2.912724,-0.478127,3.204357,-0.426884,0.086383,0.990396,-0.107954,0.896008,1.823905,-0.074434,-19.322113,34.190525,-1.477777,,,,,,
1478277180.48,0.749090,-1.407746,2.932775,1.195725,1.921505,1.328334,0.110542,0.986737,-0.118875,0.871850,1.827564,-0.063513,-19.322113,34.190525,-1.477777,,,,,,
1478277180.50,0.847846,-1.379608,3.000313,0.137438,1.265144,1.177798,0.142492,0.981779,-0.125721,-0.141118,-0.253569,0.464451,-18.321604,34.574905,-3.662569,,,,,,
1478277180.52,0.940770,-1.378988,3.093038,-1.239160,-0.626436,0.123699,0.154035,0.981661,-0.112315,-0.921124,-1.032137,0.303019,-17.501318,34.926369,-4.286293,,,,,,
1478277180.54,1.111542,-1.416014,-3.028503,-2.412902,1.901305,-1.465425,0.138191,0.988045,-0.068338,-0.815895,0.156684,0.920313,-17.235924,35.179005,-3.143293,,,,,,
1478277180.56,1.578305,-1.470319,-2.647239,-2.952822,5.013219,-1.859995,0.100306,0.994956,0.000753,-0.182596,0.800072,0.816752,-17.956631,34.879379,-2.346864,,,,,,
1478277180.58,2.334393,-1.471840,-1.979366,-2.621382,3.212409,-0.777942,0.071365,0.995108,0.068319,-0.001632,0.905481,-0.088262,-19.478668,34.077648,-1.953217,,,,,,
1478277180.60,2.613410,-1.435439,-1.731123,-1.951329,0.984588,0.315456,0.068007,0.990853,0.116555,0.322160,0.442405,-0.062905,-19.478668,34.077648,-1.953217,,,,,,
1478277180.62,2.719404,-1.395291,-1.639452,-2.047964,0.596955,0.089328,0.071546,0.984638,0.159274,0.231219,0.069134,0.205365,-19.485415,34.124115,-0.619029,,,,,,
1478277180.65,2.820249,-1.360958,-1.546279,-1.634835,0.209424,-0.288419,0.065790,0.978065,0.197639,0.043508,-0.180305,-0.099617,-19.355453,34.202541,0.268963,,,,,,
1478277180.67,2.878862,-1.334310,-1.481675,-1.254075,-0.233518,-0.268934,0.060849,0.972167,0.226249,0.044925,-0.110061,-0.167350,-19.609798,34.001438,1.969195,,,,,,
1478277180.69,2.930873,-1.310523,-1.434709,-1.264637,0.724058,-0.251941,0.053827,0.966320,0.251653,-0.139109,-0.061290,-0.238988,-19.609798,34.001438,1.969195,,,,,,
1478277180.71,2.994887,-1.285599,-1.400310,-1.201662,1.890498,-0.230002,0.041127,0.959606,0.278325,-0.261968,-0.026318,-0.221348,-20.096798,33.592842,3.487028,,,,,,
1478277180.73,3.078437,-1.264700,-1.361351,-0.910341,2.084531,-0.521543,0.019019,0.953517,0.300738,-0.075583,-0.094081,-0.271472,-20.096798,33.592842,3.487028,,,,,,
1478277180.75,-3.126722,-1.247083,-1.315007,-0.866221,1.418042,-0.713034,-0.004730,0.948061,0.318054,-0.051834,-0.088625,-0.288787,-20.768850,33.206936,3.236337,,,,,,
1478277180.77,-3.060309,-1.225815,-1.275466,-1.022463,1.402383,-0.619070,-0.027458,0.941082,0.337062,0.211968,-0.199093,-0.183147,-21.624811,32.658722,3.208614,,,,,,
,,,,,,,,,,,,,,,,37.352937,-122.034841,50.889160,0.930000,-1.000000,1478280642.00
1478277180.79,-3.003317,-1.202567,-1.249678,-1.048848,1.630222,-0.484623,-0.049616,0.932966,0.356528,0.239115,-0.187971,-0.302573,-22.005827,32.400326,3.237653,,,,,,
1478277180.82,-2.955882,-1.179913,-1.235555,-0.989514,1.530249,-0.384109,-0.070351,0.924573,0.374454,0.177299,-0.049237,-0.338962,-22.005827,32.400326,3.237653,,,,,,
1478277180.84,-2.926809,-1.156742,-1.229223,-1.116105,0.839810,-0.295830,-0.085750,0.915497,0.393080,0.098933,0.070129,-0.370802,-22.861408,31.802931,3.232533,,,,,,
1478277180.86,-2.910962,-1.130753,-1.231021,-1.206826,0.948355,-0.188078,-0.097375,0.904733,0.414700,0.081094,0.101035,-0.563504,-22.861408,31.802931,3.232533,,,,,,
1478277180.88,-2.886113,-1.110070,-1.228399,-0.695970,0.981748,-0.450052,-0.112354,0.895730,0.430168,0.097126,0.028495,-0.938393,-23.196499,31.498100,3.783105,,,,,,
1478277180.90,-2.843512,-1.102392,-1.199637,0.148065,0.722533,-0.729190,-0.132589,0.892290,0.431554,0.783818,0.178313,-0.523168,-23.802105,31.057961,3.658231,,,,,,
1478277180.92,-2.820146,-1.107836,-1.178188,0.356558,-0.210869,-0.054268,-0.141098,0.894734,0.423724,0.792328,0.175868,-0.515337,-24.131283,30.843262,3.300614,,,,,,
1478277180.94,-2.842806,-1.115132,-1.192138,0.291577,-0.505539,0.544865,-0.129536,0.897969,0.420562,0.888386,0.327770,-0.209243,-24.131283,30.843262,3.300614,,,,,,
1478277180.96,-2.872555,-1.132608,-1.213538,0.933343,-0.482156,0.664000,-0.112780,0.905522,0.409037,0.007968,0.278972,-0.785547,-23.898201,31.026596,3.278114,,,,,,
1478277180.99,-2.887574,-1.166660,-1.220766,1.920798,-0.326914,0.541776,-0.098816,0.919442,0.380607,-0.299713,0.287253,-1.181952,-23.229961,31.578218,2.775745,,,,,,
1478277181.01,-2.887065,-1.221784,-1.214260,2.920345,-0.193973,0.502928,-0.086104,0.939711,0.330953,-0.177690,0.249849,-1.125554,-22.945116,31.848124,1.933502,,,,,,
1478277181.03,-2.851195,-1.294164,-1.189189,3.430661,1.176406,0.706332,-0.078203,0.961981,0.261683,0.006029,0.660670,-0.236780,-22.402313,32.268299,-1.188648,,,,,,
1478277181.05,-2.859232,-1.357249,-1.219476,2.350156,0.810997,1.469420,-0.059048,0.977285,0.203536,0.036297,1.240549,0.493639,-21.907457,32.466610,-3.240720,,,,,,
1478277181.07,-2.914417,-1.403307,-1.310668,1.696567,2.034480,1.110413,-0.037547,0.986006,0.162424,-0.796331,0.877748,0.837255,-21.907457,32.466610,-3.240720,,,,,,
1478277181.09,-3.013587,-1.446476,-1.446548,2.032434,1.426082,1.126426,-0.015829,0.992282,0.122986,-0.839761,0.472058,-0.378860,-20.283699,33.062843,-6.319787,,,,,,
1478277181.11,-2.969803,-1.498155,-1.434314,2.524808,1.127256,0.004655,-0.012407,0.997363,0.071509,-0.843184,0.466977,-0.327383,-18.784636,33.203030,-9.445414,,,,,,
1478277181.13,-2.813286,-1.539125,-1.258525,1.693432,-1.778513,0.184974,-0.010210,0.999498,0.029975,0.143557,0.480558,-0.039191,-18.601017,32.812588,-11.038849,,,,,,
1478277181.15,-0.259129,-1.556646,1.317900,2.239119,-0.506684,0.260710,-0.003626,0.999900,-0.013677,0.287912,0.212029,-0.041468,-18.856432,32.219418,-12.282665,,,,,,
1478277181.18,0.002187,-1.512069,1.603321,2.083692,-1.695686,0.230361,0.000128,0.998276,-0.058693,0.064050,0.094238,0.204094,-18.856432,32.219418,-12.282665,,,,,,
1478277181.20,0.030058,-1.467913,1.675478,2.049201,-2.292418,0.360464,0.003087,0.994712,-0.102656,0.061092,0.097802,0.248057,-19.108320,31.467371,-13.754868,,,,,,
1478277181.22,0.029117,-1.424864,1.734907,2.020809,-3.154795,0.424091,0.004233,0.989371,-0.145354,-0.269324,-0.115317,0.417555,-19.418457,31.109266,-14.129998,,,,,,
1478277181.24,0.006562,-1.381747,1.785250,1.964508,-3.450863,0.432682,0.001233,0.982183,-0.187921,-0.235318,-0.326147,0.438882,-20.368288,30.454529,-14.218796,,,,,,
1478277181.26,-0.025715,-1.346106,1.822819,1.500281,-3.138574,0.274666,-0.005729,0.974863,-0.222731,-0.175408,-0.547983,0.451506,-20.935421,30.154886,-14.032484,,,,,,
1478277181.28,-0.060914,-1.322812,1.843561,0.811481,-2.114523,0.131943,-0.014942,0.969409,-0.244996,-0.088100,-0.684558,0.511307,-21.990902,29.716278,-13.336519,,,,,,
1478277181.30,-0.077726,-1.315984,1.855434,0.071570,-0.975189,0.158199,-0.019572,0.967711,-0.251303,-0.097264,-0.616957,0.490377,-21.990902,29.716278,-13.336519,,,,,,
1478277181.32,-0.070049,-1.321889,1.878672,-0.415820,-0.629974,0.379186,-0.017242,0.969182,-0.245741,-0.098831,-0.600225,0.512145,-22.437157,29.667992,-12.684793,,,,,,
1478277181.35,-0.047099,-1.334950,1.918161,-0.697613,-0.793029,0.536831,-0.011001,0.972317,-0.233407,-0.155243,-0.646816,0.494256,-22.415087,29.846182,-12.299959,,,,,,
1478277181.37,-0.009702,-1.355952,1.973643,-1.184843,-0.725316,0.655971,-0.002068,0.977010,-0.213185,-0.130637,-0.649236,0.492009,-22.202034,30.462467,-11.118793,,,,,,
1478277181.39,0.063472,-1.391270,2.055265,-2.000862,-0.016298,0.709912,0.011326,0.983928,-0.178204,-0.144032,-0.656154,0.457028,-22.202034,30.462467,-11.118793,,,,,,
1478277181.41,0.198317,-1.440963,2.176976,-2.615725,1.143564,0.451657,0.025508,0.991583,-0.126932,-0.145396,-0.261572,-0.041220,-21.297071,31.967674,-8.307969,,,,,,
1478277181.43,0.398189,-1.491157,2.339636,-2.239797,2.032079,-0.176360,0.030847,0.996830,-0.073331,-0.203424,0.396190,-0.994982,-21.297071,31.967674,-8.307969,,,,,,
1478277181.45,0.507985,-1.518912,2.420698,-0.585472,0.478628,-0.300435,0.025226,0.998654,-0.045313,0.049069,0.971744,-2.169226,-20.814186,32.599461,-6.968815,,,,,,
1478277181.47,0.457188,-1.513394,2.399279,0.474660,-2.080227,0.281483,0.025325,0.998353,-0.051479,0.134648,1.364761,-1.666630,-20.873219,32.598042,-6.796768,,,,,,
1478277181.49,0.477845,-1.495100,2.465346,0.854738,-1.908780,0.687398,0.034777,0.997136,-0.067153,-0.197512,0.572734,-0.730454,-20.995407,32.665607,-6.055632,,,,,,
1478277181.52,0.493760,-1.468772,2.503883,1.027400,-0.545330,0.649513,0.048269,0.994800,-0.089682,-0.558737,-0.053775,-0.348978,-20.995407,32.665607,-6.055632,,,,,,
1478277181.54,0.462824,-1.458462,2.469529,0.031449,0.684309,-0.322427,0.050049,0.993697,-0.100305,-0.351853,0.151505,0.576440,-20.426065,32.946289,-6.468188,,,,,,
1478277181.56,0.464589,-1.474409,2.429443,-0.760721,2.720944,-0.487809,0.043120,0.995358,-0.086037,-0.344923,0.149844,0.562172,-20.426065,32.946289,-6.468188,,,,,,
1478277181.58,0.573469,-1.480253,2.478448,0.064734,2.461717,0.481170,0.049057,0.995904,-0.075954,0.076569,0.633216,0.139919,-20.480225,32.760239,-7.200480,,,,,,
1478277181.60,0.735138,-1.465459,2.598475,-0.075309,1.784849,0.943621,0.070518,0.994457,-0.077988,-0.119346,-0.554211,0.858750,-19.336903,33.067894,-8.781712,,,,,,
1478277181.62,0.999081,-1.465704,2.830004,-1.276307,1.340130,0.469787,0.088217,0.994483,-0.056758,-0.565268,-1.036506,0.636424,-18.612293,33.400761,-9.082488,,,,,,
1478277181.64,1.364919,-1.481224,-3.103929,-1.999188,0.752303,-0.455427,0.087564,0.995991,-0.018287,-0.936838,-0.596638,0.142737,-18.612293,33.400761,-9.082488,,,,,,
1478277181.66,2.090028,-1.499442,-2.419483,-2.581947,3.059683,-1.360052,0.061898,0.997455,0.035377,-0.406487,0.309582,0.436471,-18.567299,33.866425,-7.269133,,,,,,
1478277181.69,2.827347,-1.469974,-1.768779,-2.548403,4.327703,-1.115108,0.031111,0.994922,0.095723,0.022905,0.804318,0.307140,-18.567299,33.866425,-7.269133,,,,,,
1478277181.71,3.088928,-1.430861,-1.572407,-1.653485,2.119294,-0.388547,0.007342,0.990225,0.139286,0.247266,0.589548,-0.288639,-18.961529,33.734711,-6.851970,,,,,,
1478277181.73,3.085550,-1.396985,-1.581172,-1.654654,-0.475338,0.199915,0.009687,0.984933,0.172666,0.510455,0.132300,-0.163480,-18.890434,33.936230,-6.000303,,,,,,
1478277181.75,3.094551,-1.364563,-1.570361,-1.449769,0.201516,-0.097827,0.009629,0.978809,0.204548,0.097930,-0.172962,-0.044621,-18.867786,34.107445,-5.020808,,,,,,
1478277181.77,3.113247,-1.334669,-1.553043,-1.355553,0.110734,-0.144289,0.006630,0.972251,0.233845,0.132820,-0.087592,-0.081456,-18.867786,34.107445,-5.020808,,,,,,
1478277181.79,3.137598,-1.309048,-1.536381,-1.152096,0.560097,-0.205929,0.001034,0.965939,0.258768,-0.147381,-0.062176,-0.076318,-18.973938,34.235779,-3.524302,,,,,,
1478277181.81,-3.105724,-1.285251,-1.515085,-1.105177,1.068338,-0.306036,-0.010101,0.959508,0.281499,-0.174423,0.015727,-0.273778,-19.150572,34.223732,-2.551736,,,,,,
,,,,,,,,,,,,,,,,37.352900,-122.034807,50.231812,0.930000,94.921875,1478280643.00
1478277181.83,-3.062724,-1.261963,-1.494066,-1.050903,1.039681,-0.403852,-0.023947,0.952689,0.303003,-0.160577,0.022546,-0.295282,-19.276981,34.172417,-2.272351,,,,,,
1478277181.85,-3.019712,-1.239187,-1.466687,-1.026371,0.698368,-0.568468,-0.039582,0.945520,0.323150,0.038773,-0.060693,-0.227492,-19.681631,33.973141,-1.725889,,,,,,
1478277181.88,-2.978236,-1.215797,-1.439940,-1.018755,0.866387,-0.564989,-0.056529,0.937647,0.342962,0.212123,-0.103235,-0.155019,-19.681631,33.973141,-1.725889,,,,,,
1478277181.90,-2.937327,-1.193076,-1.422584,-1.011398,1.329853,-0.426603,-0.074811,0.929508,0.361135,0.246899,-0.120029,-0.109487,-20.259119,33.657398,-1.125733,,,,,,
1478277181.92,-2.902644,-1.168706,-1.415599,-1.174548,1.254022,-0.376570,-0.092623,0.920245,0.380224,0.183337,-0.110400,-0.138952,-20.486679,33.523678,-0.989333,,,,,,
1478277181.94,-2.875205,-1.139658,-1.411846,-1.370835,1.079918,-0.453073,-0.110013,0.908491,0.403165,0.111737,-0.059217,-0.209439,-20.854620,33.305191,-0.607179,,,,,,
1478277181.96,-2.849540,-1.109001,-1.407302,-1.329250,0.933697,-0.495214,-0.128284,0.895254,0.426689,0.094898,0.050852,-0.361763,-21.085625,33.164070,-0.246307,,,,,,
1478277181.98,-2.835956,-1.080748,-1.404847,-1.208257,0.254392,-0.409149,-0.141624,0.882310,0.448856,0.028724,0.076415,-0.847980,-21.585646,32.836609,0.580256,,,,,,
1478277182.00,-2.830303,-1.057873,-1.396476,-0.751608,-0.202132,-0.597952,-0.150303,0.871313,0.467142,0.252598,0.268243,-0.907862,-21.585646,32.836609,0.580256,,,,,,
1478277182.02,-2.807435,-1.048882,-1.368882,0.123403,0.091518,-0.741629,-0.163508,0.866866,0.470964,0.265803,0.272690,-0.911684,-22.123415,32.443157,1.586112,,,,,,
1478277182.05,-2.789055,-1.052129,-1.351936,0.261891,0.228308,-0.038388,-0.171163,0.868481,0.465236,0.681280,0.387302,-0.272609,-22.517046,32.168987,1.630531,,,,,,
1478277182.07,-2.793379,-1.058716,-1.364519,0.214330,0.307916,0.643247,-0.167195,0.871727,0.460584,0.455525,0.346062,-0.489057,-22.674355,32.076591,1.218922,,,,,,
1478277182.09,-2.809402,-1.075349,-1.391582,0.810428,0.325205,0.801150,-0.155043,0.879756,0.449434,-0.045061,0.376683,-0.839891,-22.674355,32.076591,1.218922,,,,,,
1478277182.11,-2.820549,-1.108424,-1.396901,1.798607,-0.674840,0.568851,-0.140761,0.894997,0.423281,-0.058686,0.382988,-1.058977,-21.591457,32.837807,-0.084214,,,,,,
1478277182.13,-2.818368,-1.163527,-1.383413,3.042584,-0.127390,0.610480,-0.125813,0.918206,0.375592,0.279957,0.322227,-0.962918,-21.591457,32.837807,-0.084214,,,,,,
1478277182.15,-2.791762,-1.240185,-1.361193,3.640381,0.268065,1.022656,-0.111260,0.945844,0.304959,0.420144,0.618044,-0.590329,-20.986591,33.134266,-2.490609,,,,,,
1478277182.17,-2.797985,-1.315199,-1.364627,3.024060,-0.343042,1.306656,-0.085173,0.967512,0.238045,-0.566271,0.915041,0.371376,-20.498634,33.227425,-4.501567,,,,,,
1478277182.19,-2.804459,-1.372547,-1.371125,2.269762,0.589420,0.744517,-0.065149,0.980413,0.185866,-0.586295,0.902140,0.423555,-19.261427,33.386517,-7.671880,,,,,,
1478277182.22,-2.790951,-1.424401,-1.412436,2.218482,3.485512,1.359127,-0.050108,0.989303,0.136997,-0.852816,0.531128,0.743435,-19.261427,33.386517,-7.671880,,,,,,
1478277182.24,-2.766338,-1.471850,-1.420873,2.081850,-0.579195,0.559016,-0.036206,0.995109,0.091911,-0.405399,0.250848,-0.207527,-16.678978,33.196930,-12.817772,,,,,,
1478277182.26,-2.402583,-1.524331,-0.981738,3.162068,-4.451283,-0.292426,-0.031286,0.998921,0.034332,0.268514,0.171184,-0.319748,-16.678978,33.196930,-12.817772,,,,,,
1478277182.28,-1.002188,-1.526201,0.478078,2.638100,-1.202214,-0.169650,-0.037566,0.999006,-0.024005,0.555266,0.218524,-0.008420,-17.999161,32.026386,-13.959242,,,,,,
1478277182.30,-0.473418,-1.491634,1.019245,2.053235,-0.851615,0.228980,-0.036055,0.996868,-0.070382,0.343886,0.294849,0.135919,-18.737181,30.783226,-15.678988,,,,,,
1478277182.32,-0.257649,-1.452136,1.277221,2.214568,-2.460282,0.620572,-0.030165,0.992968,-0.114474,0.210935,0.077817,0.406375,-18.921305,30.344936,-16.299965,,,,,,
1478277182.34,-0.136544,-1.410141,1.458621,2.145617,-2.895292,0.824683,-0.021775,0.987123,-0.158477,-0.108978,-0.146577,0.510100,-18.921305,30.344936,-16.299965,,,,,,
1478277182.36,-0.091072,-1.367113,1.572982,2.035642,-3.267769,0.703349,-0.018396,0.979328,-0.201440,-0.278067,-0.356449,0.469918,-20.104095,29.295355,-16.796640,,,,,,
1478277182.39,-0.082053,-1.331460,1.651788,1.548136,-3.121360,0.599506,-0.019429,0.971496,-0.236260,-0.242137,-0.583648,0.509637,-20.104095,29.295355,-16.796640,,,,,,
1478277182.41,-0.092913,-1.310307,1.695451,0.696692,-2.010065,0.327924,-0.023896,0.966264,-0.256442,-0.187317,-0.613405,0.560626,-21.176821,28.807707,-16.314964,,,,,,
1478277182.43,-0.098540,-1.306933,1.715431,-0.091654,-0.781301,0.188898,-0.025659,0.965390,-0.259547,-0.106101,-0.643566,0.456599,-21.822832,28.716314,-15.609516,,,,,,
1478277182.45,-0.092330,-1.316526,1.733581,-0.608864,-0.477817,0.329606,-0.023192,0.967847,-0.250468,-0.042894,-0.636976,0.479853,-21.886690,28.847034,-15.275501,,,,,,
1478277182.47,-0.071562,-1.335128,1.769157,-0.989875,-0.765482,0.565208,-0.016695,0.972358,-0.232895,-0.049391,-0.641487,0.462281,-21.886690,28.847034,-15.275501,,,,,,
1478277182.49,-0.032501,-1.363637,1.826580,-1.529804,-0.741249,0.711100,-0.006684,0.978619,-0.205572,-0.151260,-0.703900,0.404333,-21.775694,29.486780,-14.172817,,,,,,
1478277182.51,0.039961,-1.405197,1.905746,-2.219393,0.188018,0.648911,0.006586,0.986320,-0.164712,-0.208459,-0.600761,0.228204,-21.428898,30.569094,-12.282207,,,,,,
1478277182.53,0.164376,-1.456964,2.007309,-2.573612,1.662231,0.221078,0.018587,0.993528,-0.112055,-0.320284,-0.210767,-0.173955,-21.076624,31.199883,-11.263340,,,,,,
1478277182.55,0.260844,-1.502663,2.068022,-1.694450,1.380822,-0.419343,0.017558,0.997680,-0.065778,-0.298152,0.522828,-1.131381,-20.443373,32.088913,-9.843258,,,,,,
1478277182.58,0.154339,-1.509929,1.966135,0.623210,-1.420118,-0.221038,0.009351,0.998148,-0.060106,0.107745,1.406805,-2.236097,-20.542135,32.122082,-9.524307,,,,,,
1478277182.60,0.168415,-1.486450,2.031377,1.098319,-2.578644,0.725362,0.014121,0.996445,-0.083054,0.394418,1.506180,-1.364700,-20.542135,32.122082,-9.524307,,,,,,
1478277182.62,0.261502,-1.462133,2.167325,0.872041,-1.521954,0.892361,0.028038,0.994102,-0.104763,-0.456901,-0.609840,-0.249958,-20.944778,31.991966,-9.074697,,,,,,
1478277182.64,0.339625,-1.443533,2.262228,0.600945,-0.348585,0.575468,0.042281,0.991913,-0.119671,-0.471145,-0.607651,-0.235050,-20.548536,32.299622,-8.888864,,,,,,
1478277182.66,0.387111,-1.446276,2.298292,-0.925890,1.267238,-0.122285,0.046887,0.992257,-0.115009,-0.319577,-1.063790,0.189106,-20.301971,32.406448,-9.064876,,,,,,
1478277182.68,0.511811,-1.483189,2.371836,-1.888453,3.253457,-0.442152,0.042851,0.996165,-0.076283,0.061519,1.354879,0.394505,-20.063705,32.592987,-8.925515,,,,,,
1478277182.70,0.720212,-1.492421,2.513615,0.558181,2.309169,0.796755,0.051639,0.996930,-0.058851,0.642438,1.392413,-0.969957,-20.063705,32.592987,-8.925515,,,,,,
1478277182.72,0.760776,-1.453205,2.525364,0.896328,1.169126,1.364455,0.080891,0.993094,-0.084976,-0.132084,-0.340186,0.686172,-18.926449,32.896782,-10.203479,,,,,,
1478277182.75,0.942491,-1.441411,2.692273,-0.985772,0.383568,0.704651,0.104384,0.991641,-0.075837,-0.764601,-1.359866,0.862001,-18.013308,33.065067,-11.257968,,,,,,
1478277182.77,1.199638,-1.455967,2.952427,-1.939902,-0.112781,-0.201190,0.106775,0.993414,-0.041556,-0.977182,-1.120978,0.224753,-16.967541,33.768524,-10.784672,,,,,,
1478277182.79,1.735577,-1.487354,-2.833117,-2.753521,3.781818,-1.710491,0.082217,0.996521,0.013672,-1.017016,0.048188,0.657379,-16.967541,33.768524,-10.784672,,,,,,
,,,,,,,,,,,,,,,,37.352916,-122.034771,50.083679,0.950000,100.898438,1478280644.00
1478277182.81,2.670898,-1.481946,-2.010264,-2.543297,5.581103,-1.660751,0.040241,0.996055,0.079084,0.374233,1.034966,-0.033216,-17.657917,33.933487,-9.013103,,,,,,
1478277182.83,3.075091,-1.452036,-1.670242,-1.378219,1.144675,-0.773753,0.007873,0.992956,0.118219,0.406601,1.038065,-0.072351,-17.657917,33.933487,-9.013103,,,,,,
1478277182.85,3.070774,-1.419411,-1.657507,-1.795840,-1.129377,0.270824,0.010671,0.988563,0.150430,0.757411,0.505867,-0.188012,-18.041107,33.804741,-8.733704,,,,,,
1478277182.87,3.068122,-1.378934,-1.652593,-1.880815,0.084164,-0.010462,0.013997,0.981651,0.190173,0.091166,-0.185997,-0.153506,-18.095524,34.056751,-7.563690,,,,,,
1478277182.89,3.090393,-1.341318,-1.631860,-1.709861,0.041880,-0.130690,0.011641,0.973785,0.227172,-0.054518,-0.126800,-0.148360,-18.093237,34.467010,-5.401822,,,,,,
1478277182.92,3.113332,-1.310811,-1.610654,-1.275524,0.223178,-0.202299,0.007264,0.966394,0.256963,-0.050141,-0.119409,-0.178152,-18.093237,34.467010,-5.401822,,,,,,
1478277182.94,-3.134851,-1.284679,-1.588339,-1.256062,0.943047,-0.289232,-0.001903,0.959347,0.282223,-0.285146,-0.048336,-0.146664,-18.373219,34.589691,-3.240061,,,,,,
1478277182.96,-3.080378,-1.257584,-1.563999,-1.253703,1.730086,-0.478065,-0.018849,0.951349,0.307539,-0.276683,-0.068246,-0.202665,-18.373219,34.589691,-3.240061,,,,,,
1478277182.98,-3.013338,-1.232541,-1.529841,-1.039656,1.482684,-0.700822,-0.042444,0.943335,0.329116,-0.081565,-0.095679,-0.240554,-18.673418,34.474850,-2.703338,,,,,,
1478277183.00,-2.951571,-1.209263,-1.493543,-1.004950,1.266392,-0.748139,-0.066809,0.935355,0.347342,0.106512,-0.122489,-0.166495,-19.321056,34.135571,-2.445257,,,,,,
1478277183.02,-2.901828,-1.182632,-1.469856,-1.231014,1.268977,-0.625838,-0.089882,0.925605,0.367663,0.221611,-0.152168,-0.201342,-19.660297,33.952984,-2.277577,,,,,,
1478277183.04,-2.868839,-1.152114,-1.458061,-1.377085,0.885861,-0.559034,-0.109520,0.913625,0.391528,0.214318,-0.034185,-0.314334,-19.660297,33.952984,-2.277577,,,,,,
1478277183.06,-2.845815,-1.120922,-1.454156,-1.379079,1.039823,-0.420370,-0.126752,0.900502,0.415969,0.280988,0.107265,-0.472701,-20.481766,33.521778,-1.143405,,,,,,
1478277183.08,-2.827209,-1.092160,-1.462746,-1.305835,1.281938,-0.106994,-0.142422,0.887624,0.437995,0.235165,0.051662,-0.802391,-20.481766,33.521778,-1.143405,,,,,,
1478277183.11,-2.814790,-1.069842,-1.470318,-0.790333,0.584685,-0.316214,-0.154172,0.877125,0.454844,0.246915,0.062161,-0.819240,-20.705322,33.399895,-0.506244,,,,,,
1478277183.13,-2.793527,-1.064277,-1.449686,0.282665,-0.045395,-0.600128,-0.165470,0.874438,0.456045,0.580906,0.208005,-0.621984,-21.076433,33.170177,-0.207117,,,,,,
1478277183.15,-2.780667,-1.069129,-1.426323,0.349579,-0.499980,-0.242010,-0.169821,0.876782,0.449905,0.709875,0.344333,-0.225692,-21.366684,32.982830,-0.342368,,,,,,
1478277183.17,-2.791395,-1.076385,-1.429691,0.322561,-0.195970,0.510538,-0.162798,0.880248,0.445713,0.624162,0.414704,-0.228321,-21.366684,32.982830,-0.342368,,,,,,
1478277183.19,-2.814861,-1.094231,-1.457716,0.813791,0.111740,0.899787,-0.147229,0.888576,0.434461,0.188473,0.635243,-0.477277,-21.348032,32.994156,-0.408505,,,,,,
1478277183.21,-2.840411,-1.127090,-1.480113,1.662664,-0.443653,1.018632,-0.127348,0.903167,0.409966,-0.029909,0.583360,-0.826897,-20.433817,33.548389,-1.218402,,,,,,
1478277183.23,-2.867438,-1.178495,-1.505788,2.460613,0.094719,1.256538,-0.103506,0.924032,0.368038,0.096059,0.454127,-0.665004,-19.903107,33.830032,-1.978652,,,,,,
1478277183.25,-2.902864,-1.241751,-1.542448,2.883622,-0.388509,1.313408,-0.076412,0.946351,0.313975,-0.563542,0.561446,-0.628688,-18.520256,34.348003,-4.662014,,,,,,
1478277183.28,-2.920874,-1.309404,-1.546450,3.130265,-0.601779,0.405067,-0.056577,0.966031,0.252156,-0.583376,0.541766,-0.566869,-17.954201,34.417526,-6.131902,,,,,,
1478277183.30,-2.886566,-1.371356,-1.518048,2.731447,1.092589,0.608051,-0.049980,0.980178,0.191713,-0.797569,0.715577,0.087721,-17.954201,34.417526,-6.131902,,,,,,
1478277183.32,-2.831599,-1.425038,-1.517314,2.318404,3.269398,0.615454,-0.044307,0.989396,0.138319,-0.624959,0.400374,0.328996,-17.471937,33.932507,-9.372093,,,,,,
1478277183.34,-2.713600,-1.472141,-1.455241,2.057097,1.609015,0.419585,-0.040880,0.995138,0.089611,-0.071776,0.176234,0.097492,-15.766614,33.413158,-13.397551,,,,,,
1478277183.36,-2.537250,-1.515896,-1.261132,2.358272,-2.074017,0.425599,-0.031180,0.998493,0.045153,0.139548,0.302563,-0.308413,-15.195329,33.049667,-14.877533,,,,,,
1478277183.38,-1.312609,-1.544275,0.008714,2.464982,-1.730230,0.082076,-0.025639,0.999648,-0.006771,0.325368,0.321763,-0.046650,-15.721048,32.037720,-16.460642,,,,,,
1478277183.40,-0.423756,-1.510415,0.944100,2.293526,-2.085555,0.169057,-0.024813,0.998178,-0.055007,0.398134,0.337455,0.246886,-15.721048,32.037720,-16.460642,,,,,,
1478277183.42,-0.194872,-1.466831,1.218569,2.286482,-2.402918,0.476315,-0.020096,0.994601,-0.101813,0.189026,0.034452,0.318168,-16.710001,30.828918,-17.744675,,,,,,
1478277183.45,-0.120069,-1.421585,1.350896,2.146508,-2.797734,0.472460,-0.017806,0.988889,-0.147588,-0.012772,-0.203122,0.425664,-17.123165,30.296827,-18.259769,,,,,,
1478277183.47,-0.107663,-1.378671,1.432307,2.081594,-3.293756,0.357369,-0.020518,0.981601,-0.189840,-0.133413,-0.306170,0.418355,-18.355999,29.263500,-18.740990,,,,,,
1478277183.49,-0.120973,-1.338460,1.483046,1.784348,-2.709167,0.251802,-0.027786,0.973131,-0.228569,-0.187195,-0.388247,0.565925,-19.162060,28.753672,-18.723289,,,,,,
1478277183.51,-0.134087,-1.310985,1.519919,1.031227,-2.077514,0.260540,-0.034344,0.966438,-0.254593,-0.184071,-0.613426,0.525268,-20.491407,27.926693,-18.566683,,,,,,
1478277183.53,-0.142246,-1.301539,1.548127,0.180585,-1.419178,0.320015,-0.037712,0.963969,-0.263328,-0.093544,-0.572306,0.492607,-20.491407,27.926693,-18.566683,,,,,,
1478277183.55,-0.132828,-1.307043,1.579638,-0.394752,-0.778482,0.522960,-0.034527,0.965418,-0.258410,-0.096729,-0.573756,0.487688,-21.202301,27.828915,-17.903454,,,,,,
1478277183.57,-0.094935,-1.322637,1.631601,-0.809573,-0.531840,0.803301,-0.023283,0.969366,-0.244514,-0.049150,-0.610754,0.407188,-21.258310,28.056707,-17.476416,,,,,,
1478277183.59,-0.032667,-1.347287,1.709419,-1.302864,-0.713605,0.993705,-0.007239,0.975125,-0.221535,-0.124001,-0.632611,0.384850,-20.881102,28.978596,-16.393297,,,,,,
1478277183.62,0.057244,-1.382346,1.815556,-1.874835,-0.508110,0.973757,0.010718,0.982296,-0.187030,-0.179419,-0.642452,0.299975,-20.881102,28.978596,-16.393297,,,,,,
1478277183.64,0.195310,-1.426642,1.951749,-2.361109,0.666180,0.643874,0.027879,0.989628,-0.140924,-0.270174,-0.515888,0.121774,-19.858032,31.123798,-13.471727,,,,,,
1478277183.66,0.375627,-1.473895,2.103851,-2.270847,1.723140,-0.063082,0.035493,0.995309,-0.090004,-0.369203,0.020850,-0.301613,-19.858032,31.123798,-13.471727,,,,,,
1478277183.68,0.493382,-1.505781,2.193898,-0.792205,0.727499,-0.343456,0.030770,0.997887,-0.057221,-0.178963,0.845497,-1.215377,-19.124243,32.188297,-11.945568,,,,,,
1478277183.70,0.377715,-1.493351,2.099695,1.265753,-2.097525,0.216941,0.028533,0.997003,-0.071914,0.017594,0.811820,-1.157792,-19.085827,32.326786,-11.628841,,,,,,
1478277183.72,0.366422,-1.465223,2.139933,0.985778,-2.177294,0.809222,0.037754,0.994432,-0.098382,0.008373,0.814390,-1.131324,-19.498682,32.095139,-11.585471,,,,,,
1478277183.74,0.443415,-1.443633,2.241215,0.614881,-0.526928,0.868402,0.054409,0.991926,-0.114556,-0.323269,-0.099363,-0.436149,-19.498682,32.095139,-11.585471,,,,,,
1478277183.76,0.490173,-1.430763,2.293463,0.137703,-0.239106,0.356133,0.065709,0.990211,-0.123141,-0.299489,-0.579048,0.097064,-18.885958,32.427670,-11.674170,,,,,,
1478277183.78,0.541898,-1.445185,2.343688,-1.316234,0.447367,-0.265474,0.064615,0.992121,-0.107332,-0.217936,0.259359,0.435702,-18.885958,32.427670,-11.674170,,,,,,
,,,,,,,,,,,,,,,,37.352951,-122.034777,49.931885,0.660000,100.898438,1478280645.00
1478277183.81,0.717514,-1.474482,2.483715,-1.348420,2.391393,0.006328,0.063230,0.995365,-0.072455,0.222933,1.226436,0.078177,-18.864819,32.669872,-11.014429,,,,,,
1478277183.83,0.847768,-1.463566,2.570443,1.031081,1.680744,1.037389,0.080248,0.994256,-0.070814,0.372663,0.974677,-0.594805,-17.943687,33.083694,-11.314277,,,,,,
1478277183.85,0.893591,-1.431800,2.589326,0.195310,1.217224,1.255227,0.107975,0.990356,-0.086817,-0.268589,-0.570220,0.659113,-17.069969,33.175346,-12.350405,,,,,,
1478277183.87,1.132569,-1.427351,2.804469,-1.721480,1.152245,0.629646,0.129445,0.989729,-0.060660,-0.836797,-1.531966,1.054648,-17.069969,33.175346,-12.350405,,,,,,
1478277183.89,1.457437,-1.436998,3.116454,-2.146604,0.641840,-0.294974,0.132543,0.991062,-0.015090,-1.253942,0.378597,0.366164,-15.481752,33.939137,-12.368103,,,,,,
1478277183.91,1.955402,-1.458113,-2.724021,-2.517235,4.376737,-1.466436,0.104231,0.993658,0.042189,-1.225630,0.376002,0.308885,-15.414450,34.580925,-10.539181,,,,,,
1478277183.93,2.560421,-1.446749,-2.230044,-2.191627,5.160716,-1.350526,0.067928,0.992316,0.103416,0.140354,0.930734,0.759881,-15.508152,34.637371,-10.211243,,,,,,
1478277183.95,2.859855,-1.427764,-1.991226,-1.091355,1.475075,-0.611448,0.039631,0.989788,0.136925,0.702373,0.293018,-0.236230,-15.401505,34.682274,-10.220228,,,,,,
1478277183.98,2.912126,-1.402372,-1.938355,-1.486040,-0.275590,0.035497,0.038129,0.985850,0.163235,0.262561,-0.115168,0.068530,-15.471838,34.777840,-9.779772,,,,,,
1478277184.00,2.958949,-1.367130,-1.895385,-1.813060,0.497353,-0.004116,0.036737,0.979332,0.198897,0.263953,-0.108650,0.032869,-15.471838,34.777840,-9.779772,,,,,,
1478277184.02,2.993575,-1.330807,-1.869784,-1.584776,0.520528,0.014920,0.035054,0.971340,0.235093,0.174464,0.036014,-0.027711,-15.467181,35.227859,-8.017729,,,,,,
1478277184.04,3.020480,-1.304291,-1.857513,-1.130518,0.804139,0.008701,0.031819,0.964697,0.261433,-0.087589,-0.002478,-0.057133,-15.324967,35.608185,-6.459281,,,,,,
1478277184.06,3.057875,-1.281765,-1.839941,-1.047353,1.028600,-0.177994,0.023834,0.958520,0.284026,-0.330734,0.073462,-0.191832,-15.243833,35.721783,-6.008292,,,,,,
1478277184.08,3.102663,-1.260305,-1.815410,-1.024217,0.984950,-0.378262,0.011891,0.952184,0.305295,-0.332997,0.024013,-0.336713,-15.284389,35.816612,-5.298822,,,,,,
1478277184.10,-3.122402,-1.241040,-1.776300,-0.834396,1.035479,-0.667260,-0.006214,0.946121,0.323753,-0.176632,-0.048019,-0.361335,-15.284389,35.816612,-5.298822,,,,,,
1478277184.12,-3.061724,-1.223394,-1.736254,-0.809474,1.099193,-0.620950,-0.027163,0.940260,0.339371,0.122378,-0.085905,-0.246994,-15.761774,35.686050,-4.753115,,,,,,
1478277184.15,-3.011337,-1.204633,-1.710981,-0.849217,1.349684,-0.422831,-0.046504,0.933708,0.355003,0.257808,-0.130455,-0.132728,-16.054472,35.578735,-4.574614,,,,,,
1478277184.17,-2.973361,-1.184585,-1.699216,-0.962632,1.174175,-0.315809,-0.063071,0.926343,0.371363,0.161735,-0.074475,-0.138789,-16.390753,35.461666,-4.281748,,,,,,
1478277184.19,-2.947848,-1.160829,-1.693435,-1.147363,0.836258,-0.301649,-0.076740,0.917134,0.391122,0.175404,-0.065266,-0.158548,-16.493233,35.442116,-4.043444,,,,,,
1478277184.21,-2.928301,-1.133887,-1.690532,-1.277184,0.833177,-0.309913,-0.089570,0.906064,0.413553,0.074921,0.068774,-0.404062,-16.743240,35.412758,-3.181216,,,,,,
1478277184.23,-2.910975,-1.106852,-1.691736,-1.195532,0.843150,-0.209834,-0.102284,0.894294,0.435632,0.052770,0.088753,-0.600626,-16.743240,35.412758,-3.181216,,,,,,
1478277184.25,-2.899284,-1.084977,-1.695156,-0.906866,0.554096,-0.184638,-0.112038,0.884293,0.453293,-0.080299,0.113800,-0.741226,-16.955570,35.383141,-2.249853,,,,,,
1478277184.27,-2.881435,-1.070568,-1.680891,-0.315355,0.079558,-0.689968,-0.123375,0.877473,0.463486,-0.039924,0.166091,-0.826295,-17.026653,35.370956,-1.873046,,,,,,
1478277184.29,-2.846876,-1.070923,-1.640008,0.567056,-0.168228,-0.881969,-0.139226,0.877643,0.458648,0.447850,0.206356,-0.555969,-17.696323,35.056488,-1.550003,,,,,,
1478277184.31,-2.830498,-1.076235,-1.612955,0.184092,-0.340073,-0.190340,-0.145289,0.880177,0.451862,0.750758,0.304897,-0.074710,-17.696323,35.056488,-1.550003,,,,,,
1478277184.34,-2.841875,-1.076099,-1.628494,-0.204706,0.452231,0.631259,-0.140175,0.880112,0.453600,0.303581,0.286727,-0.372500,-18.294262,34.734196,-1.837198,,,,,,
1478277184.36,-2.857529,-1.076294,-1.669498,-0.249760,1.057986,0.870574,-0.133009,0.880205,0.455574,0.296415,0.286634,-0.374473,-18.294262,34.734196,-1.837198,,,,,,
1478277184.38,-2.871363,-1.085186,-1.696501,0.685437,0.076264,0.641913,-0.124600,0.884390,0.449810,-0.154041,0.415186,-1.022717,-17.326965,35.213661,-2.072243,,,,,,
1478277184.40,-2.881610,-1.117046,-1.706655,1.767392,0.068585,0.609203,-0.112681,0.898810,0.423609,0.075251,0.343286,-0.978403,-16.941381,35.382149,-2.369139,,,,,,
1478277184.42,-2.877589,-1.168764,-1.712078,2.582353,0.569471,0.836276,-0.102106,0.920268,0.377733,0.261728,0.299779,-0.637208,-16.227995,35.539284,-4.258066,,,,,,
1478277184.44,-2.864072,-1.237570,-1.707866,3.490598,0.187990,0.744554,-0.089614,0.944992,0.314578,-0.015122,0.635040,-0.570667,-16.227995,35.539284,-4.258066,,,,,,
1478277184.46,-2.860597,-1.310556,-1.693035,3.079562,-0.841673,0.724616,-0.071356,0.966328,0.247221,-0.325556,0.742092,0.075197,-14.860856,35.077564,-9.656038,,,,,,
1478277184.48,-2.853121,-1.368931,-1.678283,2.626699,0.363782,0.624341,-0.057039,0.979694,0.192212,-0.651122,0.648144,0.468844,-14.860856,35.077564,-9.656038,,,,,,
1478277184.51,-2.788550,-1.429311,-1.654909,2.794825,2.433640,0.542952,-0.048756,0.990008,0.132317,-0.891979,0.550077,0.445823,-14.187339,34.410034,-12.617004,,,,,,
1478277184.53,-2.552884,-1.481654,-1.424879,2.729748,-1.008944,-0.205922,-0.049434,0.996029,0.074038,-0.408894,0.278919,-0.099169,-13.076681,33.302551,-16.262232,,,,,,
1478277184.55,-1.965909,-1.509043,-0.794047,2.267226,-2.057416,-0.488328,-0.056959,0.998094,0.023755,0.053847,0.205245,-0.054547,-13.670046,32.520145,-17.323099,,,,,,
1478277184.57,-1.223719,-1.506018,-0.026364,2.298009,-0.733790,-0.033619,-0.060873,0.997903,-0.022019,0.318151,0.212074,-0.130752,-13.670046,32.520145,-17.323099,,,,,,
1478277184.59,-0.710296,-1.480512,0.509772,2.190264,-1.365301,0.302095,-0.058791,0.995927,-0.068358,0.306166,0.128600,0.314528,-15.034058,30.404573,-19.850910,,,,,,
1478277184.61,-0.425658,-1.445680,0.836719,2.284222,-1.940576,0.604124,-0.051528,0.992183,-0.113654,0.061141,-0.065502,0.500312,-15.034058,30.404573,-19.850910,,,,,,
1478277184.63,-0.269404,-1.405445,1.038027,2.233788,-2.210337,0.658771,-0.043809,0.986361,-0.158661,0.053422,-0.059679,0.545319,-15.740574,29.188679,-21.089689,,,,,,
1478277184.65,-0.190569,-1.365205,1.167933,1.986576,-2.300076,0.662812,-0.038669,0.978940,-0.200451,-0.199353,-0.424787,0.431682,-16.644203,28.027609,-21.953205,,,,,,
1478277184.68,-0.154964,-1.332013,1.254286,1.487353,-2.218994,0.572645,-0.036506,0.971626,-0.233686,-0.135888,-0.607704,0.470808,-17.169384,27.542505,-22.161732,,,,,,
1478277184.70,-0.139310,-1.311953,1.307370,0.724678,-1.331142,0.405464,-0.035543,0.966687,-0.253482,-0.108149,-0.706570,0.496189,-17.169384,27.542505,-22.161732,,,,,,
1478277184.72,-0.127313,-1.307399,1.339796,0.012493,-0.707768,0.355339,-0.033058,0.965511,-0.258255,-0.040306,-0.680767,0.430069,-18.053587,26.978712,-22.152580,,,,,,
1478277184.74,-0.109966,-1.315389,1.371042,-0.514538,-0.613355,0.484058,-0.027726,0.967560,-0.251114,0.017976,-0.638489,0.389572,-18.303259,27.115765,-21.777187,,,,,,
1478277184.76,-0.080011,-1.333737,1.418835,-0.993039,-0.875198,0.711573,-0.018770,0.972033,-0.234094,-0.011473,-0.628039,0.361718,-18.305950,27.434143,-21.372404,,,,,,
1478277184.78,-0.029938,-1.363283,1.490540,-1.572369,-0.910229,0.886466,-0.006167,0.978546,-0.205935,-0.016279,-0.654602,0.220782,-18.235020,28.560341,-19.907551,,,,,,
,,,,,,,,,,,,,,,,37.352947,-122.034814,50.181885,0.660000,100.898438,1478280646.00
1478277184.80,0.066235,-1.403103,1.598001,-2.053952,0.004535,0.890111,0.011047,0.985972,-0.166542,-0.033493,-0.662028,0.181389,-18.057598,29.349527,-18.895718,,,,,,
1478277184.82,0.230605,-1.446238,1.743504,-2.146129,1.476089,0.534087,0.028396,0.992253,-0.120948,-0.116333,-0.466709,-0.102044,-18.057598,29.349527,-18.895718,,,,,,
1478277184.85,0.393851,-1.479125,1.873961,-1.234015,1.339384,-0.061832,0.035129,0.995801,-0.084534,-0.298633,0.998095,-1.630599,-17.001629,30.979990,-17.196066,,,,,,
1478277184.87,0.374362,-1.487644,1.857888,0.084706,-1.183779,-0.170135,0.030372,0.996545,-0.077304,0.009255,1.313498,-1.663189,-16.310648,31.715036,-16.511784,,,,,,
1478277184.89,0.340800,-1.479240,1.857943,0.451192,-1.450591,0.338717,0.030559,0.995812,-0.086170,0.009068,1.314232,-1.654324,-16.676506,31.657171,-16.255383,,,,,,
1478277184.91,0.401059,-1.465697,1.937465,0.446838,-0.562519,0.656396,0.040954,0.994482,-0.096581,-0.419784,-0.394201,-0.430869,-16.961220,31.634987,-16.002018,,,,,,
1478277184.93,0.458158,-1.454108,2.002266,0.246183,-0.307607,0.415719,0.051494,0.993200,-0.104417,-0.276241,-0.781530,-0.083053,-16.961220,31.634987,-16.002018,,,,,,
1478277184.95,0.542429,-1.461220,2.088363,-1.188372,0.312481,0.172461,0.056452,0.994003,-0.093660,-0.281199,-0.782333,-0.093810,-16.627106,31.749340,-16.125710,,,,,,
1478277184.97,0.910125,-1.495039,2.431921,-2.469593,1.794599,0.046766,0.059759,0.997132,-0.046444,-0.188070,0.420776,0.373180,-16.514145,31.983711,-15.774817,,,,,,
1478277184.99,1.614199,-1.503698,3.064526,-1.504847,4.153519,0.448651,0.066985,0.997750,0.002909,0.263383,1.825874,0.201238,-15.576580,33.114071,-14.329977,,,,,,
1478277185.01,1.537927,-1.483429,2.918239,1.581563,2.441787,1.200278,0.087209,0.996186,-0.002868,0.133250,0.645507,-0.988130,-15.576580,33.114071,-14.329977,,,,,,
1478277185.04,1.376160,-1.459945,2.727716,0.251632,1.045814,0.755336,0.108536,0.993862,-0.021396,-0.753525,-0.643871,0.655521,-12.170156,33.454311,-16.649807,,,,,,
1478277185.06,1.589717,-1.457636,2.923345,-1.647241,0.771643,-0.085738,0.112898,0.993604,0.002136,-1.102843,-1.394392,0.695022,-12.170156,33.454311,-16.649807,,,,,,
1478277185.08,2.050569,-1.455836,-2.914178,-2.729190,1.362204,-0.889052,0.101757,0.993399,0.052946,-1.011989,-1.000327,0.193193,-11.467259,34.037666,-15.951766,,,,,,
1478277185.10,2.684445,-1.426432,-2.364228,-3.448101,5.736115,-1.517553,0.063500,0.989598,0.129090,0.401146,1.166775,0.810576,-11.572919,34.525459,-14.784454,,,,,,
1478277185.12,3.089864,-1.380689,-2.072786,-1.819702,4.576749,-1.608413,0.009770,0.981984,0.188712,0.454875,1.174388,0.750955,-11.160913,35.395741,-12.926535,,,,,,
1478277185.14,-3.103279,-1.352974,-2.007345,-1.478379,-0.622476,0.004966,-0.008278,0.976370,0.215946,1.046135,1.121500,-0.040500,-11.160913,35.395741,-12.926535,,,,,,
1478277185.16,-3.132681,-1.319349,-2.021855,-1.476197,-0.321353,-0.004782,-0.002217,0.968553,0.248796,0.107350,-0.137575,-0.313905,-11.308372,36.011353,-10.946365,,,,,,
1478277185.18,-3.132779,-1.288105,-2.016277,-1.548510,-0.275925,-0.073903,-0.002458,0.960308,0.278931,0.024279,-0.147274,-0.143417,-11.308372,36.011353,-10.946365,,,,,,
1478277185.21,-3.122229,-1.258861,-2.009682,-1.198053,0.606874,-0.124369,-0.005943,0.951741,0.306844,-0.171487,-0.136998,-0.215108,-11.469265,36.460732,-9.142791,,,,,,
1478277185.23,-3.083831,-1.234953,-2.000329,-1.107644,1.827072,-0.217322,-0.019026,0.944133,0.329016,-0.301974,-0.007945,-0.171927,-11.430178,36.739861,-8.003345,,,,,,
1478277185.25,-3.021150,-1.213577,-1.982638,-0.871243,2.191589,-0.471269,-0.042014,0.936873,0.347138,-0.255411,0.075060,-0.285568,-11.336764,36.824398,-7.743462,,,,,,
1478277185.27,-2.957099,-1.195252,-1.956390,-0.759347,1.676881,-0.611143,-0.067285,0.930308,0.360554,-0.028845,-0.003520,-0.223759,-11.336764,36.824398,-7.743462,,,,,,
1478277185.29,-2.904934,-1.176717,-1.933427,-0.795330,1.399691,-0.536544,-0.090021,0.923351,0.373256,0.274897,-0.186824,-0.185863,-11.647892,36.814217,-7.318460,,,,,,
1478277185.31,-2.862634,-1.155897,-1.922325,-0.954914,1.578515,-0.408341,-0.110995,0.915157,0.387515,0.295870,-0.178631,-0.200122,-11.647892,36.814217,-7.318460,,,,,,
1478277185.33,-2.826655,-1.132304,-1.917880,-1.063411,1.392928,-0.441373,-0.131515,0.905393,0.403693,0.196243,-0.126599,-0.281744,-11.840884,36.846085,-6.832220,,,,,,
1478277185.35,-2.796905,-1.106956,-1.911625,-1.099903,0.986204,-0.545272,-0.151173,0.894341,0.421071,0.124287,0.132407,-0.361729,-12.099985,36.892918,-6.084630,,,,,,
1478277185.38,-2.776363,-1.080370,-1.905291,-1.138749,0.560827,-0.559893,-0.168225,0.882132,0.439935,0.285306,0.081842,-0.570551,-12.346970,36.887825,-5.600048,,,,,,
1478277185.40,-2.763385,-1.055476,-1.901967,-0.941150,0.456718,-0.465253,-0.181974,0.870135,0.457986,0.299055,0.093839,-0.588601,-12.346970,36.887825,-5.600048,,,,,,
1478277185.42,-2.743589,-1.043852,-1.890344,-0.045702,0.480834,-0.434274,-0.194911,0.864348,0.463587,0.583720,0.234422,-0.815286,-12.872628,36.855156,-4.529102,,,,,,
1478277185.44,-2.717955,-1.046676,-1.876322,0.315868,0.759168,-0.098231,-0.205725,0.865764,0.456212,0.670187,0.247196,-0.365925,-13.296834,36.708454,-4.494823,,,,,,
1478277185.46,-2.703578,-1.052876,-1.879939,0.132822,0.782420,0.387716,-0.209982,0.868850,0.448337,0.533438,0.390152,-0.239353,-13.298788,36.664520,-4.834777,,,,,,
1478277185.48,-2.718397,-1.056563,-1.909451,-0.267866,0.315885,0.827979,-0.201999,0.870670,0.448476,0.271838,0.331158,-0.493169,-12.652552,36.843170,-5.197438,,,,,,
1478277185.50,-2.737687,-1.066829,-1.934029,0.798345,0.099140,0.580945,-0.189787,0.875673,0.444046,0.018584,0.296858,-1.111649,-12.160984,37.017540,-5.131461,,,,,,
1478277185.52,-2.724225,-1.106614,-1.924923,2.165205,0.335248,0.641697,-0.181474,0.894188,0.409262,0.145372,0.339791,-1.138434,-12.160984,37.017540,-5.131461,,,,,,
1478277185.55,-2.705805,-1.160271,-1.916206,2.489763,0.554095,1.043209,-0.168466,0.916911,0.361791,0.330575,0.621205,-0.511449,-11.435128,36.972866,-6.838473,,,,,,
1478277185.57,-2.687782,-1.224815,-1.905139,3.063582,0.205457,1.141015,-0.148668,0.940743,0.304795,0.310777,0.597373,-0.454453,-10.172633,36.645859,-9.905466,,,,,,
1478277185.59,-2.659150,-1.295207,-1.871427,3.095754,-0.481865,1.004671,-0.126246,0.962265,0.241056,-0.039037,0.777145,-0.300291,-9.476615,36.299377,-11.707631,,,,,,
1478277185.61,-2.625526,-1.356215,-1.827239,2.647656,-0.035053,0.988723,-0.105077,0.977066,0.185207,-0.806757,0.683579,0.342732,-8.540354,35.304779,-15.005152,,,,,,
1478277185.63,-2.517845,-1.414701,-1.746093,2.804011,2.012600,0.578977,-0.090803,0.987842,0.126188,-1.007845,0.681439,0.129336,-8.540354,35.304779,-15.005152,,,,,,
1478277185.65,-2.155643,-1.460714,-1.413882,2.823012,0.596467,-0.010444,-0.091601,0.993947,0.060651,-0.147230,0.302272,0.080448,-6.973762,34.063030,-18.319294,,,,,,
1478277185.67,-1.781573,-1.479134,-1.019460,1.728131,-1.494254,0.124678,-0.089508,0.995802,0.019151,0.312210,0.312426,0.221618,-6.540836,33.155392,-20.061333,,,,,,
1478277185.69,-1.303075,-1.484825,-0.504622,2.485247,-1.477281,0.434371,-0.082807,0.996307,-0.022714,0.422025,0.359406,-0.367071,-7.189794,31.853884,-21.866795,,,,,,
1478277185.71,-0.785503,-1.466488,0.045168,2.373529,-1.507969,0.587064,-0.073631,0.994565,-0.073616,0.184791,0.302615,0.167625,-7.508839,31.030270,-22.918539,,,,,,
1478277185.74,-0.490224,-1.434264,0.390362,2.413358,-2.566879,0.716446,-0.064083,0.990694,-0.120078,0.128704,-0.085039,0.507667,-8.297642,29.339485,-24.796440,,,,,,
1478277185.76,-0.329125,-1.393708,0.613273,2.371688,-2.907865,0.745915,-0.056939,0.984361,-0.166708,0.121560,-0.078706,0.554297,-8.297642,29.339485,-24.796440,,,,,,
1478277185.78,-0.255899,-1.352069,0.756252,2.151026,-3.268274,0.702273,-0.054923,0.976174,-0.209922,-0.018960,-0.282693,0.571326,-9.897577,27.611700,-26.156294,,,,,,
,,,,,,,,,,,,,,,,37.352944,-122.034794,50.642334,0.660000,135.000000,1478280647.00
1478277185.80,-0.231675,-1.316983,0.850111,1.631589,-2.975170,0.553525,-0.057654,0.967962,-0.244388,-0.018198,-0.738912,0.601261,-10.937589,26.792953,-26.589970,,,,,,
1478277185.82,-0.224833,-1.297221,0.905015,0.697424,-1.667030,0.378525,-0.060234,0.962811,-0.263376,-0.075050,-0.751080,0.509561,-12.974304,25.586952,-26.860661,,,,,,
1478277185.84,-0.218185,-1.294366,0.938650,-0.017209,-1.044282,0.436621,-0.059077,0.962036,-0.266453,-0.076208,-0.750305,0.512638,-12.974304,25.586952,-26.860661,,,,,,
1478277185.86,-0.201349,-1.305188,0.975928,-0.626528,-0.844971,0.670718,-0.052497,0.964933,-0.257193,-0.070107,-0.702528,0.480688,-14.032968,25.650417,-26.261219,,,,,,
