timestamp(unix),attitude_roll(radians),attitude_pitch(radians),attitude_yaw(radians),rotation_rate_x(radians/s),rotation_rate_y(radians/s),rotation_rate_z(radians/s),gravity_x(G),gravity_y(G),gravity_z(G),user_acc_x(G),user_acc_y(G),user_acc_z(G),magnetic_field_x(microteslas),magnetic_field_y(microteslas),magnetic_field_z(microteslas),latitude(degree),longitude(degree),altitude(meter),speed(m/s),course(degree),timestamp(unix)
1478277057.75,-0.303267,-0.160830,1.760779,0.422266,-0.990287,0.592700,-0.294786,0.160138,-0.942049,0.162431,-0.093960,-0.135770,11.138769,-17.357990,-40.341259,,,,,,
,,,,,,,,,,,,,,,,37.354960,-122.038411,46.077393,-1.000000,-1.000000,1478280284.62
1478277057.77,-0.324022,-0.156632,1.782907,0.524133,-1.231058,1.167534,-0.314484,0.155993,-0.936358,0.182130,-0.089815,-0.141462,10.265083,-17.777851,-40.390163,,,,,,
1478277057.79,-0.348500,-0.159835,1.822221,0.430352,-1.573933,2.169830,-0.337136,0.159155,-0.927906,0.341225,-0.072851,-0.044278,10.265083,-17.777851,-40.390163,,,,,,
1478277057.81,-0.375027,-0.170286,1.879975,0.601591,-1.755463,2.905064,-0.360999,0.169464,-0.917039,0.083595,0.007431,-0.133070,7.607539,-18.834801,-40.498951,,,,,,
1478277057.83,-0.407609,-0.175813,1.945623,1.104712,-2.391958,2.858584,-0.390305,0.174909,-0.903919,0.083557,0.182391,-0.130581,3.624117,-20.091782,-40.447189,,,,,,
1478277057.85,-0.459707,-0.179819,2.013683,1.052739,-3.366426,3.082617,-0.436532,0.178851,-0.881732,0.256707,-0.013568,0.092212,1.150067,-20.904774,-40.180305,,,,,,
1478277057.88,-0.527225,-0.196217,2.086291,0.946119,-3.982251,3.423142,-0.493483,0.194960,-0.847623,0.251356,0.036806,-0.008807,-5.371437,-21.990870,-39.247147,,,,,,
1478277057.90,-0.595812,-0.207650,2.160484,1.693803,-3.932907,2.963708,-0.549126,0.206161,-0.809913,0.118538,0.280915,-0.246896,-9.003649,-22.277725,-38.411282,,,,,,
1478277057.92,-0.665106,-0.205682,2.233769,2.133805,-3.902074,2.567593,-0.604134,0.204235,-0.770266,0.007302,0.061573,-0.210966,-9.003649,-22.277725,-38.411282,,,,,,
1478277057.94,-0.728833,-0.200870,2.303243,2.314192,-3.632386,2.233004,-0.652609,0.199522,-0.730954,0.016683,0.024096,-0.136875,-15.700947,-23.422836,-35.463223,,,,,,
1478277057.96,-0.791011,-0.197768,2.371824,2.225304,-3.383531,2.125245,-0.697204,0.196481,-0.689421,0.173965,0.063346,-0.042848,-21.356747,-24.490376,-31.573723,,,,,,
1478277057.98,-0.823221,-0.204802,2.431916,1.427992,-1.327106,2.504651,-0.718014,0.203373,-0.665654,-0.010151,-0.020481,0.374486,-23.790550,-24.807301,-29.519430,,,,,,
1478277058.00,-0.831883,-0.226997,2.493145,1.592067,-0.959954,2.673017,-0.720238,0.225052,-0.656208,-0.197608,0.014297,-0.281338,-26.992529,-24.157162,-27.214411,,,,,,
1478277058.02,-0.844352,-0.239649,2.561997,2.019324,-1.554102,2.466817,-0.726177,0.237362,-0.645234,-0.312809,-0.023571,0.173325,-26.992529,-24.157162,-27.214411,,,,,,
,,,,,,,,,,,,,,,,37.354960,-122.038411,46.077393,-1.000000,-1.000000,1478280290.69
1478277058.05,-0.867724,-0.252883,2.623258,1.470754,-1.955777,2.256946,-0.738597,0.250196,-0.626001,-0.300389,-0.036405,0.154092,-30.016258,-23.405588,-24.576248,,,,,,
1478277058.07,-0.904629,-0.276888,2.682239,1.455766,-2.915034,2.953988,-0.756250,0.273363,-0.594439,0.490381,-0.044588,-0.018949,-31.557383,-22.905720,-23.070522,,,,,,
1478277058.09,-0.970540,-0.321459,2.768073,2.153031,-5.106597,4.648759,-0.782921,0.315951,-0.535920,0.977440,0.054090,-0.328216,-35.508018,-20.801018,-18.954887,,,,,,
1478277058.11,-1.058686,-0.390915,2.879570,2.325895,-6.640984,5.354941,-0.805951,0.381035,-0.453051,0.637296,0.174080,-0.201825,-35.508018,-20.801018,-18.954887,,,,,,
1478277058.13,-1.175301,-0.447221,2.934121,0.162816,-5.525629,2.595036,-0.832050,0.432461,-0.347375,-1.348583,-0.533596,0.987222,-42.891731,-13.377995,-5.841072,,,,,,
,,,,,,,,,,,,,,,,37.354960,-122.038411,46.077393,-1.000000,-1.000000,1478280290.72
1478277058.15,-1.260561,-0.495300,2.939741,-0.763562,-3.800831,2.087563,-0.837825,0.475295,-0.268596,-0.350865,-0.305785,0.459545,-42.891731,-13.377995,-5.841072,,,,,,
1478277058.17,-1.350790,-0.547703,2.940007,-0.582576,-4.760498,2.723482,-0.833145,0.520727,-0.186313,0.393753,-0.187048,-0.074887,-44.141151,-10.215079,-0.013514,,,,,,
1478277058.19,-1.463202,-0.613756,2.940575,-0.487652,-5.569871,3.355679,-0.812763,0.575942,-0.087788,0.432606,-0.005645,0.270161,-44.405621,-8.483967,2.992038,,,,,,
1478277058.21,-1.583299,-0.696472,2.928494,-0.682343,-4.894221,4.145962,-0.767050,0.641515,0.009590,0.463629,0.005854,0.739021,-43.900475,-3.972534,10.476473,,,,,,
1478277058.24,-1.654030,-0.788189,2.903601,-0.488949,-0.835060,4.411981,-0.702690,0.709077,0.058623,0.399269,-0.061708,0.689989,-43.900475,-3.972534,10.476473,,,,,,
1478277058.26,-1.661193,-0.875336,2.875467,-0.633821,1.373035,3.855008,-0.638123,0.767759,0.057842,-0.070282,-0.132719,0.157460,-42.567375,4.401281,14.880747,,,,,,
1478277058.28,-1.629187,-0.946388,2.842031,-0.739811,2.995029,3.216483,-0.583621,0.811309,0.034117,0.015689,0.050293,0.136782,-42.567375,4.401281,14.880747,,,,,,
1478277058.30,-1.594140,-1.005853,2.825928,-0.286440,1.999123,2.637045,-0.535222,0.844619,0.012496,0.038305,-0.156249,0.375107,-42.910984,8.757921,11.607556,,,,,,
1478277058.32,-1.559693,-1.057822,2.815368,-0.079331,1.689842,2.455045,-0.490740,0.871289,-0.005449,-0.111356,-0.107464,-0.120467,-42.738663,12.229727,8.753834,,,,,,
1478277058.34,-1.543617,-1.102648,2.799926,-0.806902,1.558700,1.801096,-0.451068,0.892405,-0.012263,-0.489071,0.035360,0.074381,-42.444355,13.809011,7.783131,,,,,,
1478277058.36,-1.520880,-1.130981,2.782469,0.388757,1.704845,1.236553,-0.425242,0.904830,-0.021244,-0.202825,0.053391,-0.375606,-42.444355,13.809011,7.783131,,,,,,
1478277058.38,-1.445994,-1.149217,2.824723,0.660821,1.169027,0.673087,-0.406020,0.912444,-0.050937,-0.171129,0.361101,-0.026853,-41.986813,16.483757,4.264081,,,,,,
1478277058.41,-1.404161,-1.153087,2.853711,0.208728,0.739064,0.068970,-0.400048,0.914021,-0.067286,-0.177100,0.359524,-0.010503,-41.986813,16.483757,4.264081,,,,,,
1478277058.43,-1.415277,-1.156870,2.822772,-1.056797,0.914841,0.219217,-0.397353,0.915549,-0.062299,-0.262056,0.412500,0.365781,-41.923813,16.924297,2.958232,,,,,,
1478277058.45,-1.478512,-1.171064,2.746776,-1.777034,-0.356949,0.662243,-0.387516,0.921165,-0.035863,0.132313,-0.096794,-0.250193,-41.840183,17.182133,2.638661,,,,,,
1478277058.47,-1.655330,-1.193568,2.608961,-2.719697,-3.154641,1.249103,-0.367029,0.929689,0.031100,-0.078787,-0.116304,0.092221,-41.549728,17.612141,4.027609,,,,,,
1478277058.49,-1.746681,-1.209758,2.532905,0.077071,1.336708,0.511720,-0.347796,0.935531,0.061811,-0.219144,0.303788,0.894366,-41.549728,17.612141,4.027609,,,,,,
1478277058.51,-1.658718,-1.211059,2.571859,0.662267,2.210287,-0.183395,-0.350668,0.935989,0.030911,-0.352792,0.020340,-0.045239,-40.674591,18.638098,7.140598,,,,,,
1478277058.53,-1.626471,-1.215242,2.584758,0.016427,0.447714,0.393999,-0.347571,0.937454,0.019371,-0.081735,-0.100662,-0.124641,-41.049065,18.728626,4.123372,,,,,,
1478277058.55,-1.610017,-1.225108,2.591698,0.220905,0.670226,0.457889,-0.338584,0.940842,0.013286,-0.096872,-0.052384,0.089070,-40.967255,18.976358,3.790939,,,,,,
1478277058.58,-1.585434,-1.237720,2.606539,0.180057,0.390954,0.684224,-0.326916,0.945041,0.004786,0.072736,-0.085666,0.152624,-40.710625,19.662491,2.969938,,,,,,
1478277058.60,-1.581812,-1.250201,2.603240,-0.090748,0.234140,0.390189,-0.315112,0.949048,0.003471,0.149997,-0.008710,0.137215,-40.503094,20.122681,2.714112,,,,,,
1478277058.62,-1.585304,-1.252495,2.594950,-0.125437,0.244485,-0.112058,-0.312920,0.949768,0.004540,0.092110,0.103637,0.016883,-40.503094,20.122681,2.714112,,,,,,
1478277058.64,-1.587517,-1.242432,2.587956,-0.132063,0.176717,-0.714812,-0.322450,0.946571,0.005392,0.057237,-0.401420,-0.020422,-40.376289,20.404873,2.487063,,,,,,
1478277058.66,-1.599517,-1.231974,2.566625,-0.335060,0.594816,-0.123884,-0.332240,0.943147,0.009545,0.135417,-0.972138,-0.010979,-40.745869,19.678267,2.308511,,,,,,
1478277058.68,-1.576830,-1.237407,2.571440,0.329412,0.867567,0.342777,-0.327241,0.944939,0.001975,0.130418,-0.973930,-0.003409,-40.810349,19.576712,2.014254,,,,,,
1478277058.70,-1.519863,-1.245325,2.602433,0.638454,1.842203,0.535246,-0.319341,0.947500,-0.016279,0.058858,-0.456610,0.150633,-40.648819,20.004313,0.538630,,,,,,
1478277058.72,-1.405584,-1.267722,2.664745,0.685235,2.540472,1.430439,-0.294392,0.954423,-0.049085,0.196614,-0.338731,0.030133,-40.648819,20.004313,0.538630,,,,,,
1478277058.74,-1.335065,-1.304513,2.705452,-0.067325,0.974162,2.013825,-0.255870,0.964755,-0.061459,0.313335,-0.267337,-0.036899,-39.823425,21.402004,-2.972913,,,,,,
1478277058.77,-1.307409,-1.343335,2.753803,0.303361,-2.638605,1.745058,-0.217728,0.974242,-0.058711,0.143479,-0.428008,-0.474385,-39.090405,22.586617,-3.817653,,,,,,
1478277058.79,-1.231633,-1.364210,2.915948,1.881246,-3.751618,1.207477,-0.193435,0.978737,-0.068243,0.174117,-0.073692,-0.320124,-37.907532,24.752571,-1.765949,,,,,,
1478277058.81,-1.090809,-1.374827,3.094757,0.979344,-0.658351,1.346759,-0.172714,0.980859,-0.089914,-0.020218,0.296591,0.643503,-37.907532,24.752571,-1.765949,,,,,,
1478277058.83,-0.855348,-1.408636,-2.933756,0.739172,-0.628308,3.183203,-0.121863,0.986881,-0.105904,-0.059152,0.164364,0.210274,-36.044868,27.450914,-0.064517,,,,,,
1478277058.85,-0.324940,-1.437359,-2.405149,1.256544,0.982129,3.888170,-0.042474,0.991110,-0.126080,-0.138541,0.160135,0.230450,-36.044868,27.450914,-0.064517,,,,,,
1478277058.87,0.208135,-1.414125,-1.901783,0.951715,1.771910,2.409981,0.032242,0.987752,-0.152664,-0.263031,0.294017,0.017700,-32.587280,31.448383,-1.362900,,,,,,
1478277058.89,0.262648,-1.405221,-1.870129,0.129607,0.239742,-0.503754,0.042794,0.986324,-0.159168,-0.283211,1.581990,-0.283322,-30.919647,32.994457,-2.851374,,,,,,
1478277058.91,0.187681,-1.402951,-1.944551,0.237052,0.142524,-0.492613,0.031170,0.985947,-0.164125,0.012104,-0.383713,0.199616,-30.818996,32.988983,-3.834790,,,,,,
1478277058.94,0.152532,-1.400460,-1.989875,0.126977,0.517598,-0.254859,0.025756,0.985528,-0.167546,0.071137,-0.094414,0.162099,-30.818996,32.988983,-3.834790,,,,,,
1478277058.96,0.135215,-1.400115,-2.015776,-0.005465,0.302520,-0.191632,0.022897,0.985469,-0.168303,0.020865,0.044743,0.101348,-31.265383,32.468826,-4.586998,,,,,,
1478277058.98,0.120704,-1.402706,-2.037379,-0.141640,0.371882,-0.175911,0.020145,0.985906,-0.166082,-0.039981,0.029490,0.106054,-31.265383,32.468826,-4.586998,,,,,,
1478277059.00,0.112551,-1.405704,-2.056228,-0.108800,0.543381,-0.164168,0.018458,0.986403,-0.163303,-0.082301,-0.029647,0.075275,-31.404285,32.299404,-4.827885,,,,,,
1478277059.02,0.109538,-1.408209,-2.073812,-0.078754,0.793247,-0.111904,0.017696,0.986812,-0.160902,-0.077632,-0.137843,0.071333,-31.475544,32.158020,-5.285932,,,,,,
1478277059.04,0.127705,-1.408865,-2.077509,-0.003382,1.111452,0.009058,0.020533,0.986918,-0.159911,-0.080470,-0.137949,0.070342,-31.435053,32.124920,-5.711065,,,,,,
1478277059.06,0.158318,-1.410110,-2.070720,-0.156955,1.047910,0.019180,0.025225,0.987118,-0.157995,-0.059801,-0.077740,0.063650,-31.435053,32.124920,-5.711065,,,,,,
1478277059.08,0.162796,-1.414551,-2.085797,-0.155492,1.019358,-0.266867,0.025221,0.987819,-0.153553,-0.262846,0.155400,0.064090,-31.140976,32.132668,-7.107785,,,,,,
1478277059.11,0.142661,-1.414847,-2.133902,0.138309,1.434851,-0.386352,0.022083,0.987865,-0.153740,-0.153827,0.066304,0.129310,-31.140976,32.132668,-7.107785,,,,,,
1478277059.13,0.117113,-1.412879,-2.194066,0.151551,1.687727,-0.423477,0.018375,0.987557,-0.156184,-0.150120,0.066612,0.131755,-31.178158,31.781515,-8.405180,,,,,,
1478277059.15,0.107585,-1.411791,-2.242070,0.033314,1.767298,-0.305338,0.017002,0.987385,-0.157420,0.028912,0.005260,0.078349,-31.070522,31.349533,-10.228327,,,,,,
1478277059.17,0.105513,-1.414013,-2.281124,-0.125078,1.708806,-0.328122,0.016444,0.987735,-0.155274,-0.053096,0.027860,0.013138,-30.919853,31.208078,-11.081865,,,,,,
1478277059.19,0.091233,-1.417643,-2.333687,-0.124429,1.835164,-0.431972,0.013899,0.988295,-0.151921,-0.092909,0.011598,-0.031505,-30.919853,31.208078,-11.081865,,,,,,
1478277059.21,0.066928,-1.420849,-2.398966,-0.111619,1.927337,-0.487818,0.009991,0.988779,-0.149051,-0.062359,-0.020929,-0.019848,-30.621784,30.894352,-12.674166,,,,,,
1478277059.23,0.045151,-1.422953,-2.465034,-0.052431,2.116689,-0.445363,0.006649,0.989091,-0.147155,-0.000866,-0.070771,-0.000199,-30.253029,30.478878,-14.442354,,,,,,
1478277059.25,0.024662,-1.424915,-2.530045,-0.047341,2.056132,-0.431650,0.003585,0.989378,-0.145320,-0.025878,-0.000166,-0.068501,-29.973335,30.277283,-15.416701,,,,,,
1478277059.28,0.016014,-1.425765,-2.582892,-0.003316,2.141133,-0.316963,0.002314,0.989501,-0.144505,-0.099452,0.026963,0.010670,-29.306065,29.917370,-17.288574,,,,,,
1478277059.30,0.018805,-1.426509,-2.626815,-0.051291,2.114500,-0.279510,0.002704,0.989609,-0.143762,-0.099841,0.026856,0.009927,-29.306065,29.917370,-17.288574,,,,,,
1478277059.32,0.028999,-1.428134,-2.658549,-0.079246,1.918260,-0.199661,0.004123,0.989841,-0.142119,-0.016131,0.065701,-0.023362,-28.334648,29.666813,-19.230629,,,,,,
1478277059.34,0.041339,-1.429094,-2.689697,-0.018876,2.116341,-0.203026,0.005837,0.989977,-0.141107,0.040565,-0.016512,0.031443,-27.825392,29.598570,-20.061443,,,,,,
1478277059.36,0.069141,-1.429883,-2.707407,-0.045306,2.101188,-0.076087,0.009703,0.990088,-0.140112,-0.066588,-0.000617,-0.015268,-26.620415,29.455307,-21.829510,,,,,,
1478277059.38,0.107920,-1.430658,-2.710657,-0.026364,1.901089,0.011983,0.015045,0.990197,-0.138867,-0.164017,0.003105,-0.098132,-25.913939,29.437994,-22.686150,,,,,,
1478277059.40,0.152289,-1.430462,-2.702052,0.028049,1.575271,0.070987,0.021219,0.990169,-0.138256,-0.241724,0.020924,-0.152638,-24.522329,29.468050,-24.147020,,,,,,
1478277059.42,0.197528,-1.428773,-2.690395,0.090414,1.603927,0.091193,0.027778,0.989932,-0.138794,-0.233253,0.002912,-0.029968,-24.522329,29.468050,-24.147020,,,,,,
1478277059.44,0.241678,-1.425377,-2.678263,0.154886,1.440205,0.131287,0.034681,0.989445,-0.140696,-0.194685,-0.026158,0.008372,-23.188509,29.482517,-25.413841,,,,,,
1478277059.47,0.283628,-1.420941,-2.663397,0.198057,1.207794,0.146211,0.041779,0.988793,-0.143330,-0.230942,-0.053948,0.023426,-22.521660,29.466446,-26.024845,,,,,,
1478277059.49,0.320893,-1.415695,-2.651212,0.213800,1.182272,0.157808,0.048725,0.987996,-0.146594,-0.237888,-0.053151,0.026691,-21.317608,29.416920,-27.073853,,,,,,
1478277059.51,0.357848,-1.410959,-2.639067,0.166917,1.183755,0.142513,0.055747,0.987253,-0.149076,-0.239645,-0.064432,0.045651,-20.727118,29.380873,-27.567011,,,,,,
1478277059.53,0.390634,-1.406512,-2.631390,0.184978,1.178930,0.128369,0.062274,0.986536,-0.151226,-0.175586,-0.053613,0.120403,-19.536827,29.320112,-28.485657,,,,,,
1478277059.55,0.422925,-1.401551,-2.623020,0.187874,1.071041,0.173526,0.069132,0.985712,-0.153598,-0.161265,-0.095698,0.153125,-19.536827,29.320112,-28.485657,,,,,,
1478277059.57,0.458364,-1.396513,-2.607995,0.138008,0.934243,0.234945,0.076727,0.984851,-0.155503,-0.234015,-0.084537,0.130830,-18.359215,29.242367,-29.336197,,,,,,
1478277059.59,0.497544,-1.392827,-2.588642,0.057361,0.958893,0.209209,0.084492,0.984205,-0.155568,-0.304768,-0.040007,0.088887,-17.809322,29.230759,-29.684673,,,,,,
1478277059.61,0.530410,-1.390157,-2.576307,0.080037,1.002926,0.108342,0.090887,0.983729,-0.154973,-0.342809,0.023580,0.074498,-16.704725,29.279360,-30.273098,,,,,,
1478277059.64,0.551786,-1.387168,-2.577988,0.144444,1.116784,0.031480,0.095720,0.983188,-0.155499,-0.350160,0.053327,0.143490,-16.704725,29.279360,-30.273098,,,,,,
1478277059.66,0.568470,-1.386077,-2.585879,0.032569,1.143243,-0.075421,0.098878,0.982988,-0.154784,-0.335816,0.067687,0.210020,-15.038874,29.164753,-31.241619,,,,,,
1478277059.68,0.581396,-1.388357,-2.596690,-0.096980,1.094843,-0.188709,0.099639,0.983404,-0.151619,-0.343474,0.113932,0.228340,-15.038874,29.164753,-31.241619,,,,,,
1478277059.70,0.581668,-1.396357,-2.618742,-0.284011,1.017541,-0.489248,0.095355,0.984824,-0.145014,-0.396319,0.230416,0.202311,-14.063264,29.143333,-31.712460,,,,,,
1478277059.72,0.560805,-1.411249,-2.660750,-0.502267,0.930461,-0.751040,0.084499,0.987299,-0.134537,-0.483394,0.245962,0.187058,-13.728736,29.175179,-31.829548,,,,,,
1478277059.74,0.530640,-1.433583,-2.709294,-0.868127,0.776658,-0.876859,0.069224,0.990601,-0.117973,-0.418879,0.273834,0.148567,-13.434110,29.361687,-31.783726,,,,,,
1478277059.76,0.471412,-1.463587,-2.784014,-1.080532,0.728604,-1.199560,0.048595,0.994259,-0.095333,-0.398251,0.270176,0.125927,-13.434110,29.361687,-31.783726,,,,,,
1478277059.78,0.298919,-1.496756,-2.979300,-1.197108,1.249040,-1.413734,0.021784,0.997260,-0.070692,0.040075,0.107690,0.261855,-13.790195,30.155991,-30.874519,,,,,,
1478277059.81,-0.188980,-1.533149,2.786454,-1.857313,1.301259,-1.422967,-0.007071,0.999291,-0.036968,0.173666,0.051581,0.321911,-13.790195,30.155991,-30.874519,,,,,,
1478277059.83,-1.758635,-1.536541,1.195389,-2.028472,0.618752,-1.214657,-0.033646,0.999413,0.006395,0.105103,0.187324,-0.041109,-13.881454,31.073914,-29.908297,,,,,,
1478277059.85,-2.250747,-1.496355,0.690743,-1.891608,0.644054,-1.085052,-0.057832,0.997231,0.046762,0.075761,0.239723,-0.049829,-14.430094,32.398457,-28.194002,,,,,,
1478277059.87,-2.386873,-1.452655,0.539327,-1.934132,0.730777,-0.999784,-0.080748,0.993029,0.085861,0.060683,0.163541,-0.170258,-14.696144,32.982754,-27.366959,,,,,,
1478277059.89,-2.454376,-1.408446,0.455434,-1.912328,0.690446,-0.941231,-0.102541,0.986850,0.124948,0.096209,0.157101,-0.196146,-14.696144,32.982754,-27.366959,,,,,,
1478277059.91,-2.493441,-1.366922,0.405233,-1.706403,0.349144,-0.817591,-0.122231,0.979290,0.161405,0.046776,0.136616,-0.308943,-4.660240,37.818687,-26.243773,,,,,,
1478277059.93,-2.524537,-1.331216,0.375200,-1.398925,-0.360981,-0.755211,-0.137307,0.971438,0.193534,0.061852,0.144468,-0.341071,-5.389396,39.085491,-24.165794,,,,,,
1478277059.95,-2.544239,-1.298662,0.368911,-1.321412,-0.727092,-0.850574,-0.151181,0.963199,0.222241,0.006223,0.225552,-0.308804,-5.994796,39.549305,-23.251276,,,,,,
1478277059.97,-2.563739,-1.264304,0.368803,-1.357675,-0.933399,-0.903724,-0.164806,0.953398,0.252729,0.176326,0.056734,-0.160199,-7.649309,40.303356,-21.397060,,,,,,
1478277060.00,-2.586382,-1.230431,0.364774,-1.394151,-0.862965,-0.725631,-0.175970,0.942633,0.283687,0.232336,-0.066824,-0.185100,-8.516834,40.645344,-20.399172,,,,,,
1478277060.02,-2.612784,-1.198973,0.353595,-1.291993,-0.622656,-0.535778,-0.183294,0.931666,0.313689,0.221075,-0.159083,-0.220687,-8.516834,40.645344,-20.399172,,,,,,
1478277060.04,-2.632511,-1.174480,0.341601,-0.995488,-0.303599,-0.295941,-0.188138,0.922489,0.337072,0.161908,-0.184421,-0.295507,-9.858918,41.300941,-18.377726,,,,,,
1478277060.06,-2.652759,-1.157437,0.326370,-0.740496,-0.356834,-0.049194,-0.188632,0.915776,0.354643,0.093081,-0.119039,-0.345808,-10.488837,41.779465,-16.886898,,,,,,
1478277060.08,-2.677902,-1.146647,0.312066,-0.498611,-0.671366,0.021697,-0.184065,0.911389,0.368090,0.022962,-0.059018,-0.359194,-10.622382,41.965424,-16.333254,,,,,,
1478277060.10,-2.703453,-1.140823,0.302536,-0.205887,-0.803324,0.059710,-0.176849,0.908977,0.377472,0.063843,-0.314250,-0.306671,-10.934023,42.209152,-15.477127,,,,,,
1478277060.12,-2.722362,-1.142283,0.297523,0.163222,-0.571993,0.158992,-0.169140,0.909585,0.379536,0.056134,-0.314858,-0.308735,-10.934023,42.209152,-15.477127,,,,,,
1478277060.14,-2.736301,-1.153170,0.291400,0.577562,-0.259486,0.405875,-0.159920,0.914054,0.372734,0.106911,-0.482520,-0.311836,-11.093203,42.241478,-15.274337,,,,,,
1478277060.17,-2.745968,-1.174360,0.282055,1.020740,0.059162,0.617514,-0.148810,0.922443,0.356307,0.127768,-0.433933,-0.342376,-10.946789,42.185886,-15.531444,,,,,,
1478277060.19,-2.749764,-1.205964,0.271750,1.468631,0.402255,0.781089,-0.136252,0.934184,0.329752,0.004507,-0.365641,-0.299982,-10.126890,41.890705,-16.832169,,,,,,
1478277060.21,-2.743729,-1.245048,0.266362,1.756372,0.563110,0.788122,-0.123991,0.947412,0.295021,-0.007754,-0.378869,-0.265251,-9.501882,41.607029,-17.868301,,,,,,
1478277060.23,-2.734187,-1.286399,0.265406,1.758342,0.402355,0.776459,-0.111174,0.959831,0.257614,-0.240664,-0.160972,0.073257,-8.151337,40.763573,-20.312393,,,,,,
1478277060.25,-2.736868,-1.324418,0.258557,1.496697,0.062468,0.765882,-0.096037,0.969802,0.224189,-0.344439,0.177583,0.328057,-8.151337,40.763573,-20.312393,,,,,,
1478277060.27,-2.743581,-1.350256,0.252499,0.794491,-0.113525,0.319856,-0.084787,0.975779,0.201657,-0.608786,0.530858,0.622867,-7.030216,39.863922,-22.408718,,,,,,
1478277060.29,-2.720896,-1.354090,0.280263,0.016395,-0.223008,-0.488064,-0.087811,0.976611,0.196266,-0.781680,0.848935,0.762017,-6.749053,39.553726,-23.036057,,,,,,
1478277060.31,-2.671381,-1.341936,0.332751,-0.424443,-0.007564,-0.847880,-0.102788,0.973926,0.202246,-0.326548,0.767896,0.725030,-7.318470,39.382599,-23.155083,,,,,,
1478277060.34,-2.622587,-1.327530,0.376816,-0.257872,0.582560,-0.559208,-0.119478,0.970556,0.209154,0.193818,0.054788,0.488829,-7.318470,39.382599,-23.155083,,,,,,
1478277060.36,-2.602239,-1.327839,0.374243,0.135170,1.267213,0.364217,-0.123555,0.970631,0.206423,0.320698,0.065334,-0.328157,-7.837828,39.472836,-22.829155,,,,,,
1478277060.38,-2.608557,-1.343428,0.339349,0.649303,1.301050,0.846886,-0.114544,0.974263,0.194142,0.311688,0.061702,-0.315877,-7.837828,39.472836,-22.829155,,,,,,
1478277060.40,-2.615567,-1.365948,0.307713,0.655016,0.870207,0.704016,-0.102137,0.979092,0.175918,0.158747,0.511921,-0.664047,-6.032100,39.294510,-23.669861,,,,,,
1478277060.42,-2.625137,-1.375348,0.290721,0.141831,0.132809,0.194288,-0.095899,0.980961,0.168877,0.028959,-0.073276,0.105033,-4.719291,38.972466,-24.486362,,,,,,
1478277060.44,-2.611724,-1.382474,0.290212,0.443411,1.174929,0.224867,-0.094620,0.982320,0.161540,0.044617,-0.488774,0.146703,-4.515241,38.916786,-24.613071,,,,,,
1478277060.46,-2.580263,-1.398401,0.280335,0.639927,2.284228,0.621719,-0.091314,0.985177,0.145219,0.095007,-0.628243,0.018828,-4.515241,38.916786,-24.613071,,,,,,
1478277060.48,-2.573650,-1.417896,0.235067,0.514462,2.355862,0.860968,-0.081925,0.988334,0.128395,0.046952,-0.368506,-0.109077,-1.302815,38.311768,-25.907875,,,,,,
1478277060.50,-2.638877,-1.432210,0.139157,0.061347,0.563146,0.884144,-0.066559,0.990412,0.121052,0.099456,0.313238,-0.351414,-1.302815,38.311768,-25.907875,,,,,,
1478277060.53,-2.755305,-1.440678,0.030578,0.151381,-0.664913,0.752430,-0.048884,0.991547,0.120191,0.132411,0.453552,-0.494260,-7.166848,42.030499,-25.395054,,,,,,
1478277060.55,-2.824862,-1.453435,-0.035614,0.579082,0.180643,0.404113,-0.036470,0.993121,0.111268,-0.309401,-0.101764,-0.132478,-6.580473,41.995514,-25.610729,,,,,,
1478277060.57,-2.795568,-1.467103,-0.034816,0.602608,2.085176,0.158066,-0.035106,0.994629,0.097372,-0.310765,-0.103271,-0.118582,-6.128630,41.777428,-26.075315,,,,,,
1478277060.59,-2.680367,-1.480805,0.023424,0.785489,2.829203,-0.033360,-0.039996,0.995954,0.080480,-0.388516,-0.096341,0.028957,-6.128630,41.777428,-26.075315,,,,,,
1478277060.61,-2.496712,-1.497734,0.157128,1.014333,1.973251,-0.000210,-0.043879,0.997332,0.058337,0.138071,0.015577,-0.148120,-2.898133,40.812614,-28.084990,,,,,,
1478277060.63,-2.318330,-1.512586,0.311107,0.639414,0.655392,0.233204,-0.042666,0.998306,0.039551,0.258593,-0.028305,-0.161820,-2.898133,40.812614,-28.084990,,,,,,
1478277060.65,-2.321369,-1.525456,0.302065,0.316597,0.251874,0.597446,-0.033146,0.998972,0.030914,0.249073,-0.028971,-0.153183,-1.663237,40.080532,-29.216776,,,,,,
1478277060.67,-2.507631,-1.539756,0.106047,0.247592,0.596036,0.718544,-0.018384,0.999518,0.025005,-0.120761,0.022256,-0.045925,-0.589646,39.806377,-29.630054,,,,,,
1478277060.70,-2.871212,-1.551790,-0.277441,0.348897,1.044936,0.598056,-0.005076,0.999819,0.018314,-0.199849,0.036313,-0.017765,0.206060,39.683609,-29.799400,,,,,,
1478277060.72,2.584348,-1.559825,-1.125383,0.492822,0.869600,0.503987,0.005802,0.999940,0.009312,-0.145710,0.013869,-0.075718,0.206060,39.683609,-29.799400,,,,,,
1478277060.74,1.354939,-1.553642,-2.371422,0.679629,0.764616,0.549211,0.016755,0.999853,-0.003674,-0.098237,-0.052450,-0.136524,1.840905,39.287899,-30.263964,,,,,,
1478277060.76,1.014264,-1.535603,-2.726265,0.729707,0.588514,0.648036,0.029876,0.999381,-0.018587,-0.086776,-0.079337,-0.159788,3.250836,38.609684,-31.009029,,,,,,
1478277060.78,0.923082,-1.514930,-2.829442,0.737104,0.545911,0.691279,0.044528,0.998440,-0.033690,-0.127140,-0.066525,-0.106950,3.940732,38.211071,-31.420055,,,,,,
1478277060.80,0.886209,-1.493494,-2.874590,0.734764,0.277392,0.708302,0.059825,0.997014,-0.048834,-0.195948,-0.026478,0.004278,5.272435,37.364567,-32.232380,,,,,,
1478277060.82,0.869873,-1.472684,-2.893742,0.649054,0.101277,0.694161,0.074862,0.995191,-0.063174,-0.181552,0.018710,0.128588,5.272435,37.364567,-32.232380,,,,,,
1478277060.84,0.859274,-1.454511,-2.910544,0.581744,0.365980,0.550046,0.087872,0.993246,-0.075762,-0.194562,0.020654,0.141176,6.259959,36.523186,-33.010685,,,,,,
1478277060.87,0.856217,-1.439533,-2.919267,0.454102,0.164951,0.482791,0.098868,0.991397,-0.085770,-0.071905,0.006344,0.247742,6.765105,36.139336,-33.331924,,,,,,
1478277060.89,0.872932,-1.427107,-2.903041,0.163025,-0.061741,0.570603,0.109719,0.989694,-0.092015,-0.239891,0.035040,0.255314,7.550639,35.533283,-33.811375,,,,,,
1478277060.91,0.950186,-1.419010,-2.821540,-0.444783,-0.163628,0.619170,0.123008,0.988503,-0.087930,-0.566810,-0.000969,0.100793,7.837282,35.380699,-33.906025,,,,,,
1478277060.93,1.015495,-1.417844,-2.750895,-0.200371,-0.197926,0.120225,0.129464,0.988326,-0.080322,-0.747399,0.082902,-0.287415,8.224384,35.647266,-33.533077,,,,,,
1478277060.95,0.982062,-1.420427,-2.785602,0.253774,0.158952,-0.419573,0.124583,0.988716,-0.083187,-0.644862,0.372612,-0.090717,8.224384,35.647266,-33.533077,,,,,,
1478277060.97,0.926259,-1.429959,-2.845196,-0.075113,0.078282,-0.669587,0.112211,0.990099,-0.084340,-0.202543,0.276762,0.199361,7.999652,35.601364,-33.636051,,,,,,
1478277060.99,0.901023,-1.447486,-2.869915,-0.644188,-0.063891,-0.787146,0.096426,0.992407,-0.076358,-0.245550,0.324915,0.607242,7.714463,35.666420,-33.633747,,,,,,
1478277061.01,0.989783,-1.477455,-2.779682,-1.544721,-0.018342,-0.941178,0.077911,0.995647,-0.051158,-0.227035,0.321675,0.582042,6.777679,36.460163,-32.978100,,,,,,
1478277061.04,1.407796,-1.516584,-2.362837,-2.188719,0.197919,-1.304570,0.053468,0.998531,-0.008793,-0.334580,0.266026,0.471043,6.777679,36.460163,-32.978100,,,,,,
1478277061.06,2.676457,-1.523825,-1.103684,-2.512203,0.755903,-1.597364,0.021061,0.998897,0.041966,-0.074940,0.093434,0.278728,4.825522,39.743954,-29.325209,,,,,,
1478277061.08,-3.001294,-1.469847,-0.523601,-2.781618,1.536274,-1.499278,-0.014093,0.994909,0.099788,0.305932,0.184397,0.104909,4.825522,39.743954,-29.325209,,,,,,
1478277061.10,-2.832420,-1.407599,-0.400306,-2.373040,2.061114,-1.373318,-0.049436,0.986713,0.154770,0.632154,0.542355,-0.569001,3.896703,42.320267,-25.625111,,,,,,
1478277061.12,-2.791264,-1.359127,-0.354510,-2.191120,-1.351606,-0.991442,-0.072105,0.977682,0.197331,0.384773,0.364405,-0.558537,3.865566,43.447693,-23.668358,,,,,,
1478277061.14,-2.799088,-1.305294,-0.331777,-2.219328,-0.968669,-1.117110,-0.088124,0.964961,0.247154,0.079671,0.185949,-0.352027,1.856827,45.060921,-20.709930,,,,,,
1478277061.16,-2.774774,-1.261474,-0.305282,-1.583043,0.209462,-0.998482,-0.109177,0.952540,0.284161,-0.182007,0.056554,-0.187939,1.856827,45.060921,-20.709930,,,,,,
1478277061.18,-2.759261,-1.223142,-0.286166,-1.593001,-0.488827,-0.886698,-0.127108,0.940174,0.316095,-0.104032,0.123180,-0.145456,-0.682040,46.722115,-16.715694,,,,,,
1478277061.20,-2.766710,-1.186784,-0.275357,-1.410872,-0.883318,-0.749304,-0.137181,0.927169,0.348625,0.083485,0.214326,-0.195701,-0.682040,46.722115,-16.715694,,,,,,
1478277061.23,-2.775366,-1.156106,-0.260196,-1.170208,-1.181324,-0.814759,-0.144279,0.915241,0.376188,0.061011,0.180019,-0.400861,-2.280618,47.429863,-14.423683,,,,,,
1478277061.25,-2.784806,-1.128600,-0.240071,-1.030841,-1.413753,-0.860981,-0.149460,0.903814,0.400977,0.224731,-0.051305,-0.515677,-4.010590,47.845047,-12.553968,,,,,,
1478277061.27,-2.793506,-1.103649,-0.214498,-0.823578,-1.513359,-0.921589,-0.153611,0.892857,0.423333,0.322221,-0.151752,-0.564675,-4.960362,47.974796,-11.689697,,,,,,
1478277061.29,-2.797768,-1.085509,-0.186597,-0.470218,-1.259187,-0.789220,-0.157240,0.884541,0.439161,0.325850,-0.143437,-0.580503,-4.960362,47.974796,-11.689697,,,,,,
1478277061.31,-2.800345,-1.076021,-0.164947,-0.138009,-0.870524,-0.484207,-0.158909,0.880076,0.447454,0.297490,-0.298105,-0.427358,-7.462510,48.028004,-10.022840,,,,,,
1478277061.33,-2.801234,-1.075119,-0.149135,0.208097,-0.613035,-0.294176,-0.158776,0.879647,0.448343,0.233834,-0.305199,-0.413355,-7.462510,48.028004,-10.022840,,,,,,
1478277061.35,-2.796300,-1.083941,-0.132562,0.724733,-0.316080,-0.143833,-0.158354,0.883808,0.440235,0.223799,-0.392704,-0.422123,-8.227732,47.913559,-9.971510,,,,,,
1478277061.37,-2.781325,-1.105443,-0.115466,1.284952,0.161569,0.092429,-0.158192,0.893663,0.419931,0.273136,-0.504610,-0.382608,-8.472504,47.618069,-11.116282,,,,,,
1478277061.40,-2.759671,-1.139553,-0.100809,1.786795,0.517881,0.439618,-0.155791,0.908447,0.387884,0.258315,-0.570419,-0.343832,-8.291864,47.378204,-12.222370,,,,,,
1478277061.42,-2.741585,-1.184046,-0.095057,2.034879,0.636472,0.874555,-0.146884,0.926140,0.347405,0.192584,-0.494407,-0.257196,-8.291864,47.378204,-12.222370,,,,,,
1478277061.44,-2.747267,-1.231022,-0.117409,1.763492,0.779535,1.401276,-0.128039,0.942830,0.307698,-0.074307,0.405116,0.218456,-7.151293,46.697166,-15.200967,,,,,,
1478277061.46,-2.792779,-1.270386,-0.179281,1.094440,0.409374,1.464502,-0.101138,0.955215,0.278092,-0.101209,0.392731,0.248062,-4.823927,46.002647,-17.981144,,,,,,
1478277061.48,-2.830737,-1.284247,-0.218045,0.145679,-0.166792,0.146401,-0.086453,0.959225,0.269098,-0.834933,0.884693,0.932151,-3.671038,45.783073,-18.795458,,,,,,
1478277061.50,-2.795619,-1.282966,-0.178251,0.161062,-0.282303,-0.782519,-0.096265,0.958862,0.267052,-0.589572,0.485825,0.565376,-2.358207,44.213135,-13.812473,,,,,,
1478277061.52,-2.752876,-1.279521,-0.116047,0.081913,-0.824610,-0.830871,-0.108839,0.957879,0.265749,0.044951,0.194557,0.175275,-2.358207,44.213135,-13.812473,,,,,,
1478277061.54,-2.710571,-1.274684,-0.081159,-0.037255,1.179490,-0.230483,-0.121915,0.956478,0.265115,0.215955,0.154331,-0.068414,-3.792274,44.076035,-13.930841,,,,,,
1478277061.57,-2.680452,-1.278421,-0.099048,0.142533,2.736248,0.575204,-0.128252,0.957562,0.258121,0.328463,0.137271,-0.423236,-3.951067,44.056206,-13.949421,,,,,,
1478277061.59,-2.666670,-1.295148,-0.136522,0.653384,1.709848,0.824915,-0.124455,0.962249,0.242049,0.472463,0.095628,-0.887420,-2.240265,44.030674,-14.402348,,,,,,
1478277061.61,-2.675905,-1.312901,-0.152029,0.545183,-0.526432,0.380547,-0.114525,0.966929,0.227887,0.160744,0.065053,-0.332547,-1.284666,43.903713,-14.898323,,,,,,
1478277061.63,-2.691053,-1.325912,-0.154022,0.661815,-0.275164,0.342262,-0.105573,0.970165,0.218252,-0.003588,-0.454998,-0.313360,-0.937519,43.639072,-15.681170,,,,,,
1478277061.65,-2.694666,-1.348596,-0.168024,0.987221,0.775372,0.776397,-0.095246,0.975415,0.198731,-0.013916,-0.460248,-0.293839,-0.937519,43.639072,-15.681170,,,,,,
1478277061.67,-2.718880,-1.373767,-0.216796,0.775319,1.333709,0.965945,-0.080306,0.980652,0.178527,0.146606,-0.305329,-0.382979,0.114085,43.196564,-16.887581,,,,,,
1478277061.69,-2.753818,-1.395120,-0.280095,0.684181,1.044570,0.847526,-0.066087,0.984609,0.161798,0.064805,0.311046,-0.319940,1.091181,42.957367,-17.453388,,,,,,
1478277061.71,-2.812096,-1.413507,-0.345804,0.549071,0.140027,0.750857,-0.050684,0.987656,0.148215,0.019693,0.139114,0.073389,2.854812,42.504967,-18.339151,,,,,,
1478277061.73,-2.858996,-1.429402,-0.399727,0.666025,0.344251,0.487572,-0.039297,0.990020,0.135334,0.008306,0.136750,0.086269,2.854812,42.504967,-18.339151,,,,,,
1478277061.76,-2.867307,-1.445736,-0.421655,0.706888,0.868670,0.313461,-0.033786,0.992190,0.120072,-0.186475,-0.037448,-0.210191,4.277831,41.842999,-19.545084,,,,,,
1478277061.78,-2.859599,-1.463099,-0.437321,0.818740,1.112612,0.290419,-0.029911,0.994206,0.103244,-0.102871,-0.077580,-0.178455,4.277831,41.842999,-19.545084,,,,,,
1478277061.80,-2.848104,-1.481518,-0.443092,0.812699,0.614609,0.267086,-0.025793,0.996017,0.085348,0.072363,-0.018890,-0.190572,5.343694,41.310123,-20.397676,,,,,,
1478277061.82,-2.878960,-1.498154,-0.487221,0.624998,0.632327,0.463609,-0.018843,0.997363,0.070090,0.141035,-0.010623,-0.141592,5.766165,41.016338,-20.870028,,,,,,
1478277061.84,-3.012246,-1.512810,-0.634617,0.588756,0.654452,0.631968,-0.007475,0.998319,0.057470,0.034636,-0.010679,-0.150213,6.750501,40.478397,-21.611956,,,,,,
1478277061.86,3.015098,-1.525275,-0.902774,0.578609,0.510465,0.655705,0.005741,0.998964,0.045142,-0.095188,0.016630,-0.148460,6.750501,40.478397,-21.611956,,,,,,
1478277061.88,2.608217,-1.533023,-1.320696,0.614637,0.518836,0.647536,0.019201,0.999287,0.032518,-0.145269,-0.092548,-0.115984,8.578850,39.622314,-22.530470,,,,,,
1478277061.90,2.107999,-1.532821,-1.832338,0.632662,0.519953,0.651077,0.032618,0.999279,0.019429,-0.079143,-0.119640,-0.125493,8.578850,39.622314,-22.530470,,,,,,
1478277061.93,1.703746,-1.523198,-2.247264,0.637742,0.455381,0.730639,0.047160,0.998867,0.006307,-0.093684,-0.119229,-0.112371,9.769072,38.975376,-23.165316,,,,,,
1478277061.95,1.463125,-1.506485,-2.496020,0.671972,0.326544,0.821542,0.063894,0.997933,-0.006906,-0.094595,-0.094475,-0.094488,10.999782,38.254162,-23.806942,,,,,,
1478277061.97,1.315022,-1.485967,-2.650385,0.727579,0.258423,0.854038,0.081971,0.996404,-0.021436,-0.164384,-0.054357,-0.040607,11.621493,37.841686,-24.168039,,,,,,
1478277061.99,1.217768,-1.464105,-2.754033,0.773145,0.286296,0.813064,0.099922,0.994314,-0.036818,-0.202537,-0.021795,0.016935,11.621493,37.841686,-24.168039,,,,,,
1478277062.01,1.142799,-1.443569,-2.835467,0.779385,0.252100,0.661085,0.115439,0.991918,-0.052663,-0.196661,0.007594,0.143468,13.393763,36.462681,-25.342190,,,,,,
1478277062.03,1.093064,-1.425610,-2.887401,0.530818,-0.055055,0.627204,0.128479,0.989479,-0.066518,-0.187134,-0.023567,0.334294,13.393763,36.462681,-25.342190,,,,,,
1478277062.05,1.113945,-1.412086,-2.859558,-0.139495,-0.409279,0.654068,0.141837,0.987432,-0.069718,-0.440711,0.027857,0.285477,14.169598,35.665245,-26.045330,,,,,,
1478277062.07,1.154981,-1.405220,-2.808687,-0.133303,-0.414454,0.296420,0.150776,0.986323,-0.066577,-0.685780,0.244176,-0.090848,14.501930,35.488373,-26.103947,,,,,,
1478277062.10,1.141841,-1.405890,-2.820334,0.174661,0.099219,-0.284715,0.149288,0.986434,-0.068278,-0.684291,0.244066,-0.089147,14.473863,35.472485,-26.141092,,,,,,
1478277062.12,1.103979,-1.414526,-2.857380,-0.060559,-0.211386,-0.563301,0.138983,0.987815,-0.070043,-0.421408,0.305108,0.071950,14.473863,35.472485,-26.141092,,,,,,
1478277062.14,1.106028,-1.430141,-2.846676,-0.640931,-0.509694,-0.646617,0.125321,0.990124,-0.062836,-0.205293,0.302127,0.436463,14.006840,35.570763,-26.261683,,,,,,
1478277062.16,1.221193,-1.454258,-2.721167,-1.444748,-0.324160,-0.818509,0.109241,0.993217,-0.039827,-0.403918,0.199929,0.392107,12.902422,36.327869,-25.786818,,,,,,
1478277062.18,1.549167,-1.485401,-2.389419,-1.994096,-0.025022,-1.356600,0.085271,0.996356,-0.001845,-0.379949,0.196790,0.354124,12.289027,37.074535,-25.012106,,,,,,
1478277062.20,2.293438,-1.504130,-1.646700,-2.255249,0.329122,-1.776613,0.049967,0.997779,0.044058,-0.196909,0.324441,0.086954,10.587868,39.106743,-22.576677,,,,,,
1478277062.22,2.994903,-1.475117,-0.952703,-2.377351,0.454073,-1.559357,0.013964,0.995426,0.094507,0.262175,0.376690,0.089834,9.619010,40.193913,-21.049240,,,,,,
1478277062.24,-3.032513,-1.427467,-0.700600,-2.216759,0.277633,-1.271111,-0.015550,0.989746,0.141990,0.409272,0.503662,-0.164558,9.619010,40.193913,-21.049240,,,,,,
1478277062.27,-2.907648,-1.378995,-0.609797,-1.869983,1.399139,-0.994128,-0.044190,0.981663,0.185435,0.550431,0.395718,-0.446741,7.928758,42.026142,-17.946724,,,,,,
1478277062.29,-2.871414,-1.335552,-0.566094,-1.964106,-1.065130,-0.922417,-0.062210,0.972457,0.224625,0.226532,0.221406,-0.594178,7.139459,43.334396,-14.909893,,,,,,
1478277062.31,-2.861990,-1.289430,-0.536735,-1.916220,-0.517629,-0.914035,-0.076629,0.960677,0.266885,-0.025864,0.095414,-0.221719,6.276655,43.879585,-13.650356,,,,,,
1478277062.33,-2.842467,-1.250270,-0.510865,-1.527693,-0.322509,-0.838518,-0.092845,0.949070,0.301075,-0.139622,0.166165,-0.379154,4.796128,44.769020,-11.130080,,,,,,
1478277062.35,-2.839294,-1.217656,-0.489275,-1.329628,-1.027293,-0.789071,-0.102964,0.938291,0.330163,-0.016696,0.202730,-0.404992,4.796128,44.769020,-11.130080,,,,,,
1478277062.37,-2.831157,-1.189209,-0.452960,-0.940063,-1.268847,-1.095265,-0.113757,0.928075,0.354594,-0.005903,0.212947,-0.429423,3.397824,45.320019,-9.257288,,,,,,
1478277062.39,-2.817017,-1.166159,-0.403187,-0.670514,-1.565197,-1.255988,-0.125549,0.919245,0.373130,0.199585,-0.006770,-0.475638,2.474840,45.515751,-8.563760,,,,,,
1478277062.41,-2.807918,-1.143791,-0.350376,-0.701024,-1.972353,-1.290483,-0.135640,0.910210,0.391305,0.293996,-0.110161,-0.446618,0.289659,45.754570,-7.588280,,,,,,
1478277062.43,-2.801743,-1.123197,-0.301575,-0.461270,-1.588217,-1.181977,-0.144273,0.901489,0.408048,0.317002,-0.211059,-0.414518,0.289659,45.754570,-7.588280,,,,,,
1478277062.46,-2.788284,-1.111600,-0.259916,-0.087407,-0.860117,-0.848802,-0.153359,0.896409,0.415851,0.342583,-0.271363,-0.372379,-1.437423,44.690578,-11.349512,,,,,,
1478277062.48,-2.776184,-1.109292,-0.231047,0.218882,-0.590348,-0.458717,-0.159118,0.895384,0.415896,0.293273,-0.274000,-0.449130,-1.437423,44.690578,-11.349512,,,,,,
1478277062.50,-2.772849,-1.114091,-0.212375,0.427202,-0.689456,-0.193468,-0.158954,0.897510,0.411350,0.240741,-0.289493,-0.485111,-2.542384,44.613899,-11.456963,,,,,,
1478277062.52,-2.777448,-1.125743,-0.199147,0.750994,-0.798377,0.018809,-0.153325,0.902588,0.402277,0.175129,-0.415771,-0.437312,-2.840610,44.534119,-11.694803,,,,,,
1478277062.54,-2.781861,-1.147385,-0.188193,1.219726,-0.546428,0.246478,-0.144637,0.911693,0.384573,0.166441,-0.424876,-0.419607,-3.143306,44.259483,-12.623128,,,,,,
1478277062.56,-2.781146,-1.179782,-0.183415,1.573763,0.052344,0.584665,-0.134420,0.924523,0.356635,0.168875,-0.450570,-0.264625,-3.143306,44.259483,-12.623128,,,,,,
1478277062.58,-2.786256,-1.217948,-0.195726,1.600788,0.399270,0.994015,-0.120227,0.938392,0.323984,0.123568,-0.158927,-0.001413,-2.152420,43.352356,-15.622610,,,,,,
1478277062.60,-2.824818,-1.256076,-0.242300,1.348388,0.097937,1.411896,-0.096426,0.950883,0.294149,-0.169748,0.284346,0.148417,-2.152420,43.352356,-15.622610,,,,,,
1478277062.63,-2.894643,-1.286640,-0.307403,0.957832,-0.652676,1.011513,-0.068530,0.959898,0.271843,-0.776715,0.753923,0.588493,-0.322340,42.632645,-17.620420,,,,,,
1478277062.65,-2.916558,-1.298764,-0.309149,0.328840,-0.970965,-0.370656,-0.059956,0.963227,0.261915,-1.019283,0.764999,0.969408,0.313656,42.137001,-18.775000,,,,,,
1478277062.67,-2.854409,-1.299602,-0.236163,0.240219,0.031962,-1.022731,-0.075878,0.963452,0.256911,-0.628391,0.519260,0.678636,-0.339828,42.048328,-18.972298,,,,,,
1478277062.69,-2.775226,-1.292472,-0.163171,-0.123269,0.624058,-0.921224,-0.098421,0.961517,0.256512,-0.074400,0.144608,0.328602,-0.339828,42.048328,-18.972298,,,,,,
1478277062.71,-2.718274,-1.290552,-0.129686,0.255416,1.553383,-0.060866,-0.113620,0.960988,0.252176,0.191379,0.049602,-0.244547,-1.578826,41.950844,-19.124836,,,,,,
1478277062.73,-2.691864,-1.301607,-0.147351,0.397426,2.214972,0.634124,-0.115614,0.963987,0.239506,0.193373,0.046603,-0.231876,-1.578826,41.950844,-19.124836,,,,,,
1478277062.75,-2.695985,-1.317785,-0.186944,0.474132,0.985470,0.756492,-0.107890,0.968163,0.225877,0.421504,0.178627,-0.737260,0.162988,41.732040,-19.660509,,,,,,
1478277062.77,-2.734871,-1.326440,-0.214106,0.185781,-1.286417,0.318897,-0.095708,0.970293,0.222196,0.062154,-0.134768,0.057773,1.352372,41.476517,-20.149319,,,,,,
1478277062.80,-2.758759,-1.337436,-0.228590,0.577096,0.342421,0.446360,-0.086383,0.972895,0.214508,0.169345,-0.540049,-0.091522,1.201282,41.383266,-20.349638,,,,,,
1478277062.82,-2.764491,-1.357922,-0.263743,0.806699,1.825171,0.850425,-0.077795,0.977428,0.196425,0.160757,-0.544582,-0.073439,1.201282,41.383266,-20.349638,,,,,,
1478277062.84,-2.796958,-1.380987,-0.344224,0.692190,2.107486,1.238132,-0.063743,0.982040,0.177578,0.192009,-0.235458,-0.426342,2.596402,40.898056,-21.183323,,,,,,
1478277062.86,-2.893004,-1.396982,-0.469868,0.189844,0.818526,1.165852,-0.042550,0.984932,0.167624,-0.095542,0.403175,-0.388846,5.465318,40.279942,-21.812429,,,,,,
1478277062.88,-3.006008,-1.401795,-0.583550,0.138407,-0.714294,0.727383,-0.022735,0.985753,0.166655,-0.382111,0.439357,-0.467314,6.493943,40.099636,-21.862606,,,,,,
1478277062.90,-3.038306,-1.416578,-0.604865,0.967268,0.235675,0.038724,-0.015837,0.988132,0.152789,-0.390580,0.085324,-0.098117,6.895170,39.755531,-22.362469,,,,,,
1478277062.92,-2.986005,-1.438868,-0.569866,1.035920,0.979783,-0.090384,-0.020385,0.991310,0.129957,-0.269105,-0.073784,-0.231276,3.030167,39.540939,-17.739901,,,,,,
1478277062.94,-2.934988,-1.462518,-0.537530,1.214303,0.864378,0.087697,-0.022169,0.994144,0.105768,-0.014681,-0.102512,-0.221644,3.030167,39.540939,-17.739901,,,,,,
1478277062.96,-2.937112,-1.486370,-0.549891,0.963801,0.173124,0.397095,-0.017123,0.996438,0.082569,0.309466,-0.032678,-0.074177,3.538313,38.898247,-19.020485,,,,,,
1478277062.99,-3.051420,-1.503514,-0.664367,0.648259,0.025705,0.591303,-0.006054,0.997737,0.066958,0.150097,0.019764,-0.095065,4.160552,38.233673,-20.205149,,,,,,
1478277063.01,2.982558,-1.516366,-0.919855,0.623456,0.425132,0.743369,0.008616,0.998519,0.053717,0.135427,0.018983,-0.081824,4.536205,37.978992,-20.600750,,,,,,
1478277063.03,2.630304,-1.523130,-1.284779,0.555050,0.657780,0.704911,0.023315,0.998864,0.041555,-0.136993,-0.011621,-0.067205,5.700917,37.456474,-21.257559,,,,,,
1478277063.05,2.265343,-1.522748,-1.666079,0.531628,0.785131,0.653997,0.036903,0.998846,0.030741,-0.163139,-0.096212,-0.092279,5.700917,37.456474,-21.257559,,,,,,
1478277063.07,1.946168,-1.516676,-2.001603,0.560817,0.713666,0.655879,0.050327,0.998536,0.019832,-0.146473,-0.134766,-0.108165,7.003491,36.953506,-21.743071,,,,,,
1478277063.09,1.693066,-1.505718,-2.266353,0.610325,0.409714,0.700912,0.064547,0.997883,0.007932,-0.142733,-0.124684,-0.136914,7.643337,36.685505,-21.980110,,,,,,
1478277063.11,1.499476,-1.490634,-2.466446,0.706064,0.244744,0.726890,0.079873,0.996789,-0.005706,-0.165414,-0.077981,-0.094147,8.768544,36.073822,-22.564659,,,,,,
1478277063.13,1.352357,-1.473070,-2.620355,0.781324,0.344844,0.720520,0.095252,0.995229,-0.021144,-0.208320,-0.051060,-0.059514,9.274564,35.714962,-22.930237,,,,,,
1478277063.16,1.239047,-1.454238,-2.743482,0.861323,0.464562,0.664877,0.109954,0.993215,-0.037877,-0.148757,0.018092,0.226857,10.338926,34.901920,-23.713591,,,,,,
1478277063.18,1.163244,-1.435765,-2.829339,0.696952,0.401388,0.619710,0.123595,0.990897,-0.053359,-0.162398,0.020410,0.242339,10.338926,34.901920,-23.713591,,,,,,
1478277063.20,1.157482,-1.418414,-2.837933,0.141234,-0.049689,0.796531,0.139011,0.988412,-0.060967,-0.101368,-0.084863,0.340966,11.365797,34.093346,-24.409721,,,,,,
1478277063.22,1.215462,-1.404007,-2.774515,-0.273638,-0.267797,0.740850,0.155646,0.986123,-0.057758,-0.642264,0.021812,-0.220349,11.797770,33.835289,-24.563341,,,,,,
1478277063.24,1.233196,-1.396340,-2.754565,0.170901,0.093148,0.132848,0.163775,0.984821,-0.057491,-0.727465,0.231121,-0.126682,12.411304,33.693367,-24.455847,,,,,,
1478277063.26,1.200689,-1.399278,-2.793652,0.160637,0.282771,-0.441128,0.159122,0.985327,-0.061737,-0.430408,0.225977,0.153381,12.411304,33.693367,-24.455847,,,,,,
1478277063.28,1.190442,-1.413023,-2.806631,-0.333231,0.015672,-0.748898,0.145891,0.987580,-0.058331,-0.264726,0.390274,0.334713,12.212063,33.720375,-24.518845,,,,,,
1478277063.30,1.254217,-1.437723,-2.743205,-1.163280,0.169535,-1.069231,0.126088,0.991159,-0.041306,-0.248738,0.412986,0.556412,12.212063,33.720375,-24.518845,,,,,,
1478277063.33,1.527653,-1.471737,-2.479081,-1.967288,0.667008,-1.443722,0.098805,0.995098,-0.004265,-0.325062,0.257008,0.389794,11.247749,34.706612,-23.586252,,,,,,
1478277063.35,2.227635,-1.491150,-1.793926,-2.707507,0.894543,-1.809417,0.063007,0.996830,0.048582,-0.345112,0.252697,0.279009,10.704517,35.602005,-22.478487,,,,,,
1478277063.37,2.933838,-1.459639,-1.099401,-2.760623,0.435312,-1.814857,0.022880,0.993828,0.108543,-0.080315,0.378822,0.091423,9.218516,37.856037,-19.217476,,,,,,
1478277063.39,-3.066372,-1.407970,-0.820278,-2.419742,0.515541,-1.497790,-0.012182,0.986773,0.161650,0.312506,0.518613,-0.095594,9.218516,37.856037,-19.217476,,,,,,
1478277063.41,-2.936689,-1.352637,-0.716758,-2.513597,1.514992,-1.144098,-0.044038,0.976297,0.211905,0.398561,0.359213,-0.455756,6.792779,40.494732,-14.191790,,,,,,
1478277063.43,-2.885045,-1.295788,-0.676882,-2.388212,-0.086705,-1.091262,-0.068905,0.962423,0.262667,-0.198383,0.151530,-0.586444,6.792779,40.494732,-14.191790,,,,,,
1478277063.45,-2.856541,-1.246085,-0.639855,-1.921248,0.051696,-1.086685,-0.089715,0.947743,0.306161,-0.177573,0.166210,-0.629937,5.619003,41.693104,-10.838994,,,,,,
1478277063.47,-2.818226,-1.207387,-0.609124,-1.366518,0.180860,-1.009214,-0.112952,0.934690,0.337040,-0.308999,0.067660,-0.398563,4.219933,42.429302,-8.325783,,,,,,
1478277063.49,-2.808653,-1.177225,-0.575332,-1.111394,-1.649517,-1.016693,-0.125333,0.923545,0.362430,-0.168368,0.181832,-0.387943,3.496469,42.648029,-7.502815,,,,,,
1478277063.52,-2.815490,-1.149804,-0.534835,-0.910696,-2.125502,-1.220984,-0.130918,0.912684,0.387129,-0.028598,0.158559,-0.428816,3.496469,42.648029,-7.502815,,,,,,
1478277063.54,-2.816265,-1.125684,-0.487710,-0.690257,-1.966705,-1.230452,-0.137615,0.902562,0.407975,0.189724,-0.049749,-0.460587,0.538486,43.060349,-5.734822,,,,,,
1478277063.56,-2.819345,-1.104957,-0.444207,-0.649158,-2.024316,-1.124954,-0.142253,0.893445,0.426052,0.352000,-0.149045,-0.481838,0.538486,43.060349,-5.734822,,,,,,
1478277063.58,-2.823799,-1.086484,-0.404880,-0.472873,-1.688101,-1.049724,-0.145486,0.884996,0.442286,0.382547,-0.240861,-0.445658,-1.394926,43.153427,-4.817443,,,,,,
1478277063.60,-2.820624,-1.074779,-0.369237,-0.140319,-1.110276,-0.836378,-0.150148,0.879485,0.451621,0.313097,-0.287459,-0.443488,-3.012721,43.143112,-4.119109,,,,,,
1478277063.62,-2.812396,-1.072408,-0.339176,0.265382,-0.750573,-0.590358,-0.154533,0.878354,0.452343,0.317481,-0.286328,-0.444210,-3.604071,43.105354,-4.038661,,,,,,
1478277063.64,-2.803571,-1.079030,-0.312356,0.620966,-0.716796,-0.402998,-0.156586,0.881500,0.445464,0.229462,-0.275574,-0.489623,-3.604071,43.105354,-4.038661,,,,,,
1478277063.66,-2.799020,-1.093241,-0.287020,0.929628,-0.927001,-0.229047,-0.154388,0.888121,0.432903,0.230697,-0.391036,-0.501766,0.267800,43.769791,-8.387303,,,,,,
1478277063.69,-2.800636,-1.115816,-0.265766,1.297438,-0.943280,0.032092,-0.146946,0.898269,0.414148,0.271564,-0.455612,-0.445734,-0.326413,43.512096,-9.633479,,,,,,
1478277063.71,-2.803031,-1.149057,-0.252899,1.722789,-0.433508,0.447342,-0.135957,0.912378,0.386111,0.276277,-0.461954,-0.377367,-0.449136,43.304352,-10.523512,,,,,,
1478277063.73,-2.808822,-1.192534,-0.259389,1.960864,0.263619,0.997902,-0.120638,0.929308,0.349046,0.209612,-0.317507,-0.190889,0.147782,42.656200,-12.908900,,,,,,
1478277063.75,-2.836975,-1.240011,-0.299952,1.846549,0.494487,1.498196,-0.097412,0.945788,0.309833,-0.043304,0.085768,0.077389,0.147782,42.656200,-12.908900,,,,,,
1478277063.77,-2.892500,-1.281809,-0.364533,1.444883,0.046644,1.228060,-0.070255,0.958533,0.276186,-0.593273,0.661584,0.515364,2.106119,41.750275,-15.449660,,,,,,
1478277063.79,-2.912391,-1.301615,-0.375901,0.511165,-0.647297,-0.222578,-0.060422,0.963989,0.258988,-0.775286,1.160172,0.873535,3.083303,41.288609,-16.491119,,,,,,
1478277063.81,-2.856349,-1.299167,-0.301183,-0.074609,-0.733289,-1.246742,-0.075498,0.963335,0.257460,-0.760211,1.160826,0.875062,2.805393,40.927284,-17.415525,,,,,,
1478277063.83,-2.773424,-1.282287,-0.217504,-0.492009,0.837475,-1.190460,-0.102402,0.958669,0.265457,-0.126236,0.435694,0.571778,1.823371,40.995579,-17.385361,,,,,,
1478277063.86,-2.698410,-1.273972,-0.183910,0.078971,2.515629,-0.110942,-0.125422,0.956270,0.264228,0.299708,-0.236376,-0.324424,1.104573,41.236191,-16.869194,,,,,,
1478277063.88,-2.662387,-1.289828,-0.206029,0.751383,2.577955,0.973081,-0.127850,0.960787,0.246053,0.401074,0.163434,-0.864110,1.104573,41.236191,-16.869194,,,,,,
1478277063.90,-2.682691,-1.317291,-0.261095,0.773242,0.741327,1.156071,-0.111095,0.968039,0.224851,0.384319,0.156182,-0.842908,3.259864,40.914211,-17.367031,,,,,,
1478277063.92,-2.735127,-1.329137,-0.296620,0.144982,-1.553384,0.302980,-0.094616,0.970942,0.219816,-0.018924,-0.089915,0.059649,4.415281,40.603821,-17.833910,,,,,,
1478277063.94,-2.753383,-1.338679,-0.303691,0.556297,0.431539,0.315194,-0.087077,0.973182,0.212921,0.111582,-0.605155,0.026429,4.475529,40.354809,-18.375862,,,,,,
1478277063.96,-2.737240,-1.358079,-0.325735,0.818601,2.368757,0.725838,-0.083059,0.977461,0.194092,0.214254,-0.468305,-0.189347,4.475529,40.354809,-18.375862,,,,,,
1478277063.98,-2.739330,-1.379545,-0.386505,0.603983,2.730650,1.012884,-0.074420,0.981767,0.174915,0.272723,-0.073472,-0.298694,7.190851,39.562965,-19.216572,,,,,,
1478277064.00,-2.805886,-1.394338,-0.495257,0.138610,1.228584,1.172108,-0.057831,0.984472,0.165745,0.027298,0.391764,-0.427723,7.190851,39.562965,-19.216572,,,,,,
1478277064.03,-2.898272,-1.404827,-0.592741,0.425270,-0.108059,0.663281,-0.039803,0.986259,0.160342,-0.377006,0.358666,-0.727069,9.704172,39.063957,-19.132416,,,,,,
1478277064.05,-2.903952,-1.422631,-0.608673,0.957689,0.723497,0.158442,-0.034752,0.989044,0.143475,-0.157325,-0.019332,-0.478802,10.202709,38.843590,-19.320797,,,,,,
1478277064.07,-2.869126,-1.444006,-0.586419,1.054801,0.528688,0.117167,-0.034029,0.991973,0.121786,-0.029753,-0.035995,-0.262823,10.843366,38.223568,-20.188950,,,,,,
1478277064.09,-2.813624,-1.470524,-0.545734,1.325347,0.755396,0.245801,-0.032246,0.994977,0.094769,-0.031536,-0.038999,-0.235806,10.843366,38.223568,-20.188950,,,,,,
1478277064.11,-2.791093,-1.496422,-0.537635,0.986760,0.652929,0.419130,-0.025514,0.997236,0.069788,0.246126,0.005587,0.100439,11.906617,36.901134,-21.971619,,,,,,
1478277064.13,-2.865627,-1.513317,-0.627763,0.519462,0.821808,0.593065,-0.015653,0.998349,0.055274,0.176633,0.051670,0.109353,11.906617,36.901134,-21.971619,,,,,,
1478277064.15,-3.112759,-1.524642,-0.894309,0.404916,0.878047,0.769866,-0.001330,0.998935,0.046118,-0.009351,0.036282,-0.024680,13.038003,36.207355,-22.477793,,,,,,
1478277064.17,2.760282,-1.529516,-1.322523,0.370374,0.803992,0.843472,0.015357,0.999148,0.038304,-0.107597,-0.001956,-0.086095,14.552818,35.582405,-22.545980,,,,,,
1478277064.19,2.324090,-1.525856,-1.776044,0.377454,0.831759,0.846013,0.032771,0.998990,0.030731,-0.168955,-0.104764,-0.127762,15.313881,35.246708,-22.569178,,,,,,
1478277064.22,1.996993,-1.515501,-2.121709,0.451982,0.831405,0.856617,0.050323,0.998472,0.022848,-0.182983,-0.166822,-0.114981,15.313881,35.246708,-22.569178,,,,,,
1478277064.24,1.736613,-1.500648,-2.395479,0.636556,0.434901,0.923416,0.069130,0.997541,0.011569,-0.243110,-0.153638,-0.138812,17.588499,34.084915,-22.695301,,,,,,
1478277064.26,1.529079,-1.481772,-2.608860,0.793927,0.203306,0.928965,0.088829,0.996040,-0.003708,-0.262810,-0.152137,-0.123535,17.588499,34.084915,-22.695301,,,,,,
1478277064.28,1.378359,-1.461562,-2.765578,0.862181,0.271508,0.800039,0.107005,0.994040,-0.020850,-0.356852,-0.081793,-0.025354,18.777199,33.009308,-23.324141,,,,,,
1478277064.30,1.271977,-1.442463,-2.877821,0.747184,0.195152,0.701860,0.122310,0.991777,-0.037677,-0.248729,-0.033616,0.380313,19.779408,31.889221,-24.042995,,,,,,
1478277064.32,1.256370,-1.424914,-2.895327,0.089388,-0.014279,0.772046,0.138239,0.989378,-0.044957,-0.481882,0.008165,0.174276,20.207340,31.424877,-24.297199,,,,,,
1478277064.34,1.292960,-1.411611,-2.853213,-0.115673,-0.354477,0.570911,0.152435,0.987357,-0.043477,-0.671784,0.085443,-0.168559,20.207340,31.424877,-24.297199,,,,,,
1478277064.36,1.290689,-1.406198,-2.848166,0.110170,-0.275007,0.065664,0.157470,0.986484,-0.045299,-0.684066,0.186062,-0.107899,20.799885,30.966211,-24.385891,,,,,,
1478277064.39,1.272513,-1.410446,-2.859849,-0.077839,-0.386552,-0.373915,0.152614,0.987171,-0.046922,-0.435191,0.140926,0.046235,20.686096,30.835152,-24.647352,,,,,,
1478277064.41,1.277411,-1.422504,-2.845419,-0.385288,-0.428851,-0.583671,0.141436,0.989025,-0.042728,-0.267840,0.294102,0.277286,20.355736,30.983913,-24.735687,,,,,,
1478277064.43,1.365461,-1.442041,-2.751803,-1.134969,0.013585,-0.887935,0.125702,0.991722,-0.026180,-0.304688,0.377235,0.526409,19.451351,31.770704,-24.463860,,,,,,
1478277064.45,1.639721,-1.469192,-2.486648,-1.705494,0.712420,-1.322190,0.101188,0.994843,0.006985,-0.287910,0.196914,0.403934,19.029230,32.577312,-23.723835,,,,,,
1478277064.47,2.229318,-1.486143,-1.911228,-2.274222,0.781403,-1.775952,0.066872,0.996419,0.051741,-0.285866,0.177256,0.199357,19.029230,32.577312,-23.723835,,,,,,
1478277064.49,2.888976,-1.465596,-1.259376,-2.310090,0.246721,-1.915998,0.026245,0.994472,0.101674,0.224640,0.696904,0.050945,17.959698,34.827564,-21.229776,,,,,,
1478277064.51,-3.061889,-1.419509,-0.926911,-2.295064,0.350400,-1.668264,-0.011999,0.988578,0.150232,0.644247,0.665658,-0.103449,16.010279,37.315922,-18.368618,,,,,,
1478277064.53,-2.908397,-1.367884,-0.795543,-2.221725,1.582598,-1.321205,-0.046569,0.979484,0.196068,0.678817,0.674752,-0.149285,15.105432,38.374107,-16.895767,,,,,,
1478277064.56,-2.826849,-1.316060,-0.744460,-2.074888,1.019801,-1.120247,-0.078009,0.967730,0.239612,0.137763,0.125410,-0.782931,14.177345,40.062374,-13.424692,,,,,,
1478277064.58,-2.785661,-1.269828,-0.709738,-1.879585,-0.098595,-1.259434,-0.103301,0.955050,0.277865,-0.433992,0.137296,-0.443499,14.177345,40.062374,-13.424692,,,,,,
1478277064.60,-2.760305,-1.224065,-0.675885,-1.723040,-0.411320,-1.233254,-0.126454,0.940488,0.315422,-0.277934,0.067797,-0.153831,12.820419,41.306641,-10.752273,,,,,,
1478277064.62,-2.763080,-1.185003,-0.649392,-1.436425,-1.804126,-1.033108,-0.139055,0.926500,0.349658,-0.204634,0.150419,-0.409427,11.948095,41.842480,-9.626172,,,,,,
1478277064.64,-2.767153,-1.153423,-0.614699,-0.963325,-1.673002,-1.234443,-0.148261,0.914157,0.377274,-0.010171,0.166287,-0.490098,10.073271,42.637405,-8.172775,,,,,,
1478277064.66,-2.767680,-1.127713,-0.567136,-0.756741,-2.385384,-1.337972,-0.156597,0.903434,0.399104,0.182003,0.038491,-0.636897,9.023026,42.946503,-7.771500,,,,,,
1478277064.68,-2.780185,-1.102531,-0.519559,-0.719335,-2.667186,-1.350436,-0.159590,0.892352,0.422183,0.333464,-0.154117,-0.527026,6.617994,43.462402,-7.309922,,,,,,
1478277064.70,-2.799854,-1.080014,-0.474667,-0.603439,-2.783293,-1.217077,-0.157950,0.881964,0.444062,0.331824,-0.143729,-0.548905,6.617994,43.462402,-7.309922,,,,,,
1478277064.72,-2.816633,-1.064558,-0.436845,-0.264671,-2.002849,-0.920028,-0.154811,0.874575,0.459513,0.325023,-0.272890,-0.469294,4.228410,43.829113,-6.880599,,,,,,
1478277064.75,-2.820099,-1.060619,-0.408061,0.236271,-0.951357,-0.559952,-0.154305,0.872658,0.463312,0.298150,-0.291985,-0.473322,3.280413,43.929001,-6.759815,,,,,,
1478277064.77,-2.810121,-1.069014,-0.384828,0.709158,-0.312771,-0.286168,-0.156531,0.876726,0.454806,0.321249,-0.284380,-0.485995,2.197264,43.944431,-7.090292,,,,,,
1478277064.79,-2.797704,-1.086523,-0.365029,1.052510,-0.239336,-0.049138,-0.156966,0.885013,0.438307,0.331938,-0.356266,-0.444975,2.197264,43.944431,-7.090292,,,,,,
1478277064.81,-2.788899,-1.112137,-0.349227,1.373179,-0.199702,0.193541,-0.152937,0.896647,0.415493,0.302946,-0.405726,-0.385861,1.856630,43.583954,-9.121691,,,,,,
1478277064.83,-2.778948,-1.146756,-0.341014,1.697235,0.380830,0.569241,-0.145960,0.911434,0.384686,0.286356,-0.427441,-0.246350,1.856630,43.583954,-9.121691,,,,,,
1478277064.85,-2.772205,-1.188790,-0.351431,1.786871,0.949340,1.089493,-0.134592,0.927918,0.347639,0.198358,-0.368073,-0.052213,2.490324,43.041950,-11.287246,,,,,,
1478277064.87,-2.796799,-1.231962,-0.398152,1.501467,0.752662,1.620996,-0.112348,0.943143,0.312825,0.005109,-0.048718,0.084148,4.429611,42.227375,-13.544024,,,,,,
1478277064.89,-2.868394,-1.267907,-0.476172,1.095589,-0.337861,1.460665,-0.080479,0.954479,0.287217,-0.402034,0.456273,0.212448,5.663854,41.779831,-14.442281,,,,,,
1478277064.92,-2.914017,-1.287560,-0.504425,0.639098,-1.030116,0.021925,-0.063052,0.960156,0.272259,-1.010709,0.745151,0.723133,5.663854,41.779831,-14.442281,,,,,,
1478277064.94,-2.872954,-1.294815,-0.442998,0.493886,-0.734625,-0.987808,-0.072324,0.962158,0.262717,-0.499392,0.513931,0.604958,5.948883,41.079220,-16.227184,,,,,,
1478277064.96,-2.798123,-1.292300,-0.360967,-0.001577,0.320585,-1.006755,-0.092578,0.961470,0.258854,0.054644,0.406816,0.554730,5.948883,41.079220,-16.227184,,,,,,
1478277064.98,-2.729040,-1.288101,-0.323229,0.108073,2.210884,-0.123565,-0.111843,0.960307,0.255542,0.073910,0.407979,0.558042,4.572550,41.138268,-16.521126,,,,,,
1478277065.00,-2.699702,-1.294881,-0.349036,0.111806,2.367230,0.633884,-0.116504,0.962176,0.246259,0.263430,0.432279,-0.596266,5.694793,41.090633,-16.289337,,,,,,
1478277065.02,-2.715405,-1.302313,-0.381152,0.184057,-0.415824,0.316480,-0.109663,0.964174,0.241541,0.430845,0.039564,-0.810312,6.570967,40.998138,-16.192232,,,,,,
1478277065.04,-2.751936,-1.308195,-0.392254,0.320156,-1.228802,0.300487,-0.098612,0.965718,0.240134,0.364741,-0.519780,-0.334815,6.570967,40.998138,-16.192232,,,,,,
1478277065.06,-2.781277,-1.329794,-0.412647,1.158568,0.128708,0.828566,-0.084150,0.971099,0.223349,0.306852,-0.963073,-0.581961,6.514899,40.837803,-16.614548,,,,,,
1478277065.09,-2.829398,-1.364931,-0.486831,1.259089,1.681688,1.507161,-0.062786,0.978884,0.194534,0.416774,-0.719577,-0.454147,7.485402,40.111336,-17.923809,,,,,,
1478277065.11,-2.943544,-1.391872,-0.644049,0.623986,1.745959,1.693292,-0.035017,0.984036,0.174492,0.383558,0.220401,-0.415794,8.914714,39.556232,-18.494476,,,,,,
1478277065.13,-3.086041,-1.404911,-0.806060,0.519654,-0.026439,1.113219,-0.009168,0.986273,0.164871,-0.520830,0.462748,-0.223876,11.772675,38.676773,-18.754320,,,,,,
1478277065.15,3.131009,-1.423115,-0.871146,0.986988,0.634211,0.106088,0.001557,0.989115,0.147137,-0.531556,0.459905,-0.206142,12.217449,38.303368,-19.230160,,,,,,
1478277065.17,-3.091762,-1.444876,-0.849533,0.985618,1.704461,-0.126728,-0.006256,0.992082,0.125432,-0.204438,-0.133211,0.072779,12.217449,38.303368,-19.230160,,,,,,
1478277065.19,-3.073847,-1.467016,-0.851646,1.023754,0.728907,0.222015,-0.007013,0.994620,0.103357,0.181527,-0.132040,-0.191156,13.042591,37.682198,-19.903664,,,,,,
1478277065.21,3.138459,-1.487020,-0.938736,0.898435,0.767776,0.481042,0.000262,0.996493,0.083678,0.114347,-0.043597,-0.210265,13.803790,36.956959,-20.732866,,,,,,
1478277065.23,3.010668,-1.502407,-1.085178,0.638992,0.976806,0.474140,0.008921,0.997662,0.067751,-0.010157,0.048618,-0.062136,14.336019,36.553722,-21.083578,,,,,,
1478277065.25,2.850110,-1.509671,-1.273089,0.373682,1.404454,0.511048,0.017555,0.998132,0.058511,-0.128028,0.069357,-0.008294,15.601701,35.920860,-21.271852,,,,,,
1478277065.28,2.654053,-1.511982,-1.496367,0.336482,1.132209,0.568034,0.027536,0.998271,0.051932,-0.134058,0.042485,-0.105551,15.601701,35.920860,-21.271852,,,,,,
1478277065.30,2.419061,-1.510984,-1.750363,0.382914,0.714497,0.632303,0.039530,0.998212,0.044841,-0.152124,0.009524,-0.166713,17.059141,35.405910,-21.014765,,,,,,
1478277065.32,2.177286,-1.506291,-2.003013,0.421631,0.405835,0.663185,0.052964,0.997920,0.036742,-0.283021,-0.068797,-0.161696,17.680403,35.110947,-20.996145,,,,,,
1478277065.34,1.952798,-1.499369,-2.235961,0.569699,0.365575,0.625311,0.066223,0.997450,0.026604,-0.296279,-0.068327,-0.151558,18.707737,34.449184,-21.201115,,,,,,
1478277065.36,1.735991,-1.490616,-2.460719,0.697294,0.330039,0.620400,0.079004,0.996787,0.013171,-0.242945,-0.094688,-0.175036,19.169069,34.069630,-21.401415,,,,,,
1478277065.38,1.558745,-1.477800,-2.644279,0.700161,0.225596,0.696165,0.092856,0.995679,-0.001119,-0.111441,-0.122449,-0.036616,20.055695,33.203415,-21.943460,,,,,,
1478277065.40,1.433962,-1.461179,-2.773963,0.658195,0.197626,0.751256,0.108375,0.993998,-0.014923,-0.126167,-0.064082,0.047149,20.055695,33.203415,-21.943460,,,,,,
1478277065.42,1.355405,-1.443801,-2.857697,0.569067,0.239438,0.691519,0.123727,0.991947,-0.027070,-0.141519,-0.062031,0.059296,20.960608,32.251419,-22.510269,,,,,,
1478277065.45,1.301826,-1.429085,-2.917570,0.511256,0.278143,0.522366,0.136159,0.989976,-0.037532,-0.186559,-0.022904,0.213420,21.405638,31.797455,-22.736176,,,,,,
1478277065.47,1.281162,-1.416409,-2.943253,0.169202,0.158306,0.567354,0.147370,0.988106,-0.043918,-0.280884,-0.041802,0.265827,22.157295,31.047825,-23.049944,,,,,,
1478277065.49,1.327305,-1.405822,-2.897579,-0.350349,-0.041352,0.528239,0.159383,0.986423,-0.039594,-0.595967,-0.028979,0.049222,22.157295,31.047825,-23.049944,,,,,,
1478277065.51,1.352678,-1.399563,-2.865348,-0.004602,-0.419167,0.188184,0.166360,0.985375,-0.036873,-0.739999,0.032889,-0.286171,22.878174,30.625721,-22.909983,,,,,,
1478277065.53,1.320485,-1.402100,-2.890104,0.195966,-0.327126,-0.381685,0.162665,0.985804,-0.041589,-0.696875,0.174199,-0.157584,22.878174,30.625721,-22.909983,,,,,,
1478277065.55,1.280517,-1.414439,-2.923102,0.006188,-0.327982,-0.726415,0.149206,0.987801,-0.044571,-0.363196,0.195030,-0.003922,22.448191,30.641535,-23.310690,,,,,,
1478277065.57,1.280983,-1.432457,-2.916829,-0.554226,-0.269494,-0.840276,0.132147,0.990446,-0.039408,-0.206702,0.391054,0.528391,21.500559,31.199760,-23.463037,,,,,,
1478277065.59,1.425429,-1.458388,-2.769234,-1.393728,0.101965,-1.146215,0.110989,0.993689,-0.016249,-0.348660,0.307291,0.402281,19.655756,30.315905,-26.976025,,,,,,
1478277065.62,1.818748,-1.486766,-2.379355,-1.910976,0.212912,-1.573803,0.081364,0.996472,0.020598,-0.319035,0.304508,0.365434,19.655756,30.315905,-26.976025,,,,,,
1478277065.64,2.556647,-1.490353,-1.640999,-2.339088,0.012697,-1.784647,0.044369,0.996766,0.066997,-0.065655,0.251616,0.127614,17.632166,33.762180,-24.131525,,,,,,
1478277065.66,3.068468,-1.452656,-1.128608,-2.392167,0.288769,-1.609888,0.008611,0.993030,0.117550,0.380183,0.409635,0.118488,17.632166,33.762180,-24.131525,,,,,,
1478277065.68,-3.002032,-1.403136,-0.930650,-2.181994,1.059858,-1.281173,-0.023214,0.985978,0.165253,0.714055,0.544784,-0.224762,15.860943,36.380573,-21.400780,,,,,,
1478277065.70,-2.887677,-1.350206,-0.844400,-2.444366,1.872619,-1.144048,-0.054963,0.975768,0.211790,0.829087,0.417451,-0.330671,14.947951,38.447365,-18.206257,,,,,,
1478277065.72,-2.852446,-1.300504,-0.818265,-1.990209,-0.632321,-0.896013,-0.076135,0.963693,0.255929,0.108361,0.145224,-0.783898,14.718760,39.333477,-16.411720,,,,,,
1478277065.74,-2.828171,-1.255072,-0.786459,-1.934406,0.294963,-1.118008,-0.095734,0.950572,0.295378,-0.318848,0.146627,-0.099623,14.718760,39.333477,-16.411720,,,,,,
1478277065.76,-2.802127,-1.212726,-0.762121,-1.658128,-0.191278,-0.862390,-0.116700,0.936575,0.330467,-0.042785,0.169596,-0.229561,13.303284,40.728775,-14.046287,,,,,,
1478277065.79,-2.806758,-1.176644,-0.751716,-1.439084,-1.012341,-0.792541,-0.126196,0.923322,0.362699,-0.033289,0.182848,-0.261792,12.091658,41.800991,-11.814302,,,,,,
1478277065.81,-2.808646,-1.145066,-0.724209,-1.111331,-1.407615,-1.030375,-0.134976,0.910737,0.390307,-0.078418,0.252425,-0.553637,11.383979,42.211449,-11.032089,,,,,,
1478277065.83,-2.804337,-1.119099,-0.684737,-0.780128,-1.521503,-1.212212,-0.144435,0.899707,0.411904,0.264812,-0.111423,-0.490624,9.475632,42.921852,-10.051669,,,,,,
1478277065.85,-2.803775,-1.096623,-0.645483,-0.709778,-1.669054,-1.047314,-0.151331,0.889670,0.430796,0.326838,-0.231574,-0.429392,8.412481,43.209793,-9.759745,,,,,,
1478277065.87,-2.808626,-1.078552,-0.616887,-0.502743,-1.245921,-0.763277,-0.154470,0.881275,0.446648,0.350271,-0.260333,-0.397240,8.412481,43.209793,-9.759745,,,,,,
1478277065.89,-2.812026,-1.068873,-0.597024,-0.140710,-0.810297,-0.445002,-0.155704,0.876659,0.455221,0.310031,-0.258556,-0.402486,6.657386,43.628120,-9.239876,,,,,,
1478277065.91,-2.812842,-1.069471,-0.584418,0.274445,-0.419410,-0.162304,-0.155163,0.876947,0.454851,0.258587,-0.282312,-0.443254,5.720758,43.779144,-9.152499,,,,,,
1478277065.93,-2.810857,-1.079675,-0.574896,0.659581,-0.279300,0.017541,-0.153152,0.881804,0.446056,0.235153,-0.374785,-0.478923,5.543422,43.753242,-9.382593,,,,,,
1478277065.95,-2.812425,-1.098269,-0.567781,1.014783,-0.420991,0.229606,-0.147126,0.890421,0.430703,0.246506,-0.470591,-0.508370,5.499191,43.524490,-10.415687,,,,,,
1478277065.98,-2.819603,-1.126250,-0.567104,1.408281,-0.280369,0.522388,-0.136091,0.902806,0.407948,0.255506,-0.529683,-0.468494,5.499191,43.524490,-10.415687,,,,,,
1478277066.00,-2.829738,-1.165125,-0.576511,1.844134,0.048337,0.878786,-0.121084,0.918838,0.375601,0.210058,-0.513015,-0.411993,5.943845,42.996250,-12.210731,,,,,,
1478277066.02,-2.849863,-1.212013,-0.604013,1.979406,0.386589,1.251639,-0.100990,0.936325,0.336299,-0.027077,-0.012237,-0.004100,6.474120,42.563934,-13.397982,,,,,,
1478277066.04,-2.895032,-1.256455,-0.662526,1.602602,0.477248,1.507420,-0.075464,0.951000,0.299839,-0.424322,0.477070,0.447063,8.237158,41.377522,-15.910964,,,,,,
1478277066.06,-2.949312,-1.285911,-0.725983,0.821973,0.135215,0.768524,-0.053707,0.959694,0.275868,-0.446079,0.468376,0.471035,9.327877,40.752941,-16.890749,,,,,,
1478277066.08,-2.923323,-1.290066,-0.698027,0.023264,-0.104146,-0.968422,-0.059994,0.960853,0.270484,-1.240146,1.318550,1.084390,10.012468,40.215996,-17.763237,,,,,,
1478277066.10,-2.832291,-1.276793,-0.595364,-0.412421,-0.440790,-1.620141,-0.088209,0.957092,0.276034,-0.361498,0.551637,0.670651,10.012468,40.215996,-17.763237,,,,,,
1478277066.12,-2.746096,-1.257108,-0.509938,-0.341954,0.881582,-1.184253,-0.118881,0.951202,0.284749,0.248413,-0.283828,0.316325,8.011294,40.760715,-17.535458,,,,,,
1478277066.15,-2.700127,-1.257132,-0.499317,0.261702,1.948932,0.522894,-0.131831,0.951209,0.278965,0.572764,-0.112434,-0.248295,-2.886750,44.366611,-15.493286,,,,,,
1478277066.17,-2.715143,-1.270902,-0.560406,0.170373,1.882633,1.165897,-0.122197,0.955368,0.268961,0.496694,0.388840,-0.557658,-1.662462,44.315418,-15.816175,,,,,,
1478277066.19,-2.755124,-1.280287,-0.612240,0.088025,-0.465141,0.541983,-0.107965,0.958098,0.265314,0.320230,0.476945,-0.815592,-1.662462,44.315418,-15.816175,,,,,,
1478277066.21,-2.790715,-1.282451,-0.623736,0.120202,-1.122704,0.074102,-0.097743,0.958716,0.267040,0.018443,-0.438879,-0.216152,0.006462,44.259239,-16.058975,,,,,,
1478277066.23,-2.804860,-1.295228,-0.638144,0.693516,0.617696,0.642319,-0.089901,0.962271,0.256813,0.010601,-0.442434,-0.205925,0.006462,44.259239,-16.058975,,,,,,
1478277066.25,-2.824609,-1.319706,-0.691568,1.016930,2.081354,1.146272,-0.077445,0.968642,0.236082,0.097862,-0.530074,-0.465971,0.552541,44.004639,-16.734924,,,,,,
1478277066.27,-2.851863,-1.347407,-0.771428,0.839551,2.211995,1.255326,-0.063291,0.975152,0.212303,0.196958,0.132560,-0.635994,1.743912,43.735489,-17.347534,,,,,,
1478277066.29,-2.920023,-1.366687,-0.865692,0.581009,0.479290,1.018976,-0.044545,0.979242,0.197740,-0.002163,0.507987,-0.463182,4.640347,43.106594,-18.359190,,,,,,
1478277066.32,-2.986339,-1.384218,-0.936015,0.760415,0.196457,0.675984,-0.028684,0.982645,0.183266,-0.194202,0.202887,-0.072945,4.640347,43.106594,-18.359190,,,,,,
1478277066.34,-3.022550,-1.402678,-0.987462,0.874962,0.909862,0.391403,-0.019872,0.985901,0.166143,-0.286494,0.047790,-0.187307,6.612459,42.263577,-19.668163,,,,,,
1478277066.36,-3.015327,-1.426126,-1.003715,1.186255,1.190131,0.226315,-0.018155,0.989554,0.143018,-0.137881,-0.043219,-0.344557,6.612459,42.263577,-19.668163,,,,,,
1478277066.38,-3.005217,-1.451563,-1.022059,1.139046,1.250224,0.319638,-0.016172,0.992900,0.117847,0.081540,-0.115550,-0.128025,7.687321,41.514950,-20.837118,,,,,,
1478277066.40,-3.073491,-1.469920,-1.110234,0.604223,0.688132,0.649825,-0.006853,0.994916,0.100471,0.020921,0.046145,-0.087562,8.995022,40.712280,-21.871689,,,,,,
1478277066.42,3.066005,-1.478690,-1.267502,0.336331,0.644046,0.717690,0.006946,0.995761,0.091713,0.007123,0.045300,-0.078804,9.653925,40.429863,-22.113321,,,,,,
1478277066.44,2.916459,-1.483396,-1.432224,0.326604,0.677386,0.606156,0.019486,0.996183,0.085087,-0.237519,0.086672,-0.085209,9.653925,40.429863,-22.113321,,,,,,
1478277066.46,2.773254,-1.486794,-1.587298,0.331390,0.435993,0.529254,0.030211,0.996474,0.078276,-0.230574,-0.033690,-0.110014,10.990485,39.971592,-22.321564,,,,,,
1478277066.48,2.626614,-1.487895,-1.742526,0.303988,0.384109,0.528900,0.040783,0.996566,0.072066,-0.216198,-0.096526,-0.146209,12.022458,39.538250,-22.560106,,,,,,
1478277066.51,2.474895,-1.487710,-1.903139,0.371332,0.379029,0.525354,0.051321,0.996550,0.065220,-0.226736,-0.096511,-0.139362,12.493069,39.325195,-22.676502,,,,,,
1478277066.53,2.303292,-1.486332,-2.081252,0.471949,0.195661,0.592382,0.062725,0.996435,0.056416,-0.094707,-0.110891,-0.159917,13.411408,38.824650,-23.011999,,,,,,
1478277066.55,2.112822,-1.481736,-2.275253,0.514310,0.127288,0.676633,0.076194,0.996037,0.045883,-0.103782,-0.098942,-0.097382,13.845307,38.511215,-23.280140,,,,,,
1478277066.57,1.937503,-1.473287,-2.454669,0.536819,0.193471,0.715902,0.090882,0.995250,0.034906,-0.160675,-0.051677,-0.067560,13.845307,38.511215,-23.280140,,,,,,
1478277066.59,1.793950,-1.461906,-2.604237,0.522214,0.232282,0.705571,0.105980,0.994077,0.024050,-0.194283,-0.037931,0.000898,14.794230,37.801651,-23.852404,,,,,,
1478277066.61,1.688319,-1.449754,-2.712196,0.429832,-0.053564,0.644815,0.119914,0.992683,0.014158,-0.208552,-0.087624,0.116076,15.803352,37.052097,-24.375549,,,,,,
1478277066.63,1.629951,-1.435546,-2.763623,0.104931,-0.495112,0.692360,0.134603,0.990868,0.007972,-0.339894,-0.046394,0.152337,16.166122,36.719471,-24.639565,,,,,,
1478277066.65,1.627692,-1.423172,-2.754263,-0.147306,-0.518220,0.472159,0.146851,0.989123,0.008364,-0.608750,0.043332,-0.210970,13.909257,31.287867,-16.574993,,,,,,
1478277066.68,1.616434,-1.419266,-2.758267,0.131543,-0.213087,0.007257,0.150793,0.988541,0.006887,-0.612692,0.043914,-0.209493,13.909257,31.287867,-16.574993,,,,,,
1478277066.70,1.601824,-1.423768,-2.768428,-0.059979,-0.356843,-0.298433,0.146429,0.989211,0.004545,-0.348013,0.124162,-0.063779,13.914314,31.197069,-16.741072,,,,,,
1478277066.72,1.648186,-1.432353,-2.708325,-0.570291,-0.715203,-0.497417,0.137588,0.990432,0.010669,-0.108947,0.391129,0.203747,13.728760,31.237705,-16.818312,,,,,,
1478277066.74,1.802315,-1.442353,-2.538948,-1.239287,-0.565026,-0.709507,0.124672,0.991763,0.029391,-0.261513,0.330869,0.206907,12.910645,31.716444,-16.568375,,,,,,
1478277066.76,2.097721,-1.448558,-2.236430,-1.682990,0.003676,-1.099898,0.105395,0.992538,0.061318,-0.411761,0.365753,0.163734,12.407375,32.177448,-16.056072,,,,,,
1478277066.78,2.490265,-1.443683,-1.844979,-2.002672,0.269170,-1.415822,0.076854,0.991932,0.100818,-0.238597,0.251430,0.156186,11.211411,33.431129,-14.275590,,,,,,
1478277066.80,2.833768,-1.414613,-1.505993,-2.352300,0.474330,-1.321607,0.047129,0.987828,0.148238,0.172368,0.134517,0.199586,11.211411,33.431129,-14.275590,,,,,,
1478277066.82,3.043507,-1.370538,-1.311191,-2.315843,1.128074,-1.072538,0.019480,0.980015,0.197967,0.462804,0.382930,0.056199,9.892816,34.807304,-11.735093,,,,,,
1478277066.85,-3.113349,-1.325337,-1.209925,-2.079439,1.196070,-0.867335,-0.006862,0.970026,0.242905,0.133632,0.180838,-0.526627,9.420216,35.393536,-10.280367,,,,,,
1478277066.87,-3.055270,-1.280223,-1.160142,-2.027082,0.033295,-0.766878,-0.024701,0.958080,0.285435,0.151471,0.192784,-0.569157,8.716265,36.260429,-7.505788,,,,,,
1478277066.89,-3.016270,-1.237807,-1.111570,-1.831024,-0.477707,-0.976111,-0.040857,0.945069,0.324306,-0.309637,0.120070,-0.545772,8.275598,36.588161,-6.320554,,,,,,
1478277066.91,-2.974887,-1.202221,-1.060964,-1.387262,-0.510532,-1.036210,-0.059784,0.932841,0.355292,-0.280472,0.163365,-0.349082,7.047687,37.128235,-4.353518,,,,,,
1478277066.93,-2.954509,-1.174019,-1.016582,-1.024716,-1.164786,-1.053435,-0.071877,0.922311,0.379705,-0.180167,0.199027,-0.390768,7.047687,37.128235,-4.353518,,,,,,
1478277066.95,-2.939762,-1.152745,-0.963559,-0.673690,-1.911228,-1.218326,-0.081384,0.913882,0.397739,-0.170661,0.207456,-0.408802,5.717816,37.476006,-3.159778,,,,,,
1478277066.97,-2.927912,-1.135375,-0.902245,-0.505726,-2.078961,-1.387625,-0.089445,0.906692,0.412200,-0.008761,0.070969,-0.494262,4.929499,37.611900,-2.858927,,,,,,
1478277066.99,-2.914844,-1.121096,-0.837172,-0.288662,-2.217310,-1.446137,-0.097724,0.900578,0.423568,0.097114,0.012447,-0.515197,3.114225,37.830177,-2.511549,,,,,,
1478277067.02,-2.904493,-1.109819,-0.772936,-0.162643,-2.180711,-1.379983,-0.104482,0.895618,0.432379,0.149984,-0.049686,-0.445029,3.114225,37.830177,-2.511549,,,,,,
1478277067.04,-2.891930,-1.103300,-0.714503,0.131657,-1.644859,-1.199866,-0.111346,0.892699,0.436680,0.166735,-0.075530,-0.383824,0.366033,37.965733,-2.365967,,,,,,
1478277067.06,-2.876913,-1.103872,-0.662937,0.375835,-1.445311,-0.958489,-0.117757,0.892957,0.434466,0.143697,-0.092786,-0.381762,0.366033,37.965733,-2.365967,,,,,,
1478277067.08,-2.872404,-1.108076,-0.620188,0.439476,-1.704431,-0.733168,-0.118716,0.894842,0.430308,0.104479,-0.087408,-0.435679,-1.024570,37.931084,-2.704014,,,,,,
1478277067.10,-2.878763,-1.114428,-0.582906,0.541624,-1.957988,-0.657199,-0.114498,0.897659,0.425557,-0.020130,-0.191940,-0.376012,-2.071822,37.852356,-3.167854,,,,,,
1478277067.12,-2.887033,-1.124638,-0.544982,0.753234,-1.971241,-0.600767,-0.108661,0.902111,0.417598,-0.037366,-0.250988,-0.295421,-2.567603,37.797596,-3.446414,,,,,,
1478277067.14,-2.896300,-1.141194,-0.511601,1.027623,-1.805721,-0.350199,-0.101145,0.909132,0.404041,-0.044881,-0.258009,-0.281864,-2.567603,37.797596,-3.446414,,,,,,
1478277067.16,-2.915607,-1.164531,-0.490213,1.238179,-1.874950,-0.027108,-0.088547,0.918603,0.385134,-0.049377,-0.283074,-0.293306,-3.648670,37.551090,-4.871483,,,,,,
1478277067.18,-2.948058,-1.192443,-0.480743,1.374420,-1.978230,0.173394,-0.071044,0.929274,0.362495,-0.143799,-0.180998,-0.257712,-3.648670,37.551090,-4.871483,,,,,,
1478277067.21,-2.990583,-1.223841,-0.478941,1.512355,-2.171328,0.225074,-0.051154,0.940412,0.336167,-0.278222,0.012041,-0.169571,-3.870442,37.329853,-6.215321,,,,,,
1478277067.23,-3.038938,-1.255904,-0.477532,1.464320,-2.425669,0.123368,-0.031738,0.950830,0.308084,-0.351380,0.218406,0.035331,-4.114535,37.024334,-7.706993,,,,,,
1478277067.25,-3.095432,-1.280893,-0.472550,0.896471,-3.328086,-0.046333,-0.013191,0.958271,0.285555,-0.394448,0.361187,0.254926,-4.391941,36.852749,-8.349505,,,,,,
1478277067.27,3.109874,-1.285878,-0.459362,-0.147713,-4.672230,-0.242641,0.008914,0.959684,0.280938,-0.351398,0.354463,0.418021,-4.391941,36.852749,-8.349505,,,,,,
1478277067.29,3.078298,-1.260193,-0.391899,-0.648432,-4.514792,-0.568777,0.019332,0.952149,0.305022,-0.220870,-0.216706,0.320253,-5.584552,36.699707,-8.311012,,,,,,
1478277067.31,3.051943,-1.246819,-0.336892,-0.685485,-3.018831,-0.794047,0.028501,0.947977,0.317061,-0.230039,-0.212534,0.308213,-7.537542,36.793350,-6.046769,,,,,,
1478277067.33,3.066598,-1.232676,-0.285566,-0.772535,-0.897053,-0.692819,0.024854,0.943380,0.330783,-0.308118,-0.781011,0.138242,-8.267592,36.756184,-5.268634,,,,,,
1478277067.35,3.087691,-1.218476,-0.246477,-0.680213,-0.859569,-0.549028,0.018591,0.938575,0.344575,0.083002,0.042703,-0.629716,-9.183138,36.683998,-4.133117,,,,,,
1478277067.38,3.097764,-1.208827,-0.216485,-0.236234,-0.697318,-0.472539,0.015516,0.935201,0.353777,0.025378,1.687418,-0.859071,-9.538498,36.647205,-3.623257,,,,,,
1478277067.40,-3.138061,-1.212710,-0.153681,0.288506,-0.737183,-1.445524,-0.001238,0.936569,0.350480,-0.086088,1.246490,-0.525147,-9.538498,36.647205,-3.623257,,,,,,
1478277067.42,-3.082511,-1.220809,-0.055594,0.515924,-2.048712,-1.456596,-0.020247,0.939377,0.342288,-0.355348,-0.463272,-0.172839,-10.589793,36.376652,-3.424060,,,,,,
1478277067.44,-3.052846,-1.219446,0.004539,-0.170120,-0.670526,-0.754671,-0.030504,0.938909,0.342812,-0.705992,-0.091054,-0.161659,-12.422780,35.814495,-3.181991,,,,,,
1478277067.46,-3.080103,-1.226797,0.020495,0.948283,-3.389330,0.257918,-0.020725,0.941413,0.336618,0.174854,-0.191490,-1.299829,-12.893488,35.668144,-2.944511,,,,,,
1478277067.48,3.044510,-1.273849,-0.050035,1.885931,-4.213616,1.013777,0.028362,0.956234,0.291224,-0.116085,0.270206,-0.312617,-12.696845,35.738129,-2.950377,,,,,,
1478277067.50,2.889020,-1.308005,-0.139070,1.568985,-2.749775,0.679994,0.064917,0.965669,0.251535,-0.152640,0.260772,-0.272927,-12.696845,35.738129,-2.950377,,,,,,
1478277067.52,2.784800,-1.327796,-0.194122,0.801141,-2.515326,0.184938,0.084040,0.970620,0.225462,-0.436137,0.776206,0.100145,-12.083715,35.862476,-3.872365,,,,,,
1478277067.55,2.683170,-1.348296,-0.229811,0.585363,-3.395868,0.173117,0.097654,0.975349,0.197885,-0.124707,0.034508,-0.345209,-12.070546,35.855259,-3.978797,,,,,,
1478277067.57,2.535171,-1.360984,-0.303084,1.097755,-3.734324,0.430961,0.118703,0.978070,0.171139,-0.105168,-0.173825,-0.284970,-12.359438,35.779648,-3.766910,,,,,,
1478277067.59,2.335923,-1.372468,-0.424909,1.132460,-3.712165,0.546402,0.142117,0.980397,0.136469,-0.128582,-0.176152,-0.250299,-12.332983,35.800949,-3.649395,,,,,,
1478277067.61,2.167039,-1.384412,-0.520146,0.870645,-3.475736,0.199707,0.153332,0.982681,0.104057,-0.431119,-0.069946,-0.071967,-12.210131,35.862694,-3.450897,,,,,,
1478277067.63,2.015354,-1.402399,-0.609079,1.027915,-2.629968,-0.209851,0.151311,0.985855,0.072079,-0.325826,-0.030578,-0.135494,-12.210131,35.862694,-3.450897,,,,,,
1478277067.65,1.826986,-1.417821,-0.754849,1.353985,-1.927185,-0.268587,0.147406,0.988322,0.038612,0.023996,-0.105372,0.026390,-12.977641,35.590813,-3.464608,,,,,,
1478277067.67,1.628426,-1.423899,-0.908508,0.935494,-2.422652,-0.036738,0.146126,0.989230,0.008431,0.036796,0.018033,0.169868,-13.269157,35.449623,-3.792411,,,,,,
1478277067.69,1.463978,-1.421217,-1.017566,0.682150,-2.759029,0.172690,0.148172,0.988834,-0.015888,-0.135508,0.036252,0.085010,-13.621246,35.300247,-3.934802,,,,,,
1478277067.71,1.331300,-1.416247,-1.090802,0.501183,-2.866584,0.077814,0.149541,0.988081,-0.036515,-0.344396,0.019640,0.119462,-13.621246,35.300247,-3.934802,,,,,,
1478277067.74,1.202039,-1.413941,-1.163907,0.577811,-2.529541,-0.126950,0.145712,0.987723,-0.056308,-0.254187,0.008843,0.108295,-13.946880,35.257713,-3.083304,,,,,,
1478277067.76,1.079672,-1.410903,-1.240264,0.560978,-2.028049,-0.064780,0.140394,0.987244,-0.075088,-0.140623,0.087783,0.109801,-13.946880,35.257713,-3.083304,,,,,,
1478277067.78,0.992866,-1.405552,-1.289718,0.358572,-1.693182,0.080925,0.137779,0.986378,-0.089861,-0.138008,0.088649,0.124575,-14.259893,35.161869,-2.725227,,,,,,
1478277067.80,0.941486,-1.400228,-1.305528,0.217907,-1.696721,0.159681,0.137225,0.985489,-0.099908,-0.011050,-0.018707,0.023706,-14.308871,35.153954,-2.566019,,,,,,
1478277067.82,0.901122,-1.393124,-1.309943,0.226170,-1.676960,0.289215,0.138568,0.984258,-0.109707,-0.018786,-0.063130,0.117581,-14.252319,35.209923,-2.064281,,,,,,
1478277067.84,0.881611,-1.385399,-1.298760,0.103983,-1.268280,0.371912,0.142265,0.982863,-0.117222,-0.132789,-0.018370,0.142689,-14.252319,35.209923,-2.064281,,,,,,
1478277067.86,0.883871,-1.379178,-1.274232,-0.015463,-0.920651,0.348327,0.147255,0.981697,-0.120775,-0.202461,0.046608,0.080706,-13.796932,35.424744,-1.364138,,,,,,
1478277067.88,0.891456,-1.375030,-1.248882,-0.069074,-0.762837,0.277611,0.151333,0.980899,-0.122212,-0.189785,0.063703,0.075169,-13.796932,35.424744,-1.364138,,,,,,
1478277067.91,0.900165,-1.371605,-1.225609,-0.066092,-0.629753,0.262033,0.155022,0.980227,-0.122976,-0.142495,0.071882,0.139731,-13.488267,35.556839,-0.952058,,,,,,
1478277067.93,0.913152,-1.368706,-1.199928,-0.145869,-0.537535,0.260277,0.158855,0.979649,-0.122690,-0.090221,0.034343,0.238245,-13.211365,35.668316,-0.599750,,,,,,
1478277067.95,0.938061,-1.366970,-1.165408,-0.257323,-0.355686,0.253231,0.163233,0.979299,-0.119701,-0.094599,0.034693,0.235255,-13.064892,35.725021,-0.399880,,,,,,
1478277067.97,0.969473,-1.366922,-1.126605,-0.318895,-0.294638,0.193629,0.166950,0.979290,-0.114541,-0.087863,0.045506,0.183709,-13.064892,35.725021,-0.399880,,,,,,
1478277067.99,0.999732,-1.366935,-1.089599,-0.279259,-0.287546,0.194863,0.170328,0.979292,-0.109431,-0.081110,0.170900,0.143077,-12.692129,35.860252,0.284391,,,,,,
1478277068.01,1.030190,-1.366365,-1.054282,-0.275420,-0.084504,0.207986,0.174060,0.979177,-0.104480,-0.114734,0.211558,0.167957,-12.692129,35.860252,0.284391,,,,,,
1478277068.03,1.069400,-1.365065,-1.014319,-0.335830,-0.027917,0.289518,0.179139,0.978912,-0.098189,-0.212845,0.184510,0.097487,-12.459179,35.936718,0.670768,,,,,,
1478277068.05,1.122859,-1.361882,-0.952589,-0.546251,-0.538260,0.444858,0.186936,0.978257,-0.089825,-0.342011,0.134231,0.076504,-12.082585,36.053089,1.146564,,,,,,
1478277068.08,1.180943,-1.359102,-0.873777,-0.725068,-1.104434,0.409260,0.194350,0.977676,-0.079855,-0.433974,0.091797,0.100195,-11.809746,36.125496,1.614632,,,,,,
1478277068.10,1.238565,-1.358927,-0.784980,-0.858904,-1.511660,0.250043,0.198789,0.977639,-0.068586,-0.455869,0.021414,0.153913,-11.809746,36.125496,1.614632,,,,,,
1478277068.12,1.291863,-1.361743,-0.696818,-0.885132,-1.542004,0.081613,0.199512,0.978228,-0.057140,-0.354618,-0.063753,0.270092,-11.311466,36.198349,2.976366,,,,,,
1478277068.14,1.350703,-1.366683,-0.602939,-0.975095,-1.572395,-0.036249,0.197809,0.979241,-0.044253,-0.356455,-0.116250,0.385165,-11.012147,36.127804,4.543479,,,,,,
1478277068.16,1.420291,-1.373573,-0.496349,-1.083798,-1.702826,-0.195960,0.193732,0.980615,-0.029380,-0.354864,-0.128747,0.378013,-10.913629,36.042965,5.378288,,,,,,
1478277068.18,1.497884,-1.382798,-0.380603,-1.064784,-1.637622,-0.399030,0.186396,0.982380,-0.013615,-0.186869,0.092846,0.339008,-10.826759,35.751987,7.190645,,,,,,
1478277068.20,1.582231,-1.394715,-0.262975,-0.985255,-1.405808,-0.599793,0.175162,0.984538,0.002003,-0.097296,0.225973,0.242901,-10.894264,35.545826,8.058393,,,,,,
1478277068.22,1.675738,-1.408364,-0.139045,-0.931503,-1.317990,-0.765059,0.160829,0.986837,0.016940,-0.082964,0.223673,0.227964,-10.894264,35.545826,8.058393,,,,,,
1478277068.24,1.792433,-1.423339,0.006141,-0.905486,-1.213197,-0.919631,0.143330,0.989148,0.032298,-0.085468,0.068195,0.066549,-11.245987,35.043823,9.622203,,,,,,
1478277068.27,1.932329,-1.437766,0.171526,-0.795258,-1.129815,-0.984921,0.124064,0.991165,0.046915,-0.094004,-0.072891,-0.061945,-11.831998,34.416222,11.075015,,,,,,
1478277068.29,2.060772,-1.454421,0.329564,-0.339226,-1.454415,-1.195192,0.102451,0.993236,0.054643,-0.226215,-0.105617,-0.234193,-12.164120,34.085369,11.719654,,,,,,
1478277068.31,2.197556,-1.478704,0.501822,0.002897,-1.827318,-1.545803,0.074483,0.995763,0.053938,-0.277120,0.012218,-0.215559,-12.930040,33.471004,12.634663,,,,,,
1478277068.33,2.445495,-1.505808,0.797832,0.060160,-2.479501,-1.711315,0.041643,0.997889,0.049834,-0.089922,0.072042,-0.108778,-12.930040,33.471004,12.634663,,,,,,
1478277068.35,2.973671,-1.522375,1.384979,0.021989,-2.793611,-1.731073,0.008090,0.998828,0.047722,-0.024691,0.072202,0.053627,-13.747108,32.788845,13.529129,,,,,,
1478277068.37,-2.642679,-1.515340,2.113093,-0.071504,-2.846153,-1.780856,-0.026521,0.998463,0.048671,0.035874,0.049465,0.058537,-14.029392,32.414604,14.127917,,,,,,
1478277068.39,-2.300904,-1.489395,2.511195,-0.159843,-2.476228,-1.710174,-0.060585,0.996689,0.054231,0.069939,0.051239,0.052978,-14.513948,31.582941,15.459361,,,,,,
1478277068.41,-2.145027,-1.459482,2.714402,-0.093457,-2.031869,-1.651893,-0.093268,0.993811,0.060340,0.170325,0.073999,-0.011161,-14.749724,31.143879,16.113132,,,,,,
1478277068.44,-2.070040,-1.428628,2.833091,-0.151507,-1.964306,-1.587933,-0.124396,0.989911,0.067836,0.247596,0.038302,0.098683,-15.249806,30.297272,17.223452,,,,,,
1478277068.46,-2.023416,-1.398814,2.917513,-0.049981,-1.580671,-1.507699,-0.153903,0.985247,0.074842,0.289188,0.015409,0.154422,-15.249806,30.297272,17.223452,,,,,,
1478277068.48,-1.982826,-1.372231,2.989445,0.101438,-1.335760,-1.310744,-0.180754,0.980351,0.078998,0.312864,-0.093739,0.172024,-15.730723,29.492641,18.161966,,,,,,
1478277068.50,-1.946952,-1.352222,3.053462,0.282359,-1.240485,-0.978325,-0.201678,0.976208,0.079655,0.268389,-0.212490,0.189968,-15.966440,29.164446,18.483410,,,,,,
1478277068.52,-1.919980,-1.340290,3.108379,0.354443,-1.267232,-0.590285,-0.214683,0.973551,0.078167,0.216865,-0.275324,0.168705,-16.154720,28.795296,18.894037,,,,,,
1478277068.54,-1.905416,-1.334459,-3.130698,0.357356,-1.396832,-0.348821,-0.221157,0.972202,0.076895,0.200786,-0.245640,0.147546,-16.154720,28.795296,18.894037,,,,,,
1478277068.56,-1.900487,-1.331504,-3.093576,0.339607,-1.468887,-0.215202,-0.224250,0.971506,0.076733,0.244056,-0.243967,0.246875,-15.487242,28.797745,19.441292,,,,,,
1478277068.58,-1.896336,-1.331561,-3.060897,0.362011,-1.138626,-0.053000,-0.224514,0.971520,0.075784,0.244320,-0.243980,0.247824,-15.487242,28.797745,19.441292,,,,,,
1478277068.61,-1.882659,-1.335784,-3.028820,0.420913,-0.651631,0.162020,-0.221623,0.972511,0.071448,0.254124,-0.208351,0.349161,-14.792253,28.961842,19.736504,,,,,,
1478277068.63,-1.861179,-1.344784,-2.995046,0.507978,-0.523701,0.349940,-0.214711,0.974568,0.064162,0.123158,-0.122929,0.388856,-14.204174,29.322475,19.635744,,,,,,
1478277068.65,-1.831034,-1.354795,-2.950205,0.608882,-0.755895,0.289594,-0.207109,0.976762,0.055148,-0.153334,-0.043855,0.351697,-13.866734,29.567165,19.509613,,,,,,
1478277068.67,-1.795290,-1.361972,-2.890486,0.676153,-1.237658,0.128754,-0.202108,0.978275,0.046150,-0.158335,-0.045368,0.360695,-13.866734,29.567165,19.509613,,,,,,
1478277068.69,-1.759536,-1.364705,-2.829354,0.541395,-0.935796,-0.121003,-0.201001,0.978838,0.038394,-0.122989,0.294752,0.565534,-12.676500,30.260693,19.254232,,,,,,
1478277068.71,-1.725376,-1.356893,-2.787595,0.206413,0.035625,-0.596898,-0.209745,0.977210,0.032683,-0.061755,0.206460,0.549882,-12.676500,30.260693,19.254232,,,,,,
1478277068.73,-1.704241,-1.342990,-2.771384,0.046331,0.337744,-0.667851,-0.223833,0.974164,0.030048,-0.005598,-0.089185,0.423398,-12.871286,30.298466,19.064671,,,,,,
1478277068.75,-1.669894,-1.337019,-2.751295,0.333967,0.961114,0.055154,-0.230517,0.972798,0.022919,0.195147,-0.103520,0.251495,-13.669765,30.121784,18.786810,,,,,,
1478277068.78,-1.599428,-1.352050,-2.706279,0.585108,1.407153,0.938124,-0.216917,0.976170,0.006212,0.250379,0.540919,-0.053942,-13.828547,30.321352,18.344362,,,,,,
1478277068.80,-1.518221,-1.368220,-2.647255,0.531442,0.597403,0.499789,-0.200916,0.979551,-0.010573,0.379977,1.050920,-0.402437,-13.828547,30.321352,18.344362,,,,,,
1478277068.82,-1.503479,-1.370778,-2.619083,0.036266,-1.153648,0.045628,-0.198238,0.980063,-0.013365,0.389247,-0.372305,0.543730,-13.718800,30.997429,17.265064,,,,,,
1478277068.84,-1.515565,-1.371968,-2.613337,0.242443,-0.275768,0.105670,-0.197220,0.980299,-0.010904,0.221969,-0.728544,0.122461,-13.180265,31.126276,17.451769,,,,,,
1478277068.86,-1.425848,-1.379690,-2.543871,0.748046,1.799773,0.683170,-0.187954,0.981795,-0.027436,0.212703,-0.730040,0.138993,-13.047131,31.218229,17.387444,,,,,,
1478277068.88,-1.251876,-1.396416,-2.417725,0.897766,2.378037,1.149390,-0.164749,0.984834,-0.054399,0.343125,-0.318651,-0.344939,-13.265966,31.927931,15.866632,,,,,,
1478277068.90,-1.048797,-1.413011,-2.252267,0.826095,1.510642,1.272966,-0.136206,0.987578,-0.078348,0.227987,0.334154,-0.298880,-13.197632,32.394806,14.950844,,,,,,
1478277068.92,-0.854571,-1.422418,-2.071553,0.756783,0.186323,0.961760,-0.111510,0.989012,-0.097060,-0.123567,0.537691,-0.075609,-13.197632,32.394806,14.950844,,,,,,
1478277068.94,-0.756010,-1.425847,-1.955396,0.301988,-1.203043,0.454741,-0.099091,0.989513,-0.105093,-0.517426,0.247654,0.290029,-12.456965,33.240738,13.675008,,,,,,
1478277068.97,-0.692074,-1.417820,-1.886556,0.838341,0.825514,-0.045615,-0.097239,0.988322,-0.117321,-0.421758,0.011113,0.165508,-14.482009,32.396248,11.299753,,,,,,
1478277068.99,-0.596420,-1.399577,-1.832293,0.938592,2.517928,-0.254243,-0.095702,0.985378,-0.140967,-0.531022,-0.143566,0.088660,-14.631778,32.531033,10.703863,,,,,,
1478277069.01,-0.511993,-1.388661,-1.773958,0.588069,0.337276,0.283963,-0.088738,0.983459,-0.157903,0.273217,-0.010269,0.064474,-15.284766,32.763271,8.937219,,,,,,
1478277069.03,-0.457884,-1.383786,-1.712422,0.378464,-0.592263,0.375326,-0.082187,0.982564,-0.166771,0.266666,-0.009374,0.073341,-15.284766,32.763271,8.937219,,,,,,
1478277069.05,-0.409836,-1.380944,-1.658336,0.333763,-0.035693,0.342573,-0.075195,0.982032,-0.173086,0.048324,0.065194,0.169561,-14.854456,33.059238,8.565138,,,,,,
1478277069.07,-0.368260,-1.376605,-1.616336,0.297303,0.055622,0.259652,-0.069469,0.981204,-0.180035,-0.079060,-0.001193,0.140958,-14.633143,33.190369,8.438021,,,,,,
1478277069.09,-0.329749,-1.373913,-1.581750,0.214435,0.294268,0.238877,-0.063341,0.980681,-0.185075,-0.056212,0.035676,0.074922,-14.363631,33.394295,8.089303,,,,,,
1478277069.11,-0.293467,-1.369829,-1.550705,0.320575,0.221404,0.221947,-0.057744,0.979874,-0.191083,-0.061809,0.036484,0.080930,-14.363631,33.394295,8.089303,,,,,,
1478277069.14,-0.254222,-1.362456,-1.512486,0.498154,0.034231,0.267795,-0.052018,0.978375,-0.200189,0.038987,0.017291,0.044977,-14.067960,33.667419,7.451646,,,,,,
1478277069.16,-0.209684,-1.351898,-1.468535,0.627635,0.099738,0.350612,-0.045201,0.976137,-0.212398,0.059056,-0.013704,0.100124,-14.067960,33.667419,7.451646,,,,,,
1478277069.18,-0.162194,-1.340157,-1.419864,0.647668,-0.077434,0.445894,-0.036915,0.973521,-0.225599,0.091603,-0.022196,0.099867,-13.744194,33.938103,6.799407,,,,,,
1478277069.20,-0.112434,-1.327809,-1.364592,0.668680,-0.211305,0.579109,-0.026995,0.970624,-0.239084,0.099566,-0.039654,0.161142,-13.519417,34.094715,6.457982,,,,,,
1478277069.22,-0.057082,-1.314889,-1.304937,0.655789,-0.035184,0.657924,-0.014441,0.967434,-0.252711,0.074377,-0.030132,0.232997,-12.874369,34.458885,5.810804,,,,,,
1478277069.24,-0.001250,-1.301900,-1.249396,0.609122,0.171697,0.668707,-0.000332,0.964065,-0.265668,0.023297,0.008332,0.290753,-12.874369,34.458885,5.810804,,,,,,
1478277069.26,0.049954,-1.289641,-1.200538,0.541717,0.193988,0.624137,0.013855,0.960736,-0.277119,-0.138458,-0.039807,0.400258,-11.812254,35.000206,4.731363,,,,,,
1478277069.28,0.092906,-1.278651,-1.158889,0.442373,0.107607,0.575302,0.026719,0.957628,-0.286765,-0.261109,-0.054094,0.452613,-11.812254,35.000206,4.731363,,,,,,
1478277069.31,0.128624,-1.271423,-1.122219,0.158141,-0.028830,0.526084,0.037830,0.955521,-0.292485,-0.272220,-0.051987,0.458333,-11.170560,35.283485,4.150169,,,,,,
1478277069.33,0.154109,-1.269316,-1.091800,0.012536,-0.232676,0.332935,0.045579,0.954898,-0.293415,-0.492845,0.103452,0.259388,-10.599363,35.475559,4.008487,,,,,,
1478277069.35,0.158829,-1.268836,-1.083119,-0.015494,-0.121798,0.001935,0.047036,0.954755,-0.293649,-0.380014,0.213000,0.208276,-10.445375,35.518005,4.036724,,,,,,
1478277069.37,0.143629,-1.270273,-1.096069,-0.029577,-0.165923,-0.298337,0.042371,0.955182,-0.292972,-0.218839,0.311588,0.175449,-10.445375,35.518005,4.036724,,,,,,
1478277069.39,0.110286,-1.272278,-1.124347,-0.120026,-0.346177,-0.427790,0.032370,0.955773,-0.292318,0.070749,0.385413,0.374685,-10.757665,35.408951,4.172343,,,,,,
1478277069.41,0.077157,-1.284028,-1.150628,-0.837701,-0.345932,-0.402094,0.021802,0.959163,-0.282013,0.083071,0.451817,0.684296,-10.757665,35.408951,4.172343,,,,,,
1478277069.43,0.037209,-1.313487,-1.187952,-1.571848,-0.136897,-0.710270,0.009467,0.967078,-0.254304,-0.293891,0.435418,0.618302,-11.172826,35.185158,4.909439,,,,,,
1478277069.45,-0.055506,-1.350252,-1.279943,-1.862378,-0.174126,-1.176435,-0.012136,0.975779,-0.218424,-0.194605,0.205648,0.462183,-12.002531,34.608627,6.716546,,,,,,
1478277069.47,-0.223296,-1.393354,-1.446857,-2.429687,-0.185967,-1.251948,-0.039088,0.984298,-0.172130,-0.167654,0.197129,0.415889,-12.652966,34.135170,7.849983,,,,,,
1478277069.50,-0.500048,-1.437096,-1.724404,-2.726241,-0.021045,-1.135637,-0.063914,0.991075,-0.116981,0.188075,-0.052568,0.297721,-12.652966,34.135170,7.849983,,,,,,
1478277069.52,-0.957201,-1.467922,-2.196304,-2.746497,0.929029,-0.864602,-0.083960,0.994713,-0.059132,0.570243,0.227028,0.020848,-13.890390,32.882301,10.617951,,,,,,
1478277069.54,-1.474125,-1.472668,-2.734607,-2.267017,0.686206,-0.603774,-0.097514,0.995189,-0.009456,0.305354,0.176350,-0.273075,-15.092588,31.439341,13.065657,,,,,,
1478277069.56,-1.843575,-1.452879,-3.128531,-1.820580,0.869875,-0.881228,-0.113295,0.993056,0.031694,-0.103181,0.094759,-0.553392,-15.549604,30.799604,14.018698,,,,,,
1478277069.58,-1.988257,-1.418012,2.981200,-1.828675,-0.168481,-1.336374,-0.139121,0.988351,0.061704,-0.131265,0.057944,-0.037443,-17.146782,29.490635,14.940549,,,,,,
1478277069.60,-2.162418,-1.374500,2.864691,-1.702670,-2.651038,-1.385895,-0.161889,0.980796,0.108774,-0.186484,0.217965,0.031042,-19.086021,33.351147,11.632586,,,,,,
1478277069.62,-2.216404,-1.336571,2.833735,-1.057605,-0.794948,-1.210967,-0.185378,0.972694,0.139645,-0.059953,0.145378,-0.096844,-19.086021,33.351147,11.632586,,,,,,
1478277069.64,-2.247355,-1.304585,2.832965,-0.921506,-1.864453,-1.194563,-0.205130,0.964775,0.164717,0.129630,0.080864,-0.266264,-19.735874,31.946884,14.205080,,,,,,
1478277069.67,-2.285573,-1.271805,2.841467,-0.866988,-2.201691,-1.249742,-0.222461,0.955634,0.193067,0.146960,0.090005,-0.294614,-20.131947,30.731079,16.192532,,,,,,
1478277069.69,-2.313982,-1.243390,2.855908,-0.643923,-1.852927,-1.077954,-0.236791,0.946880,0.217599,0.300603,-0.056819,-0.213936,-20.150669,30.102282,17.311718,,,,,,
1478277069.71,-2.324987,-1.222745,2.877143,-0.264908,-1.185770,-0.871056,-0.248578,0.940039,0.233528,0.373898,-0.233084,0.037407,-20.117661,29.096424,18.988689,,,,,,
1478277069.73,-2.309473,-1.211197,2.911448,0.234701,-0.592425,-0.735203,-0.260180,0.936038,0.236937,0.331820,-0.220065,0.024339,-20.117661,29.096424,18.988689,,,,,,
1478277069.75,-2.275033,-1.207545,2.958143,0.567793,-0.374494,-0.594847,-0.270788,0.934746,0.230050,0.342428,-0.218774,0.031227,-20.339584,28.620499,19.469482,,,,,,
1478277069.77,-2.235846,-1.206795,3.007744,0.637337,-0.342482,-0.533444,-0.280144,0.934480,0.219697,0.318627,-0.189530,-0.148377,-20.497517,28.575151,19.370203,,,,,,
1478277069.79,-2.197526,-1.206757,3.058185,0.708859,-0.473676,-0.477838,-0.288384,0.934466,0.208824,0.356972,-0.239154,-0.167458,-20.777847,28.604279,19.025475,,,,,,
1478277069.81,-2.157195,-1.210013,3.113504,0.953120,-0.535946,-0.332323,-0.294033,0.935621,0.195342,0.359997,-0.355161,-0.156768,-20.854721,28.660639,18.855793,,,,,,
1478277069.84,-2.102540,-1.221216,-3.103891,1.346670,-0.158696,0.022037,-0.295212,0.939517,0.173662,0.365326,-0.478304,-0.093508,-20.832888,29.072765,18.238903,,,,,,
1478277069.86,-2.026226,-1.242833,-3.026688,1.648198,0.343774,0.527785,-0.289283,0.946701,0.141682,0.370581,-0.506103,-0.031300,-20.832888,29.072765,18.238903,,,,,,
1478277069.88,-1.935133,-1.273652,-2.942967,1.669511,0.621410,1.003724,-0.273572,0.956176,0.104330,0.312376,-0.398986,0.056894,-20.603954,30.146889,16.689358,,,,,,
1478277069.90,-1.849388,-1.307087,-2.864497,1.300715,0.292567,1.242582,-0.250613,0.965430,0.071683,0.009174,0.273965,0.386630,-20.311481,30.877865,15.681000,,,,,,
1478277069.92,-1.809219,-1.338357,-2.815480,0.722773,-0.778897,1.245849,-0.223836,0.973107,0.054402,-0.368785,0.540748,0.580134,-19.242390,32.272316,14.146400,,,,,,
1478277069.94,-1.797057,-1.357761,-2.780213,0.481572,-1.049036,0.464049,-0.206039,0.977394,0.047431,-0.386582,0.536461,0.587106,-19.242390,32.272316,14.146400,,,,,,
1478277069.96,-1.795907,-1.358586,-2.754855,0.152139,-1.223615,-0.265375,-0.205307,0.977568,0.047014,-0.269394,0.244219,0.870681,-17.557983,33.209763,14.167617,,,,,,
1478277069.98,-1.776668,-1.348503,-2.710718,0.482062,-0.790671,-0.703528,-0.215812,0.975394,0.045068,-0.060601,0.185372,0.548774,-17.557983,33.209763,14.167617,,,,,,
1478277070.01,-1.716025,-1.333172,-2.658378,0.292789,1.105354,-0.800290,-0.232917,0.971900,0.034066,0.090491,0.067468,0.364860,-17.676512,33.058578,14.372327,,,,,,
1478277070.03,-1.655693,-1.323975,-2.632345,0.291075,1.915452,-0.178454,-0.243443,0.969694,0.020717,0.074391,0.134844,0.258397,-19.955658,31.799437,19.237812,,,,,,
1478277070.05,-1.574438,-1.331805,-2.591833,0.587877,1.866014,0.628278,-0.236721,0.971577,0.000862,0.127910,0.232341,-0.055382,-20.528313,31.922150,18.414413,,,,,,
1478277070.07,-1.476354,-1.349708,-2.515508,0.869539,0.490541,0.968526,-0.218315,0.975659,-0.020680,0.374336,0.374469,-0.370235,-20.528313,31.922150,18.414413,,,,,,
1478277070.09,-1.431298,-1.364946,-2.446016,0.348907,-1.989160,0.658880,-0.202414,0.978888,-0.028421,0.205236,-0.162207,0.487588,-19.870369,33.271652,16.664076,,,,,,
1478277070.11,-1.423278,-1.375236,-2.402295,0.456476,-0.829001,0.485513,-0.192206,0.980939,-0.028561,0.195029,-0.164258,0.487729,-19.870369,33.271652,16.664076,,,,,,
1478277070.13,-1.334377,-1.384219,-2.326549,0.666253,1.308234,0.638682,-0.180337,0.982645,-0.043448,0.229012,-0.565760,0.279028,-18.507967,33.805450,17.151453,,,,,,
1478277070.15,-1.165394,-1.394713,-2.190261,1.098126,1.720702,0.941527,-0.160976,0.984537,-0.069087,0.498623,-0.174814,-0.483525,-18.431709,34.597397,15.582624,,,,,,
1478277070.17,-0.951838,-1.404956,-1.999057,0.942773,0.728633,1.348927,-0.134455,0.986280,-0.095778,0.169352,0.379397,-0.170717,-18.238384,35.168495,14.493588,,,,,,
1478277070.20,-0.793790,-1.418070,-1.825857,0.398449,-1.327123,1.133869,-0.108473,0.988360,-0.106668,-0.482576,0.451841,0.123193,-18.238384,35.168495,14.493588,,,,,,
1478277070.22,-0.729558,-1.422992,-1.738584,0.320962,-0.624056,0.268045,-0.098159,0.989097,-0.109783,-0.694886,0.051614,0.336223,-16.720102,36.222229,13.708179,,,,,,
1478277070.24,-0.695202,-1.411328,-1.706877,0.654672,0.546237,-0.340451,-0.101713,0.987312,-0.121941,-0.366899,-0.045189,0.193703,-15.953753,36.569248,13.700134,,,,,,
1478277070.26,-0.652648,-1.394720,-1.687475,0.723371,1.267765,-0.330899,-0.106378,0.984539,-0.139167,-0.031958,-0.080013,0.218162,-16.266823,36.623322,13.177577,,,,,,
1478277070.28,-0.605656,-1.380165,-1.660369,0.626619,0.615464,-0.168246,-0.107871,0.981885,-0.155776,0.171546,-0.012769,0.092757,-17.064075,36.748146,11.743803,,,,,,
1478277070.30,-0.573397,-1.370278,-1.637565,0.420305,0.506550,-0.014925,-0.108051,0.979964,-0.167321,0.290882,0.016161,0.183221,-17.064075,36.748146,11.743803,,,,,,
1478277070.32,-0.538153,-1.366177,-1.608981,0.231440,0.259219,0.224525,-0.104147,0.979138,-0.174474,0.279624,-0.067685,0.179494,-17.332056,36.886032,10.887890,,,,,,
1478277070.34,-0.494814,-1.366906,-1.569992,0.124265,0.282832,0.392876,-0.096151,0.979286,-0.178194,0.021307,0.029396,0.109682,-17.290482,36.978725,10.636677,,,,,,
1478277070.37,-0.445436,-1.368141,-1.526898,0.154145,0.320265,0.381370,-0.086718,0.979536,-0.181631,0.005083,0.065752,-0.012003,-16.956347,37.223515,10.315914,,,,,,
1478277070.39,-0.391528,-1.365592,-1.475757,0.418386,0.111051,0.416506,-0.077758,0.979019,-0.188347,-0.003877,0.066269,-0.005287,-16.779497,37.352661,10.136715,,,,,,
1478277070.41,-0.328567,-1.358629,-1.412785,0.577269,0.061649,0.486798,-0.067951,0.977577,-0.199314,0.010792,-0.027763,0.048450,-16.303335,37.710796,9.571980,,,,,,
1478277070.43,-0.261185,-1.349075,-1.344065,0.652117,-0.012897,0.571017,-0.056786,0.975520,-0.212450,0.007012,-0.023555,0.084948,-16.303335,37.710796,9.571980,,,,,,
1478277070.45,-0.191964,-1.338356,-1.271857,0.680071,-0.086113,0.665819,-0.043948,0.973107,-0.226122,0.003894,-0.023888,0.143465,-15.657829,38.167690,8.808265,,,,,,
1478277070.47,-0.124280,-1.326518,-1.199158,0.668334,-0.151724,0.727724,-0.029981,0.970312,-0.239990,-0.015262,-0.013098,0.179901,-15.641562,37.852821,12.497952,,,,,,
1478277070.49,-0.058735,-1.313717,-1.130003,0.684451,-0.004465,0.760476,-0.014925,0.967137,-0.253819,-0.003599,0.005687,0.191563,-14.714992,38.461975,11.740492,,,,,,
1478277070.51,0.004597,-1.299206,-1.066501,0.711352,0.155167,0.738024,0.001233,0.963345,-0.268261,-0.038083,0.047031,0.218640,-14.714992,38.461975,11.740492,,,,,,
1478277070.54,0.056102,-1.284228,-1.017150,0.656005,0.176637,0.619340,0.015850,0.959220,-0.282217,-0.083751,-0.018241,0.461493,-13.406152,39.321667,10.381474,,,,,,
1478277070.56,0.096930,-1.273032,-0.975175,0.334990,-0.066367,0.622336,0.028393,0.955995,-0.292006,-0.096295,-0.015016,0.471282,-13.406152,39.321667,10.381474,,,,,,
1478277070.58,0.134617,-1.270260,-0.933673,-0.079532,-0.102974,0.544344,0.039731,0.955178,-0.293354,-0.286938,0.053016,0.499363,-12.646684,39.726063,9.777269,,,,,,
1478277070.60,0.157643,-1.271238,-0.905537,-0.053691,-0.201728,0.254304,0.046328,0.955467,-0.291439,-0.483721,0.119561,0.162732,-12.266729,39.841679,9.790901,,,,,,
1478277070.62,0.152440,-1.271437,-0.906777,0.004247,-0.211507,-0.177473,0.044782,0.955526,-0.291488,-0.363996,0.238643,0.199524,-11.850201,39.927013,9.954896,,,,,,
1478277070.64,0.117741,-1.273359,-0.936707,-0.074477,-0.306963,-0.547510,0.034427,0.956091,-0.291042,-0.142093,0.369242,0.361354,-11.850201,39.927013,9.954896,,,,,,
1478277070.66,0.067089,-1.282215,-0.981270,-0.634081,-0.417681,-0.674267,0.019079,0.958649,-0.283953,-0.045766,0.360901,0.650850,-12.517772,39.629211,10.321060,,,,,,
1478277070.68,0.005908,-1.307641,-1.036738,-1.416986,-0.333869,-0.833895,0.001537,0.965574,-0.260124,-0.235683,0.335344,0.588752,-12.517772,39.629211,10.321060,,,,,,
1478277070.70,-0.096853,-1.339853,-1.135362,-1.648528,-0.398552,-1.194355,-0.022135,0.973451,-0.227823,-0.252508,0.299498,0.448572,-13.353529,38.910133,11.890278,,,,,,
1478277070.73,-0.266850,-1.375618,-1.296577,-2.145125,-0.617335,-1.286528,-0.051141,0.981013,-0.187078,0.193353,0.137197,0.578832,-14.612813,37.660072,14.208391,,,,,,
1478277070.75,-0.519813,-1.415062,-1.552297,-2.671245,0.298066,-1.155843,-0.077044,0.987898,-0.134618,0.219256,0.130312,0.526372,-15.270954,36.809692,15.669659,,,,,,
1478277070.77,-0.858171,-1.442866,-1.906750,-2.289556,0.650553,-0.900467,-0.096535,0.991828,-0.083416,0.504036,0.239831,0.232037,-15.270954,36.809692,15.669659,,,,,,
1478277070.79,-1.217002,-1.450319,-2.278149,-1.970626,0.306279,-0.757996,-0.112743,0.992751,-0.041640,0.169200,0.195039,-0.233019,-17.334860,34.059517,19.316978,,,,,,
1478277070.81,-1.548746,-1.440768,-2.613585,-1.771912,-0.019468,-0.807179,-0.129631,0.991558,-0.002859,0.035347,0.132374,-0.159769,-17.334860,34.059517,19.316978,,,,,,
1478277070.83,-1.796628,-1.418767,-2.897504,-1.930402,2.475722,-0.828164,-0.147599,0.988466,0.033911,0.053315,0.135466,-0.196539,-18.229918,32.414948,21.228157,,,,,,
1478277070.85,-1.896040,-1.388978,-2.994805,-1.162848,-0.655479,-1.212419,-0.171339,0.983517,0.057779,0.142484,0.155384,0.237143,-19.920399,30.734365,22.187160,,,,,,
1478277070.87,-1.990638,-1.358216,-3.063454,-1.009866,-1.743657,-1.116142,-0.192659,0.977490,0.086000,0.047670,0.170444,-0.119233,-20.174366,29.947060,23.018734,,,,,,
1478277070.90,-2.057434,-1.329248,-3.093955,-0.833304,-1.711656,-1.124117,-0.211437,0.970969,0.111866,0.071330,0.149011,-0.078633,-20.174366,29.947060,23.018734,,,,,,
1478277070.92,-2.115450,-1.298349,-3.112111,-0.946335,-1.957859,-1.126970,-0.230154,0.963115,0.139421,0.159643,0.039662,-0.161989,-19.886032,28.524256,24.992123,,,,,,
1478277070.94,-2.158973,-1.268370,-3.119873,-0.767835,-1.574001,-1.136118,-0.247787,0.954617,0.165254,0.285965,-0.061794,-0.209611,-19.358704,27.056923,26.960289,,,,,,
1478277070.96,-2.190359,-1.242099,-3.119545,-0.637464,-1.450986,-0.963512,-0.262810,0.946464,0.187449,0.414040,-0.161307,-0.185313,-19.150782,26.373173,27.774033,,,,,,
1478277070.98,-2.211985,-1.221670,-3.112877,-0.381142,-1.274265,-0.755223,-0.274135,0.939672,0.204612,0.343273,-0.155523,-0.168251,-18.641327,25.269291,29.114555,,,,,,
1478277071.00,-2.226083,-1.208265,-3.098687,-0.079357,-1.303156,-0.567120,-0.281186,0.935002,0.216114,0.350324,-0.150853,-0.179752,-18.327980,24.915054,29.614504,,,,,,
1478277071.02,-2.234426,-1.202470,-3.077816,0.240257,-1.289840,-0.371672,-0.283637,0.932931,0.221787,0.329444,-0.170297,-0.189804,-18.327980,24.915054,29.614504,,,,,,
1478277071.04,-2.230778,-1.203568,-3.047392,0.558740,-1.035732,-0.205198,-0.283635,0.933326,0.220122,0.348302,-0.370918,-0.166976,-17.462545,24.670612,30.333380,,,,,,
1478277071.07,-2.208848,-1.212486,-3.007122,0.942219,-0.550017,0.011074,-0.281697,0.936491,0.208884,0.409199,-0.462431,-0.151419,-16.607487,25.054161,30.498755,,,,,,
1478277071.09,-2.162545,-1.230567,-2.953318,1.355295,0.024603,0.304412,-0.276963,0.942678,0.186144,0.416428,-0.479177,-0.124926,-14.004602,27.314800,25.378580,,,,,,
1478277071.11,-2.088441,-1.257765,-2.883221,1.688077,0.539845,0.673796,-0.267600,0.951404,0.152382,0.379309,-0.423420,-0.041084,-13.752473,28.572445,24.099472,,,,,,
1478277071.13,-1.994871,-1.292568,-2.800770,1.742304,0.724453,1.115006,-0.250324,0.961543,0.113014,0.317478,-0.305629,0.131905,-13.752473,28.572445,24.099472,,,,,,
1478277071.15,-1.912242,-1.332091,-2.726229,1.334354,0.270155,1.535351,-0.222795,0.971645,0.079174,0.161425,0.037571,0.364186,-13.350981,30.257927,22.192537,,,,,,
1478277071.17,-1.873748,-1.368400,-2.683341,0.739105,-0.424985,1.296448,-0.191863,0.979588,0.059971,-0.772706,0.847759,0.913204,-12.797245,31.069645,21.382402,,,,,,
1478277071.19,-1.882081,-1.378551,-2.669603,-0.061084,-1.391460,-0.161861,-0.181881,0.981578,0.058519,-0.782688,0.845769,0.914656,-11.290257,32.089001,20.715345,,,,,,
1478277071.21,-1.912390,-1.360763,-2.672260,-0.221023,-1.045987,-1.025395,-0.196446,0.978024,0.069843,-0.774211,0.530002,1.253369,-10.916555,32.046551,20.979673,,,,,,
1478277071.23,-1.884274,-1.338458,-2.637256,0.054292,0.226973,-1.165026,-0.219033,0.973131,0.071003,0.158898,-0.075273,0.413601,-11.342710,31.590836,21.439716,,,,,,
1478277071.26,-1.842943,-1.317024,-2.607876,0.074765,0.700480,-0.892464,-0.241818,0.967972,0.067484,0.194958,-0.461121,0.234686,-11.342710,31.590836,21.439716,,,,,,
1478277071.28,-1.792311,-1.312805,-2.580142,0.393141,1.402870,0.148696,-0.248904,0.966905,0.056056,0.232425,-0.099702,-0.026332,-12.751932,31.237629,21.163609,,,,,,
1478277071.30,-1.712085,-1.331209,-2.533728,0.872001,1.739169,1.035697,-0.234937,0.971436,0.033417,0.339918,0.463653,-0.484756,-13.226099,31.313257,20.756918,,,,,,
1478277071.32,-1.618988,-1.353711,-2.460010,0.666918,0.143055,0.770866,-0.215134,0.976529,0.010376,0.305985,1.017748,-0.376205,-13.375257,32.180790,19.282080,,,,,,
1478277071.34,-1.656039,-1.357025,-2.460860,-0.164714,-2.104810,-0.099610,-0.211377,0.977238,0.018062,0.122738,0.236843,0.537770,-13.375257,32.180790,19.282080,,,,,,
1478277071.36,-1.637892,-1.353509,-2.434023,0.534677,0.732751,-0.107495,-0.215096,0.976486,0.014454,0.152322,-0.524047,0.406872,-12.253502,32.514877,19.466223,,,,,,
1478277071.38,-1.518412,-1.359290,-2.350412,0.949347,2.206157,0.528299,-0.209645,0.977716,-0.010992,0.353108,-0.832620,-0.069315,-12.253502,32.514877,19.466223,,,,,,
1478277071.40,-1.350780,-1.375388,-2.231821,1.033301,2.445375,1.121633,-0.189487,0.980968,-0.042376,0.614612,-0.607525,-0.313504,-12.975559,33.111408,17.932346,,,,,,
1478277071.43,-1.170724,-1.400369,-2.081454,0.699036,0.636955,1.679980,-0.156211,0.985512,-0.066058,0.180106,0.640205,-0.378156,-13.138451,33.597424,16.878796,,,,,,
1478277071.45,-1.033383,-1.423677,-1.927866,0.486461,-1.137016,1.233974,-0.125926,0.989197,-0.075041,-0.378545,0.383209,0.012557,-11.922001,34.619606,15.673164,,,,,,
1478277071.47,-0.908095,-1.428076,-1.789130,0.799482,0.104620,0.433026,-0.112129,0.989833,-0.087511,-0.392341,0.382573,0.025026,-11.922001,34.619606,15.673164,,,,,,
1478277071.49,-0.768740,-1.416506,-1.667637,1.093863,1.183114,0.040356,-0.106842,0.988121,-0.110462,-0.238922,-0.028114,0.003224,-10.624090,35.506012,14.585993,,,,,,
1478277071.51,-0.640079,-1.397161,-1.567038,1.222552,1.425815,0.011429,-0.103185,0.984963,-0.138565,0.082753,-0.076089,0.077713,-10.624090,35.506012,14.585993,,,,,,
1478277071.53,-0.531958,-1.376550,-1.480657,1.126806,0.817169,0.152023,-0.097907,0.981194,-0.166353,0.353202,-0.004570,0.061648,-11.195923,36.027225,12.766750,,,,,,
1478277071.55,-0.453140,-1.365587,-1.410014,0.565123,0.343543,0.466326,-0.089210,0.979018,-0.183207,0.390708,-0.032561,0.155223,-11.254272,36.489872,11.319453,,,,,,
1478277071.57,-0.370403,-1.364301,-1.337179,0.225664,0.674947,0.675496,-0.074219,0.978756,-0.191126,0.118546,-0.016201,0.236826,-11.013515,36.667908,10.975735,,,,,,
1478277071.60,-0.287124,-1.364684,-1.267837,0.226773,0.703305,0.581577,-0.057958,0.978834,-0.196278,-0.153041,0.069979,0.221074,-11.013515,36.667908,10.975735,,,,,,
1478277071.62,-0.218439,-1.361051,-1.211558,0.341438,0.617791,0.448105,-0.045121,0.978084,-0.203263,-0.135879,0.006535,0.144914,-10.303964,37.094467,10.204325,,,,,,
1478277071.64,-0.156726,-1.355092,-1.160900,0.383923,0.530515,0.456943,-0.033408,0.976826,-0.211412,-0.147592,0.007793,0.153063,-10.303964,37.094467,10.204325,,,,,,
1478277071.66,-0.094745,-1.347158,-1.105817,0.486028,0.284096,0.552958,-0.020981,0.975097,-0.220784,-0.078079,-0.041503,0.059407,-9.948969,37.355915,9.584003,,,,,,
1478277071.68,-0.034214,-1.335606,-1.046542,0.638502,0.065454,0.620940,-0.007971,0.972470,-0.232892,-0.061883,-0.092908,0.092176,-9.357101,37.677963,8.894669,,,,,,
1478277071.70,0.022713,-1.320387,-0.988439,0.758900,0.021136,0.674787,0.005628,0.968811,-0.247737,-0.077833,-0.086594,0.145015,-8.981216,37.864002,8.482603,,,,,,
1478277071.72,0.076931,-1.301994,-0.933954,0.864195,0.120841,0.715478,0.020411,0.964090,-0.264792,-0.065241,-0.043695,0.221533,-8.981216,37.864002,8.482603,,,,,,
1478277071.74,0.126076,-1.281718,-0.886743,0.886638,0.206737,0.692531,0.035845,0.958507,-0.282806,-0.035982,0.001469,0.336243,-8.158972,38.256710,7.493642,,,,,,
1478277071.77,0.170002,-1.263344,-0.844632,0.634608,0.116878,0.720097,0.051201,0.953108,-0.298269,-0.029258,-0.016325,0.518178,-7.339741,38.623241,6.377540,,,,,,
1478277071.79,0.211560,-1.255246,-0.799906,0.021659,-0.161059,0.689846,0.065167,0.950626,-0.303420,-0.293774,-0.042072,0.562560,-6.911772,38.765816,5.978157,,,,,,
1478277071.81,0.239724,-1.255210,-0.763067,-0.150182,-0.399236,0.389411,0.073694,0.950615,-0.301498,-0.724740,0.196083,0.114761,-6.086571,38.903721,5.979434,,,,,,
1478277071.83,0.239191,-1.256713,-0.757079,-0.012811,-0.165664,-0.148942,0.073194,0.951080,-0.300149,-0.724241,0.195618,0.113412,-6.086571,38.903721,5.979434,,,,,,
1478277071.85,0.199329,-1.256396,-0.799826,0.208553,0.115694,-0.850468,0.061234,0.950982,-0.303123,-0.553864,0.265128,0.170555,-5.962618,38.900337,6.124574,,,,,,
1478277071.87,0.141495,-1.260325,-0.862019,-0.317064,-0.070542,-0.905963,0.043084,0.952190,-0.302455,-0.002678,0.433934,0.905451,-6.402267,38.848934,6.005887,,,,,,
1478277071.89,0.086551,-1.284713,-0.916225,-1.441069,-0.062346,-0.933256,0.024394,0.959357,-0.281140,-0.353328,0.342188,0.621884,-12.555192,46.191158,0.632461,,,,,,
1478277071.91,0.000256,-1.321012,-1.008346,-1.712377,0.156723,-1.405934,0.000063,0.968966,-0.247195,-0.328997,0.332578,0.587939,-13.248935,45.970547,1.682541,,,,,,
1478277071.93,-0.167179,-1.358801,-1.180119,-2.086933,-0.167235,-1.788166,-0.035013,0.977613,-0.207478,-0.188437,0.300051,0.333241,-15.393233,45.132423,4.215298,,,,,,
1478277071.96,-0.434823,-1.395801,-1.446735,-2.502692,-0.208205,-1.740317,-0.073341,0.984727,-0.157903,0.338402,0.358229,0.490681,-15.393233,45.132423,4.215298,,,,,,
1478277071.98,-0.776518,-1.419467,-1.797017,-2.307707,0.472392,-1.434562,-0.105647,0.988572,-0.107540,0.748988,0.556106,0.231655,-17.857481,43.751926,7.650825,,,,,,
1478277072.00,-1.113363,-1.428010,-2.158349,-2.284679,1.150355,-0.977118,-0.127671,0.989823,-0.062847,0.955720,0.525344,0.000362,-18.949884,42.982933,9.220925,,,,,,
1478277072.02,-1.456374,-1.425945,-2.521765,-2.259326,0.340855,-0.688438,-0.143401,0.989527,-0.016480,0.484847,0.224477,-0.350326,-20.689402,41.570366,11.640863,,,,,,
1478277072.04,-1.745450,-1.408634,-2.820900,-2.130842,0.135968,-0.887406,-0.158996,0.986880,0.028055,-0.144455,0.136685,-0.233316,-20.689402,41.570366,11.640863,,,,,,
1478277072.06,-1.927605,-1.379138,-3.004131,-1.723117,-0.406839,-0.969750,-0.178490,0.981690,0.066535,-0.079277,0.227142,0.000726,-22.384968,39.397507,15.440399,,,,,,
1478277072.08,-2.058285,-1.347120,-3.110792,-1.424811,-1.714037,-0.941954,-0.195977,0.975089,0.103900,-0.076957,0.228708,-0.194736,-22.384968,39.397507,15.440399,,,,,,
1478277072.10,-2.147416,-1.313669,3.122251,-1.199036,-1.898530,-1.178403,-0.213185,0.967125,0.138644,-0.059749,0.236672,-0.229480,-22.908894,37.874939,18.229853,,,,,,
1478277072.13,-2.207534,-1.278348,3.105618,-1.120515,-2.227378,-1.237049,-0.231802,0.957541,0.171415,0.193701,-0.147955,-0.239866,-22.990210,37.092323,19.679077,,,,,,
1478277072.15,-2.260468,-1.244530,3.097197,-1.059930,-2.085614,-1.121978,-0.247258,0.947246,0.203934,0.387028,-0.279887,-0.273316,-23.003752,35.439110,22.506727,,,,,,
1478277072.17,-2.313670,-1.214840,3.087721,-0.973614,-2.059652,-0.865334,-0.256670,0.937314,0.235719,0.487688,-0.378018,-0.316651,-23.003752,35.439110,22.506727,,,,,,
1478277072.19,-2.355341,-1.192791,3.086054,-0.574822,-1.761441,-0.644431,-0.261193,0.929403,0.260747,0.466591,-0.410619,-0.335012,-22.163857,33.312126,26.281586,,,,,,
1478277072.21,-2.377271,-1.181440,3.095639,-0.074861,-1.249577,-0.429131,-0.262696,0.925154,0.274010,0.385423,-0.374052,-0.328117,-22.163857,33.312126,26.281586,,,,,,
1478277072.23,-2.374133,-1.180550,3.120877,0.509565,-0.794207,-0.327117,-0.264126,0.924815,0.273777,0.306653,-0.360332,-0.309406,-21.449810,32.739449,27.562479,,,,,,
1478277072.25,-2.341807,-1.189626,-3.114618,1.140116,-0.428214,-0.272744,-0.266806,0.928230,0.259237,0.325201,-0.446083,-0.189871,-21.129402,33.036976,27.454735,,,,,,
1478277072.27,-2.278738,-1.207930,-3.042313,1.678129,-0.073119,-0.153768,-0.269660,0.934883,0.230817,0.328056,-0.452736,-0.161451,-21.112144,33.514645,26.883123,,,,,,
1478277072.30,-2.188759,-1.232033,-2.949559,1.975808,0.253277,0.070826,-0.270862,0.943166,0.192539,0.341113,-0.488775,-0.063877,-21.112144,33.514645,26.883123,,,,,,
1478277072.32,-2.086377,-1.260663,-2.851446,1.917712,0.547040,0.530382,-0.265513,0.952293,0.150469,0.282451,-0.231132,0.233702,-21.232794,35.805969,23.638046,,,,,,
1478277072.34,-1.999293,-1.293799,-2.774144,1.451874,0.620192,1.149519,-0.248745,0.961881,0.113627,0.143337,0.316790,0.457036,-21.232794,35.805969,23.638046,,,,,,
1478277072.36,-1.946277,-1.328448,-2.730911,0.930050,0.382397,1.223080,-0.223264,0.970777,0.088007,-0.404529,0.834612,0.694037,-20.599209,37.583786,21.325756,,,,,,
1478277072.38,-1.935675,-1.341231,-2.710721,0.046558,-1.034770,-0.027698,-0.212574,0.973765,0.081199,-0.779568,0.843511,1.165001,-19.505535,38.740276,20.257862,,,,,,
1478277072.40,-1.969501,-1.328885,-2.715859,-0.246273,-1.329649,-0.680277,-0.220769,0.970882,0.093003,-0.395686,0.423268,1.055770,-19.265715,38.606480,20.737118,,,,,,
1478277072.42,-1.966189,-1.314113,-2.694296,-0.003050,-0.391798,-0.768047,-0.234287,0.967237,0.097785,0.027408,0.174639,0.593942,-19.265715,38.606480,20.737118,,,,,,
1478277072.44,-1.937222,-1.300117,-2.668659,0.151295,0.508800,-0.630226,-0.249635,0.963590,0.095799,0.028123,-0.346814,0.293178,-19.450762,38.090958,21.503555,,,,,,
1478277072.46,-1.878342,-1.302279,-2.634532,0.633225,1.706475,0.380176,-0.252854,0.964165,0.080312,0.157929,-0.641640,0.083537,-20.462044,37.807495,21.060722,,,,,,
1478277072.49,-1.756057,-1.332188,-2.560951,1.504583,2.642577,1.610086,-0.232307,0.971668,0.043537,0.323875,-0.277591,-0.386417,-20.790754,38.145885,20.107014,,,,,,
1478277072.51,-1.582514,-1.373338,-2.426501,1.473168,1.148931,1.693014,-0.196164,0.980568,0.002299,0.509610,1.554298,-0.515482,-20.247328,40.018551,16.739697,,,,,,
1478277072.53,-1.512917,-1.390517,-2.317320,0.246213,-3.607297,0.163352,-0.179004,0.983794,-0.010372,-0.052014,0.310030,1.298397,-19.347950,40.821320,15.840855,,,,,,
1478277072.55,-1.541548,-1.384999,-2.295123,0.477391,-0.355708,-0.234788,-0.184651,0.982789,-0.005402,-0.046367,0.311034,1.293427,-19.347950,40.821320,15.840855,,,,,,
1478277072.57,-1.402490,-1.388699,-2.198625,0.941029,2.941015,0.583795,-0.178533,0.983466,-0.030335,0.289938,-0.858741,-0.083251,-18.039272,40.968636,16.965014,,,,,,
1478277072.59,-1.187746,-1.403784,-2.046046,0.993311,2.754287,1.254262,-0.154190,0.986086,-0.062131,0.615814,-0.673387,-0.530795,-18.655640,41.674469,14.382685,,,,,,
1478277072.61,-0.964607,-1.429606,-1.855008,0.339209,0.688321,2.026078,-0.115648,0.990049,-0.080175,0.656786,-0.025099,-0.600902,-18.408548,42.257839,12.925024,,,,,,
1478277072.63,-0.752315,-1.457860,-1.621164,0.349044,-1.601989,1.643726,-0.077009,0.993630,-0.082280,0.057844,0.713554,-0.661265,-15.930163,43.445168,12.263913,,,,,,
1478277072.66,-0.536927,-1.452050,-1.386664,1.275643,0.086286,0.354206,-0.060596,0.992958,-0.101797,-0.528195,0.264473,-0.172433,-15.930163,43.445168,12.263913,,,,,,
1478277072.68,-0.427618,-1.425277,-1.301652,1.348172,1.585786,-0.340382,-0.060135,0.989431,-0.131949,-0.607529,-0.005178,0.234564,-14.457117,44.216106,11.295307,,,,,,
1478277072.70,-0.382274,-1.395113,-1.297702,1.302068,1.950090,-0.575582,-0.065199,0.984607,-0.162165,0.059446,0.024243,0.432688,-14.820415,44.403076,10.018892,,,,,,
1478277072.72,-0.356671,-1.370123,-1.302039,0.889742,0.912734,-0.314420,-0.069597,0.979932,-0.186785,0.063845,0.028918,0.457308,-16.096254,44.491623,7.284374,,,,,,
1478277072.74,-0.335528,-1.361059,-1.286933,0.228206,0.187040,0.162861,-0.068554,0.978086,-0.196593,0.446133,-0.003308,0.289595,-16.096254,44.491623,7.284374,,,,,,
1478277072.76,-0.277131,-1.360787,-1.238596,0.136279,0.773757,0.586726,-0.057036,0.978029,-0.200514,0.124038,-0.022005,0.109069,-16.158829,44.676136,5.881440,,,,,,
1478277072.78,-0.190697,-1.362283,-1.169803,0.092371,0.897891,0.685184,-0.039236,0.978340,-0.203253,-0.067529,0.057152,0.020193,-16.158829,44.676136,5.881440,,,,,,
1478277072.80,-0.106888,-1.358740,-1.102761,0.392079,0.825911,0.594199,-0.022454,0.977600,-0.209269,-0.142295,0.007995,0.037257,-15.378697,45.023945,5.291132,,,,,,
1478277072.83,-0.033714,-1.347931,-1.041105,0.633194,0.425897,0.603348,-0.007450,0.975268,-0.220900,-0.092663,-0.058810,0.078474,-15.004452,45.197575,4.868445,,,,,,
1478277072.85,0.026390,-1.333055,-0.982235,0.716795,0.031171,0.640725,0.006214,0.971872,-0.235427,-0.059925,-0.100946,0.069304,-14.203360,45.559063,3.780542,,,,,,
1478277072.87,0.080915,-1.316640,-0.926696,0.750335,0.051276,0.694980,0.020322,0.967876,-0.250606,-0.097928,-0.106777,0.096691,-14.203360,45.559063,3.780542,,,,,,
1478277072.89,0.133902,-1.298441,-0.875300,0.810715,0.244341,0.722168,0.035912,0.963140,-0.266593,-0.089059,0.009471,0.289603,-12.718541,46.102699,2.106175,,,,,,
1478277072.91,0.181619,-1.278523,-0.833843,0.842363,0.421159,0.652778,0.052043,0.957591,-0.283391,-0.105189,0.015019,0.306401,-12.718541,46.102699,2.106175,,,,,,
1478277072.93,0.219386,-1.260626,-0.803504,0.651459,0.381380,0.553648,0.066425,0.952282,-0.297905,-0.050526,0.098820,0.481728,-11.731800,46.405521,0.740536,,,,,,
1478277072.95,0.255197,-1.251025,-0.770774,0.116531,0.123386,0.575309,0.079353,0.949307,-0.304169,-0.247383,-0.002362,0.452378,-11.312303,46.515259,0.136442,,,,,,
