time(ms),time(ds),locationTimestamp_since1970,locationLatitude,locationLongitude,locationAltitude,locationSpeed,locationCourse,locationVerticalAccuracy,locationHorizontalAccuracy,locationHeadingTimestamp_since1970,locationHeadingX,locationHeadingY,locationHeadingZ,locationTrueHeading,locationMagneticHeading,locationHeadingAccuracy,accelerometerTimestamp_sinceReboot,accelerometerAccelerationX,accelerometerAccelerationY,accelerometerAccelerationZ,gyroTimestamp_sinceReboot,gyroRotationX,gyroRotationY,gyroRotationZ,motionTimestamp_sinceReboot,motionYaw,motionRoll,motionPitch,motionRotationRateX,motionRotationRateY,motionRotationRateZ,motionUserAccelerationX,motionUserAccelerationY,motionUserAccelerationZ,motionQuaternionX,motionQuaternionY,motionQuaternionZ,motionQuaternionW,motionGravityX,motionGravityY,motionGravityZ,motionMagneticFieldX,motionMagneticFieldY,motionMagneticFieldZ,motionMagneticFieldCalibrationAccuracy
0,0,1478282917,37.35298547,-122.0355506,49.34283,0,118.125,4,10,1478282917,28.78122902,-10.32249451,-26.44165802,302.681427,289.2227478,10,20945.9635,0.245056152,-0.546768188,-0.809997559,20945.95803,-0.394283396,0.184774111,-0.043946952,20945.95803,0.153506474,0.287194493,0.572254871,-0.316448092,0.106293209,-0.039640833,0.020594127,-0.005941039,-0.002435633,0.267985113,0.158300803,0.113074099,0.94357781,0.238133892,-0.541529059,-0.806249678,31.51345253,-6.980267525,-25.81093979,2
9.683,0.9683,1478282917,37.35298547,-122.0355506,49.34283,0,118.125,4,10,1478282917,28.78122902,-10.32249451,-26.44165802,302.681427,289.2227478,10,20945.97318,0.2394104,-0.542373657,-0.798843384,20945.96802,-0.424054608,0.192318048,-0.023579362,20945.96802,0.154388947,0.287854798,0.568895215,-0.346219391,0.11383722,-0.019273248,0.005874775,-0.008066588,-0.002165364,0.266282013,0.158675115,0.113384444,0.943959779,0.239181384,-0.538701594,-0.807832181,31.51345253,-6.980267525,-25.81093979,2
19.34,1.934,1478282917,37.35298547,-122.0355506,49.34283,0,118.125,4,10,1478282917,28.78122902,-10.32249451,-26.44165802,302.681427,289.2227478,10,20945.98284,0.241149902,-0.527313232,-0.792205811,20945.96802,-0.424054608,0.192318048,-0.023579362,20945.96802,0.154388947,0.287854798,0.568895215,-0.346219391,0.11383722,-0.019273248,0.005874775,-0.008066588,-0.002165364,0.266282013,0.158675115,0.113384444,0.943959779,0.239181384,-0.538701594,-0.807832181,31.51345253,-6.980267525,-25.81093979,2
29.047,2.9047,1478282917,37.35298547,-122.0355506,49.34283,0,118.125,4,10,1478282917,28.78122902,-10.32249451,-26.44165802,302.681427,289.2227478,10,20945.99255,0.238418579,-0.518936157,-0.784683228,20945.97801,-0.377091626,0.195518102,-0.023559122,20945.97801,0.15510797,0.288788986,0.566379242,-0.299255461,0.117037833,-0.019252587,0.000828728,0.009266966,0.016699266,0.264976376,0.159169663,0.113701898,0.944205707,0.240321174,-0.536580205,-0.808905065,28.7362957,-9.347846985,-26.91073608,2
38.728,3.8728,1478282917,37.35298547,-122.0355506,49.34283,0,118.125,4,10,1478282917,28.78122902,-10.32249451,-26.44165802,302.681427,289.2227478,10,20946.00223,0.254516602,-0.504074097,-0.785919189,20945.97801,-0.377091626,0.195518102,-0.023559122,20945.97801,0.15510797,0.288788986,0.566379242,-0.299255461,0.117037833,-0.019252587,0.000828728,0.009266966,0.016699266,0.264976376,0.159169663,0.113701898,0.944205707,0.240321174,-0.536580205,-0.808905065,28.7362957,-9.347846985,-26.91073608,2
48.397,4.8397,1478282917,37.35298547,-122.0355506,49.34283,0,118.125,4,10,1478282917,28.85107994,-9.903404236,-26.3075943,302.9850769,289.5263977,10,20946.0119,0.265930176,-0.486907959,-0.795578003,20945.99798,-0.244326388,0.20561601,0.045901712,20945.99798,0.15684956,0.290255275,0.562575119,-0.166490376,0.127135903,0.050208237,0.012427157,0.029292122,0.024582617,0.262945591,0.160027225,0.114495885,0.944532475,0.24208945,-0.533366203,-0.810501814,28.7362957,-9.347846985,-26.91073608,2
58.092,5.8092,1478282917,37.35298547,-122.0355506,49.34283,0,118.125,4,10,1478282917,28.85107994,-9.903404236,-26.3075943,302.9850769,289.5263977,10,20946.02159,0.263397217,-0.477111816,-0.782363892,20946.00799,-0.301731624,0.242964447,0.090063048,20946.00799,0.158473563,0.290942823,0.56085684,-0.223895922,0.16448465,0.09436956,0.023020992,0.045004006,0.015633924,0.261958995,0.160535111,0.115252517,0.944628404,0.242909178,-0.531911969,-0.811211944,28.83081055,-9.190198898,-26.86389923,2
67.745,6.7745,1478282917,37.35298547,-122.0355506,49.34283,0,118.125,4,10,1478282917,28.57168388,-10.11294556,-26.10648346,302.1923523,288.7336731,10,20946.03124,0.260726929,-0.476074219,-0.789489746,20946.02795,-0.479847566,0.363865037,0.12975773,20946.02795,0.162501702,0.295067995,0.55284559,-0.402015835,0.28538996,0.134060398,0.015912436,0.047999229,0.031890169,0.257582845,0.162862052,0.117218325,0.945191459,0.247484788,-0.52511102,-0.814254045,28.83081055,-9.190198898,-26.86389923,2
77.45,7.745,1478282917,37.35298547,-122.0355506,49.34283,0,118.125,4,10,1478282917,28.57168388,-10.11294556,-26.10648346,302.1923523,288.7336731,10,20946.04095,0.238342285,-0.488357544,-0.809890747,20946.02795,-0.479847566,0.363865037,0.12975773,20946.02795,0.162501702,0.295067995,0.55284559,-0.402015835,0.28538996,0.134060398,0.015912436,0.047999229,0.031890169,0.257582845,0.162862052,0.117218325,0.945191459,0.247484788,-0.52511102,-0.814254045,28.83081055,-9.190198898,-26.86389923,2
87.136,8.7136,1478282917,37.35298547,-122.0355506,49.34283,0,118.125,4,10,1478282917,28.85107994,-9.624015808,-25.70427704,301.9077148,288.4490356,10,20946.05063,0.224136353,-0.49168396,-0.81741333,20946.03796,-0.536628824,0.446251256,0.106046542,20946.03796,0.165335715,0.297047506,0.548918938,-0.458797425,0.367776453,0.110349201,-0.011355436,0.033407748,0.005837166,0.255365679,0.164086603,0.11857719,0.945411766,0.249697715,-0.521765292,-0.81572789,28.83081055,-9.190198898,-26.86389923,2
96.819,9.6819,1478282917,37.35298547,-122.0355506,49.34283,0,118.125,4,10,1478282917,28.85107994,-9.624015808,-25.70427704,301.9077148,288.4490356,10,20946.06032,0.200485229,-0.526107788,-0.822555542,20946.04796,-0.556047263,0.514883048,0.081119887,20946.04796,0.167981511,0.29986256,0.544649801,-0.47820124,0.436390549,0.085421517,-0.028512372,0.026434634,-0.000270904,0.252947181,0.165669885,0.119928669,0.945615317,0.252648711,-0.51811862,-0.817142427,29.13909149,-8.835409164,-26.64945221,2
106.472,10.6472,1478282917,37.35298547,-122.0355506,49.34283,0,118.125,4,10,1478282917,28.85107994,-9.624015808,-25.70427704,301.9077148,288.4490356,10,20946.06997,0.227981567,-0.509094238,-0.807998657,20946.05795,-0.578679871,0.548524099,0.049436526,20946.05795,0.1703993,0.303294876,0.540104871,-0.500833929,0.470031679,0.053738154,-0.055667356,-0.011881851,-0.004046203,0.250374306,0.167505334,0.121226964,0.94581113,0.25615257,-0.51422596,-0.81850934,29.13909149,-8.835409164,-26.64945221,2
116.177,11.6177,1478282917,37.35298547,-122.0355506,49.34283,0,118.125,4,10,1478282917,28.85107994,-9.624015808,-25.70427704,301.9077148,288.4490356,10,20946.07968,0.235992432,-0.473175049,-0.775650024,20946.06793,-0.592754944,0.557815336,0.017506023,20946.06793,0.172857355,0.306249361,0.535488803,-0.514909148,0.479321867,0.021808237,-0.031301048,0.001167242,0.012004848,0.247788255,0.169113063,0.122472916,0.946045526,0.259282619,-0.510261476,-0.82000351,29.37211227,-8.609056473,-26.46710587,2
125.862,12.5862,1478282917,37.35298547,-122.0355506,49.34283,0,118.125,4,10,1478282917,28.85107994,-9.624015808,-25.70427704,301.9077148,288.4490356,10,20946.08936,0.224578857,-0.499542236,-0.793045044,20946.08792,-0.588423046,0.627842091,0.037425935,20946.08792,0.176992296,0.314934766,0.525839518,-0.510577321,0.549348772,0.041728139,-0.031915076,0.028764235,0.046713959,0.242297662,0.173521901,0.124885126,0.946353897,0.2679075,-0.501939297,-0.822363973,29.37211227,-8.609056473,-26.46710587,2
135.529,13.5529,1478282917,37.35298547,-122.0355506,49.34283,0,118.125,4,10,1478282917,28.85107994,-9.624015808,-25.70427704,301.9077148,288.4490356,10,20946.09903,0.267868042,-0.470230103,-0.774475098,20946.08792,-0.588423046,0.627842091,0.037425935,20946.08792,0.176992296,0.314934766,0.525839518,-0.510577321,0.549348772,0.041728139,-0.031915076,0.028764235,0.046713959,0.242297662,0.173521901,0.124885126,0.946353897,0.2679075,-0.501939297,-0.822363973,29.37211227,-8.609056473,-26.46710587,2
145.22,14.522,1478282917,37.35298547,-122.0355506,49.34283,0,118.125,4,10,1478282917,29.27017021,-9.554161072,-25.63722992,301.1471558,287.6884766,10,20946.10872,0.269851685,-0.451644897,-0.749557495,20946.09791,-0.573922933,0.555474151,0.131709295,20946.09791,0.180009467,0.318321862,0.521445624,-0.496077567,0.476981193,0.136011481,-0.003510985,0.027904056,0.049063478,0.239726477,0.175390789,0.126437858,0.946458005,0.271379024,-0.498134166,-0.823538601,29.37211227,-8.609056473,-26.46710587,2
154.888,15.4888,1478282917,37.35298547,-122.0355506,49.34283,0,118.125,4,10,1478282917,29.27017021,-9.554161072,-25.63722992,301.1471558,287.6884766,10,20946.11839,0.260925293,-0.431152344,-0.755691528,20946.10791,-0.583035737,0.570903707,0.21620607,20946.10791,0.184014035,0.321183462,0.517324369,-0.505190492,0.492410898,0.220508248,-0.004528631,0.0429115,0.075142093,0.237225586,0.177127714,0.128405933,0.946499715,0.274380326,-0.494556397,-0.824699581,29.87188911,-8.163785934,-26.04548645,2
164.586,16.4586,1478282917,37.35298547,-122.0355506,49.34283,0,118.125,4,10,1478282917,29.44479179,-9.658927917,-25.40259552,299.7832031,286.3245239,10,20946.12808,0.244750977,-0.444763184,-0.752792358,20946.1179,-0.623132557,0.591581289,0.296493186,20946.1179,0.189011219,0.323776918,0.513167812,-0.54528743,0.513088524,0.300795346,-0.016244534,0.059787139,0.070235409,0.234629886,0.178844475,0.130804211,0.946495498,0.277169824,-0.490939498,-0.82592696,29.87188911,-8.163785934,-26.04548645,2
174.253,17.4253,1478282917,37.35298547,-122.0355506,49.34283,0,118.125,4,10,1478282917,29.44479179,-9.658927917,-25.40259552,299.7832031,286.3245239,10,20946.13775,0.271026611,-0.436050415,-0.748458862,20946.12787,-0.710360138,0.619454465,0.350175057,20946.12787,0.194944862,0.326279321,0.508513558,-0.632515132,0.540961862,0.354477227,-0.03521413,0.04211624,0.074593864,0.231710418,0.180602242,0.133597007,0.946490862,0.279965103,-0.486879438,-0.8273862,29.87188911,-8.163785934,-26.04548645,2
183.951,18.3951,1478282917,37.35298547,-122.0355506,49.34283,0,118.125,4,10,1478282917,29.44479179,-9.658927917,-25.40259552,299.7832031,286.3245239,10,20946.14745,0.274368286,-0.437103271,-0.757400513,20946.14787,-0.992408072,0.661398454,0.313303325,20946.14787,0.208415127,0.330783946,0.495477585,-0.914563298,0.582906127,0.317605466,-0.014699936,0.039401442,0.083590336,0.223951436,0.183905286,0.139619695,0.946853178,0.285726547,-0.475451857,-0.832049191,30.20046234,-7.988798141,-25.71878242,2
193.615,19.3615,1478282917,37.35298547,-122.0355506,49.34283,0,118.125,4,10,1478282917,29.44479179,-9.658927917,-25.40259552,299.7832031,286.3245239,10,20946.15711,0.280654907,-0.460098267,-0.769454956,20946.14787,-0.992408072,0.661398454,0.313303325,20946.14787,0.208415127,0.330783946,0.495477585,-0.914563298,0.582906127,0.317605466,-0.014699936,0.039401442,0.083590336,0.223951436,0.183905286,0.139619695,0.946853178,0.285726547,-0.475451857,-0.832049191,30.20046234,-7.988798141,-25.71878242,2
203.299,20.3299,1478282917,37.35298547,-122.0355506,49.34283,0,118.125,4,10,1478282917,29.44479179,-9.658927917,-25.40259552,299.7832031,286.3245239,10,20946.1668,0.292648315,-0.452987671,-0.778945923,20946.15784,-1.091015073,0.674635962,0.247271311,20946.15784,0.214950252,0.333631166,0.486999088,-1.0131706,0.596143842,0.251573443,-0.00874923,0.007877703,0.065556265,0.21909603,0.185718388,0.14246087,0.947211967,0.289404124,-0.467975974,-0.835011244,30.20046234,-7.988798141,-25.71878242,2
212.98,21.298,1478282917,37.35298547,-122.0355506,49.34283,0,118.125,4,10,1478282917,29.93373299,-9.589080811,-25.5366745,298.8971252,285.438446,10,20946.17648,0.311065674,-0.443710327,-0.847045898,20946.16786,-1.114996306,0.716415367,0.169764003,20946.16786,0.220853979,0.337139078,0.477856084,-1.037152052,0.637923479,0.174066126,-0.00108629,0.006888802,0.059047878,0.21392199,0.187724482,0.145017794,0.94761107,0.29373461,-0.459876478,-0.837993801,30.57447815,-7.549793243,-25.40760803,2
222.663,22.2663,1478282917,37.35298547,-122.0355506,49.34283,0,118.125,4,10,1478282917,29.93373299,-9.589080811,-25.5366745,298.8971252,285.438446,10,20946.18616,0.336532593,-0.419799805,-0.829193115,20946.17785,-1.029878748,0.630279949,0.112293785,20946.17785,0.225881605,0.340735117,0.469032818,-0.952034533,0.551788151,0.116595909,0.012975111,0.008313437,-0.006322084,0.208964687,0.189662469,0.147175434,0.947998575,0.298090577,-0.452023774,-0.840723813,30.57447815,-7.549793243,-25.40760803,2
232.346,23.2346,1478282917,37.35298547,-122.0355506,49.34283,0,118.125,4,10,1478282917,29.93373299,-9.589080811,-25.5366745,298.8971252,285.438446,10,20946.19584,0.336166382,-0.426559448,-0.80708313,20946.17785,-1.029878748,0.630279949,0.112293785,20946.17785,0.225881605,0.340735117,0.469032818,-0.952034533,0.551788151,0.116595909,0.012975111,0.008313437,-0.006322084,0.208964687,0.189662469,0.147175434,0.947998575,0.298090577,-0.452023774,-0.840723813,30.57447815,-7.549793243,-25.40760803,2
242.031,24.2031,1478282917,37.35298547,-122.0355506,49.34283,0,118.125,4,10,1478282917,30.98145103,-8.750907898,-25.13445282,297.3209839,283.8623047,10,20946.20553,0.327728271,-0.450286865,-0.855300903,20946.19784,-0.689355786,0.403673436,0.085372955,20946.19784,0.23333545,0.345141664,0.455808043,-0.611511827,0.32518211,0.089674965,0.032377977,0.013628555,0.037870791,0.201595827,0.192047292,0.150242043,0.948632852,0.303788394,-0.440187991,-0.844953895,30.84191132,-7.143179893,-25.20111275,2
251.726,25.1726,1478282917,37.35298547,-122.0355506,49.34283,0,118.125,4,10,1478282917,30.98145103,-8.750907898,-25.13445282,297.3209839,283.8623047,10,20946.21522,0.328826904,-0.451766968,-0.877075195,20946.20783,-0.536598464,0.321227029,0.094112917,20946.20783,0.236213065,0.346553836,0.451443303,-0.458754718,0.242735922,0.09841492,0.022097271,-0.014022167,-0.008977795,0.199122193,0.192843973,0.151441785,0.948802898,0.305631012,-0.436264694,-0.846323133,30.84191132,-7.143179893,-25.20111275,2
261.406,26.1406,1478282917,37.35298547,-122.0355506,49.34283,0,118.125,4,10,1478282917,30.98145103,-8.750907898,-25.13445282,297.3209839,283.8623047,10,20946.2249,0.333831787,-0.440185547,-0.862609863,20946.20783,-0.536598464,0.321227029,0.094112917,20946.20783,0.236213065,0.346553836,0.451443303,-0.458754718,0.242735922,0.09841492,0.022097271,-0.014022167,-0.008977795,0.199122193,0.192843973,0.151441785,0.948802898,0.305631012,-0.436264694,-0.846323133,30.84191132,-7.143179893,-25.20111275,2
271.084,27.1084,1478282917,37.35298547,-122.0355506,49.34283,0,118.125,4,10,1478282917,30.98145103,-8.750907898,-25.13445282,297.3209839,283.8623047,10,20946.23458,0.335769653,-0.441070557,-0.844055176,20946.23779,-0.123540581,0.346009873,0.27147625,20946.23779,0.244475573,0.349429389,0.447641859,-0.045697082,0.267519027,0.275778234,0.025202848,-0.007344601,-0.01561701,0.196280166,0.194878603,0.155376399,0.948343082,0.308628947,-0.432840943,-0.84699285,31.05104446,-6.798062325,-25.03924179,2
280.769,28.0769,1478282917,37.35298547,-122.0355506,49.34283,0,118.125,4,10,1478282917,30.98145103,-8.750907898,-25.13445282,297.3209839,283.8623047,10,20946.24427,0.334106445,-0.441223145,-0.880249023,20946.23779,-0.123540581,0.346009873,0.27147625,20946.23779,0.244475573,0.349429389,0.447641859,-0.045697082,0.267519027,0.275778234,0.025202848,-0.007344601,-0.01561701,0.196280166,0.194878603,0.155376399,0.948343082,0.308628947,-0.432840943,-0.84699285,31.05104446,-6.798062325,-25.03924179,2
290.452,29.0452,1478282917,37.35298547,-122.0355506,49.34283,0,118.125,4,10,1478282917,30.98145103,-8.750907898,-25.13445282,297.3209839,283.8623047,10,20946.25395,0.268890381,-0.411529541,-0.83732605,20946.24779,-0.033257023,0.318191025,0.371526418,20946.24779,0.247615107,0.351265546,0.448447459,0.044585027,0.239702269,0.375827134,0.024042899,-0.007656115,-0.034151968,0.196215577,0.19608906,0.157101955,0.947822506,0.310063541,-0.433567017,-0.846097052,31.05104446,-6.798062325,-25.03924179,2
300.121,30.0121,1478282917,37.35298547,-122.0355506,49.34283,0,118.125,4,10,1478282917,31.43546104,-8.436592102,-24.56464386,297.1230469,283.6643677,10,20946.26362,0.254989624,-0.355041504,-0.882293701,20946.25779,-0.035769716,0.404869462,0.498374113,20946.25779,0.252407494,0.352092832,0.450539909,0.042072099,0.326380938,0.502674818,-0.04155948,0.023922089,0.007660792,0.19668051,0.197036434,0.159601934,0.947111738,0.310449868,-0.435451627,-0.844986856,31.22805595,-7.015659332,-24.75749397,2
309.817,30.9817,1478282917,37.35298547,-122.0355506,49.34283,0,118.125,4,10,1478282917,31.43546104,-8.436592102,-24.56464386,297.1230469,283.6643677,10,20946.27332,0.184326172,-0.346954346,-0.948898315,20946.26778,-0.048388305,0.390255099,0.528122687,20946.26778,0.257780586,0.353079021,0.452609373,0.02945343,0.311766654,0.532423377,-0.055981126,0.08227215,-0.038460802,0.197060264,0.198118154,0.162388846,0.946333087,0.310970753,-0.437313646,-0.84383291,31.22805595,-7.015659332,-24.75749397,2
319.499,31.9499,1478282917,37.35298547,-122.0355506,49.34283,0,118.125,4,10,1478282917,31.4703846,-7.982589722,-24.195961,297.4362183,283.9775391,10,20946.283,0.071563721,-0.350296021,-0.97845459,20946.26778,-0.048388305,0.390255099,0.528122687,20946.26778,0.257780586,0.353079021,0.452609373,0.02945343,0.311766654,0.532423377,-0.055981126,0.08227215,-0.038460802,0.197060264,0.198118154,0.162388846,0.946333087,0.310970753,-0.437313646,-0.84383291,31.22805595,-7.015659332,-24.75749397,2
329.182,32.9182,1478282917,37.35298547,-122.0355506,49.34283,0,118.125,4,10,1478282918,31.43546104,-7.947662354,-24.16243744,297.3851929,283.9265137,10,20946.29268,0.038330078,-0.351455688,-1.009933472,20946.27777,-0.032136099,0.290929843,0.554876537,20946.27777,0.263327341,0.353028246,0.454904179,0.045705408,0.212441638,0.55917716,-0.239016399,0.089080222,-0.135549784,0.197611291,0.198739466,0.165169031,0.945606469,0.310580105,-0.439376235,-0.842904806,31.22805595,-7.015659332,-24.75749397,2
338.866,33.8866,1478282917,37.35298547,-122.0355506,49.34283,0,118.125,4,10,1478282918,31.43546104,-7.947662354,-24.16243744,297.3851929,283.9265137,10,20946.30236,0.071853638,-0.371841431,-1.036071777,20946.29773,-0.044689175,0.122947495,0.752828236,20946.29773,0.277203455,0.349121617,0.460491872,0.033152174,0.04445944,0.757128894,-0.268110156,0.092933111,-0.168141931,0.199231904,0.198521742,0.171723859,0.944143359,0.306440234,-0.444388807,-0.841791511,31.3122406,-7.553132534,-24.49159813,2
348.548,34.8548,1478282917,37.35298547,-122.0355506,49.34283,0,118.125,4,10,1478282918,31.43546104,-7.947662354,-24.16243744,297.3851929,283.9265137,10,20946.31205,0.127059937,-0.383972168,-1.058822632,20946.29773,-0.044689175,0.122947495,0.752828236,20946.29773,0.277203455,0.349121617,0.460491872,0.033152174,0.04445944,0.757128894,-0.268110156,0.092933111,-0.168141931,0.199231904,0.198521742,0.171723859,0.944143359,0.306440234,-0.444388807,-0.841791511,31.3122406,-7.553132534,-24.49159813,2
358.231,35.8231,1478282917,37.35298547,-122.0355506,49.34283,0,118.125,4,10,1478282918,31.43546104,-7.947662354,-24.16243744,297.3851929,283.9265137,10,20946.32173,0.173995972,-0.37538147,-1.055847168,20946.30774,-0.139252699,0.038638206,0.813924081,20946.30774,0.285779989,0.345044302,0.462922533,-0.061411656,-0.039849535,0.818224728,-0.17557925,0.062592782,-0.216807634,0.199897131,0.19756932,0.175528232,0.943502698,0.302639186,-0.446564943,-0.842015028,31.23030281,-8.024747849,-24.44619179,2
367.915,36.7915,1478282917,37.35298547,-122.0355506,49.34283,0,118.125,4,10,1478282918,31.43546104,-7.947662354,-24.16243744,297.3851929,283.9265137,10,20946.33141,0.194076538,-0.331497192,-1.068008423,20946.30774,-0.139252699,0.038638206,0.813924081,20946.30774,0.285779989,0.345044302,0.462922533,-0.061411656,-0.039849535,0.818224728,-0.17557925,0.062592782,-0.216807634,0.199897131,0.19756932,0.175528232,0.943502698,0.302639186,-0.446564943,-0.842015028,31.23030281,-8.024747849,-24.44619179,2
377.59,37.759,1478282917,37.35298547,-122.0355506,49.34283,0,118.125,4,10,1478282918,31.43546104,-7.947662354,-24.16243744,297.3851929,283.9265137,10,20946.34109,0.171539307,-0.247070313,-1.056655884,20946.32773,-0.536067163,0.428999832,1.088051241,20946.32773,0.308086303,0.338103186,0.463910577,-0.458226293,0.350512266,1.092351794,-0.102564387,0.11595159,-0.224329725,0.198796974,0.196571651,0.185415727,0.942051144,0.296640933,-0.44744879,-0.843678713,31.23030281,-8.024747849,-24.44619179,2
387.28,38.728,1478282917,37.35298547,-122.0355506,49.34283,0,118.125,4,10,1478282918,31.40053749,-8.331817627,-24.33002472,296.274292,282.8156128,10,20946.35078,0.091201782,-0.135803223,-1.060272217,20946.33772,-0.845179472,0.764505931,1.384023513,20946.33772,0.32439187,0.336807357,0.461775605,-0.767338872,0.686018646,1.388324142,-0.124323137,0.198468134,-0.211693808,0.196295332,0.197451523,0.192829132,0.940902739,0.295862436,-0.445538431,-0.84496206,31.1156044,-8.717333794,-24.35511971,2
396.939,39.6939,1478282917,37.35298547,-122.0355506,49.34283,0,118.125,4,10,1478282918,31.64499855,-9.135063171,-23.55913544,293.3742981,279.9156189,10,20946.36044,0.034698486,-0.086578369,-1.075744629,20946.33772,-0.845179472,0.764505931,1.384023513,20946.33772,0.32439187,0.336807357,0.461775605,-0.767338872,0.686018646,1.388324142,-0.124323137,0.198468134,-0.211693808,0.196295332,0.197451523,0.192829132,0.940902739,0.295862436,-0.445538431,-0.84496206,31.1156044,-8.717333794,-24.35511971,2
406.643,40.6643,1478282917,37.35298547,-122.0355506,49.34283,0,118.125,4,10,1478282918,31.64499855,-9.135063171,-23.55913544,293.3742981,279.9156189,10,20946.37014,0.076461792,-0.1224823,-1.042205811,20946.35768,-1.741473261,1.36393955,2.053252459,20946.35768,0.372251226,0.33812005,0.449520146,-1.663632751,1.285452366,2.057553053,-0.264061779,0.347955018,-0.226084098,0.185547547,0.201846079,0.214678354,0.937413181,0.298760265,-0.434533387,-0.849660516,31.1156044,-8.717333794,-24.35511971,2
416.329,41.6329,1478282917,37.35298547,-122.0355506,49.34283,0,118.125,4,10,1478282918,31.64499855,-9.135063171,-23.55913544,293.3742981,279.9156189,10,20946.37983,0.139526367,-0.088684082,-1.075912476,20946.3677,-2.352521725,1.432151361,2.157649972,20946.3677,0.402410474,0.338440051,0.436686665,-2.274681568,1.353664517,2.161950588,-0.224397182,0.30045709,-0.187450781,0.176352741,0.203769967,0.228063232,0.935609253,0.300858974,-0.42293939,-0.854755044,31.39830017,-9.461250305,-23.7060318,2
426.012,42.6012,1478282917,37.35298547,-122.0355506,49.34283,0,118.125,4,10,1478282918,31.64499855,-9.135063171,-23.55913544,293.3742981,279.9156189,10,20946.38951,0.132156372,-0.073120117,-1.116516113,20946.38768,-3.590352341,1.818794415,2.268613242,20946.38768,0.470625666,0.342968766,0.393884858,-3.512512445,1.740307689,2.272913933,-0.171007127,0.295094609,-0.206267223,0.148472076,0.207685852,0.25775702,0.931871208,0.310533494,-0.383778691,-0.869645238,31.39830017,-9.461250305,-23.7060318,2
435.684,43.5684,1478282917,37.35298547,-122.0355506,49.34283,0,118.125,4,10,1478282918,31.64499855,-9.135063171,-23.55913544,293.3742981,279.9156189,10,20946.39918,-0.013687134,0.067520142,-1.07774353,20946.38768,-3.590352341,1.818794415,2.268613242,20946.38768,0.470625666,0.342968766,0.393884858,-3.512512445,1.740307689,2.272913933,-0.171007127,0.295094609,-0.206267223,0.148472076,0.207685852,0.25775702,0.931871208,0.310533494,-0.383778691,-0.869645238,31.39830017,-9.461250305,-23.7060318,2
445.377,44.5377,1478282917,37.35298547,-122.0355506,49.34283,0,118.125,4,10,1478282918,32.02916718,-9.37953186,-23.39154816,287.2481689,273.7894897,10,20946.40888,0.044647217,0.280914307,-1.079833984,20946.39767,-4.038347436,1.856040587,2.325683985,20946.39767,0.508282246,0.346449883,0.365178249,-3.960508108,1.777553678,2.329984665,-0.330857307,0.424635947,-0.199181423,0.130500392,0.209018158,0.273826026,0.92967756,0.317170173,-0.357115805,-0.878562093,31.87403488,-9.44354248,-23.06967926,2
455.059,45.5059,1478282917,37.35298547,-122.0355506,49.34283,0,118.125,4,10,1478282918,32.02916718,-9.37953186,-23.39154816,287.2481689,273.7894897,10,20946.41856,0.19909668,0.194763184,-1.019607544,20946.40766,-4.280022114,1.865753402,2.074960684,20946.40766,0.54501892,0.351782771,0.333578287,-4.202183247,1.787266612,2.079261303,-0.280930817,0.608340442,-0.192821547,0.110979965,0.210183802,0.289297641,0.92726107,0.325578034,-0.327426165,-0.887012422,31.87403488,-9.44354248,-23.06967926,2
464.735,46.4735,1478282917,37.35298547,-122.0355506,49.34283,0,118.125,4,10,1478282918,32.02916718,-9.37953186,-23.39154816,287.2481689,273.7894897,10,20946.42823,0.29750061,0.232376099,-0.950653076,20946.41765,-4.374987509,1.92145821,1.731782817,20946.41765,0.578522494,0.359535732,0.299801517,-4.297148705,1.842971563,1.736083388,-0.137049243,0.490093768,-0.125300124,0.090398988,0.211362986,0.30309321,0.924817937,0.336145937,-0.295330584,-0.894307435,31.87403488,-9.44354248,-23.06967926,2
474.423,47.4423,1478282917,37.35298547,-122.0355506,49.34283,0,118.125,4,10,1478282918,33.39120483,-8.855674744,-21.74919128,273.9613647,260.5026855,10,20946.43792,0.320770264,0.451217651,-0.883590698,20946.42765,-4.438042908,2.033444666,1.555706323,20946.42765,0.610146262,0.369904568,0.264952217,-4.360203743,1.9549582,1.560006857,-0.051410384,0.494239241,-0.05082598,0.069088355,0.212869092,0.315822782,0.922046376,0.348910987,-0.261863142,-0.899827123,32.568573,-8.48971653,-22.46234894,2
484.107,48.4107,1478282917,37.35298547,-122.0355506,49.34283,0,118.125,4,10,1478282918,33.39120483,-8.855674744,-21.74919128,273.9613647,260.5026855,10,20946.44761,0.409591675,0.561752319,-0.798751831,20946.42765,-4.438042908,2.033444666,1.555706323,20946.42765,0.610146262,0.369904568,0.264952217,-4.360203743,1.9549582,1.560006857,-0.051410384,0.494239241,-0.05082598,0.069088355,0.212869092,0.315822782,0.922046376,0.348910987,-0.261863142,-0.899827123,32.568573,-8.48971653,-22.46234894,2
493.789,49.3789,1478282917,37.35298547,-122.0355506,49.34283,0,118.125,4,10,1478282918,33.39120483,-8.855674744,-21.74919128,273.9613647,260.5026855,10,20946.45729,0.566513062,0.573745728,-0.659790039,20946.44763,-4.88885323,2.5391462,1.384756948,20946.44763,0.673043826,0.401496654,0.190956144,-4.811014652,2.460659981,1.389057517,0.025898684,0.751550078,0.104993984,0.022634515,0.218208088,0.340044432,0.914463063,0.38369298,-0.189797744,-0.90374583,32.568573,-8.48971653,-22.46234894,2
503.473,50.3473,1478282917,37.35298547,-122.0355506,49.34283,0,118.125,4,10,1478282918,33.39120483,-8.855674744,-21.74919128,273.9613647,260.5026855,10,20946.46697,0.732788086,0.669708252,-0.626312256,20946.45762,-5.42912659,2.663731007,1.37333678,20946.45762,0.706860858,0.421241691,0.148792043,-5.351288319,2.585245132,1.377637386,0.162137076,0.721989334,0.242708653,-0.003969475,0.220759821,0.352112168,0.909541844,0.404376,-0.148243636,-0.902498662,33.72307587,-6.894815922,-21.2734623,2
513.155,51.3155,1478282917,37.35298547,-122.0355506,49.34283,0,118.125,4,10,1478282918,33.39120483,-8.855674744,-21.74919128,273.9613647,260.5026855,10,20946.47665,0.715438843,0.766906738,-0.740875244,20946.45762,-5.42912659,2.663731007,1.37333678,20946.45762,0.706860858,0.421241691,0.148792043,-5.351288319,2.585245132,1.377637386,0.162137076,0.721989334,0.242708653,-0.003969475,0.220759821,0.352112168,0.909541844,0.404376,-0.148243636,-0.902498662,33.72307587,-6.894815922,-21.2734623,2
522.832,52.2832,1478282917,37.35298547,-122.0355506,49.34283,0,118.125,4,10,1478282918,33.39120483,-8.855674744,-21.74919128,273.9613647,260.5026855,10,20946.48633,0.766677856,0.796340942,-0.665969849,20946.47761,-6.995548408,2.97668093,1.858364728,20946.47761,0.792986814,0.468940372,0.048413264,-6.917710304,2.898195267,1.862665296,0.264027089,0.81530112,0.150127232,-0.067979846,0.223332721,0.380696202,0.894746689,0.451411754,-0.048394352,-0.891002476,33.72307587,-6.894815922,-21.2734623,2
532.519,53.2519,1478282917,37.35298547,-122.0355506,49.34283,0,118.125,4,10,1478282918,34.47384644,-7.284095764,-20.10681915,263.1864319,249.7277679,10,20946.49602,0.828704834,0.835006714,-0.572540283,20946.48757,-7.448012553,3.278643184,1.918099697,20946.48757,0.843745513,0.499184228,-0.006910839,-7.370174408,3.200157642,1.922400236,0.287979811,0.789430141,0.211982563,-0.104196766,0.223979532,0.396000543,0.884397972,0.478698045,0.006910784,-0.877952397,33.72307587,-6.894815922,-21.2734623,2
542.202,54.2202,1478282917,37.35298547,-122.0355506,49.34283,0,118.125,4,10,1478282918,34.47384644,-7.284095764,-20.10681915,263.1864319,249.7277679,10,20946.5057,0.893859863,0.838409424,-0.549468994,20946.49759,-7.797162559,3.50173033,1.751754394,20946.49759,0.897215566,0.534713794,-0.064334351,-7.719325066,3.423244953,1.756054878,0.320164263,0.770716727,0.286094248,-0.142469732,0.224466269,0.410430585,0.872275189,0.508540571,0.06428998,-0.858634531,35.68717194,-4.015342712,-18.64530754,2
551.885,55.1885,1478282917,37.35298547,-122.0355506,49.34283,0,118.125,4,10,1478282918,34.47384644,-7.284095764,-20.10681915,263.1864319,249.7277679,10,20946.51538,0.929595947,0.780822754,-0.541763306,20946.50758,-8.021199388,3.759901161,1.450146874,20946.50758,0.952036777,0.576014135,-0.123295624,-7.943361759,3.681415796,1.454447389,0.353309155,0.715425968,0.282804996,-0.182417286,0.224915399,0.422981006,0.858617531,0.540550709,0.122983478,-0.83227402,35.68717194,-4.015342712,-18.64530754,2
561.567,56.1567,1478282917,37.35298547,-122.0355506,49.34283,0,118.125,4,10,1478282918,36.88359833,-3.267837524,-15.64897156,255.3109131,241.8522339,10,20946.52507,0.913192749,0.639434814,-0.553543091,20946.51758,-8.118233793,3.864436625,1.124542141,20946.51758,1.007908865,0.622202478,-0.182706679,-8.04039669,3.785951614,1.128842592,0.356470495,0.599130869,0.257308215,-0.223250725,0.224996351,0.433341571,0.843653269,0.573125482,0.18169187,-0.799071491,36.85689163,-2.346050262,-16.5351181,2
571.222,57.1222,1478282917,37.35298547,-122.0355506,49.34283,0,118.125,4,10,1478282918,36.88359833,-3.267837524,-15.64897156,255.3109131,241.8522339,10,20946.53472,0.916488647,0.542678833,-0.577056885,20946.51758,-8.118233793,3.864436625,1.124542141,20946.51758,1.007908865,0.622202478,-0.182706679,-8.04039669,3.785951614,1.128842592,0.356470495,0.599130869,0.257308215,-0.223250725,0.224996351,0.433341571,0.843653269,0.573125482,0.18169187,-0.799071491,36.85689163,-2.346050262,-16.5351181,2
580.931,58.0931,1478282917,37.35298547,-122.0355506,49.34283,0,118.125,4,10,1478282918,36.88359833,-3.267837524,-15.64897156,255.3109131,241.8522339,10,20946.54443,0.943222046,0.513916016,-0.540924072,20946.53756,-7.553857228,3.903970985,0.549367789,20946.53756,1.119372552,0.72537269,-0.294695362,-7.476020336,3.825486183,0.55366832,0.28167364,0.252230465,0.138938695,-0.302643355,0.224519962,0.446863063,0.811363783,0.634814978,0.290448368,-0.71599555,36.85689163,-2.346050262,-16.5351181,2
590.613,59.0613,1478282917,37.35298547,-122.0355506,49.34283,0,118.125,4,10,1478282918,36.88359833,-3.267837524,-15.64897156,255.3109131,241.8522339,10,20946.55411,1.019760132,0.477111816,-0.524551392,20946.53756,-7.553857228,3.903970985,0.549367789,20946.53756,1.119372552,0.72537269,-0.294695362,-7.476020336,3.825486183,0.55366832,0.28167364,0.252230465,0.138938695,-0.302643355,0.224519962,0.446863063,0.811363783,0.634814978,0.290448368,-0.71599555,36.85689163,-2.346050262,-16.5351181,2
600.296,60.0296,1478282917,37.35298547,-122.0355506,49.34283,0,118.125,4,10,1478282918,36.88359833,-3.267837524,-15.64897156,255.3109131,241.8522339,10,20946.56379,1.117523193,0.423370361,-0.54989624,20946.55752,-6.784756545,3.788840933,0.095357679,20946.55752,1.22703211,0.836359878,-0.390151796,-6.70691967,3.710356474,0.099658169,0.333327562,0.096783005,0.095255293,-0.374207326,0.223753287,0.45179194,0.778323446,0.68643254,0.380328804,-0.619806707,38.49649048,0.181073189,-12.4632225,2
609.978,60.9978,1478282917,37.35298547,-122.0355506,49.34283,0,118.125,4,10,1478282918,36.88359833,-3.267837524,-15.64897156,255.3109131,241.8522339,10,20946.57348,1.166549683,0.298233032,-0.669998169,20946.56751,-6.596021514,3.724050485,0.054089601,20946.56751,1.281894753,0.895025667,-0.432200599,-6.518185139,3.645566225,0.058390077,0.409042746,0.004500301,0.018085549,-0.407673145,0.223185377,0.452163309,0.761274744,0.708480477,0.418870062,-0.56798178,38.49649048,0.181073189,-12.4632225,2
619.662,61.9662,1478282917,37.35298547,-122.0355506,49.34283,0,118.125,4,10,1478282918,37.89639282,-1.067619324,-12.39775085,247.7806396,234.3219757,10,20946.58316,1.159957886,0.144729614,-0.700668335,20946.56751,-6.596021514,3.724050485,0.054089601,20946.56751,1.281894753,0.895025667,-0.432200599,-6.518185139,3.645566225,0.058390077,0.409042746,0.004500301,0.018085549,-0.407673145,0.223185377,0.452163309,0.761274744,0.708480477,0.418870062,-0.56798178,38.49649048,0.181073189,-12.4632225,2
629.343,62.9343,1478282917,37.35298547,-122.0355506,49.34283,0,118.125,4,10,1478282918,37.89639282,-1.067619324,-12.39775085,247.7806396,234.3219757,10,20946.59284,1.128967285,0.007415771,-0.800003052,20946.5875,-5.871539965,3.502797459,0.155235127,20946.5875,1.395448591,1.015693865,-0.500750349,-5.793703556,3.424313307,0.159535587,0.414453387,-0.335354269,-0.238345385,-0.468595551,0.221938585,0.451555344,0.726126191,0.745504498,0.480083883,-0.46232295,39.62792969,2.083415031,-7.913976669,2
639.025,63.9025,1478282917,37.35298547,-122.0355506,49.34283,0,118.125,4,10,1478282918,39.25842285,1.062744141,-8.878395081,246.6769714,233.2183075,10,20946.60252,1.14503479,-0.202728271,-0.881622314,20946.59749,-5.208152396,3.411339713,0.053793191,20946.59749,1.448610467,1.075420035,-0.52658323,-5.130316257,3.33285594,0.058093641,0.368363112,-0.4951666,-0.389038026,-0.495094161,0.222259436,0.449662612,0.709426565,0.760604143,0.502582371,-0.410965025,39.62792969,2.083415031,-7.913976669,2
648.709,64.8709,1478282917,37.35298547,-122.0355506,49.34283,0,118.125,4,10,1478282918,39.25842285,1.062744141,-8.878395081,246.6769714,233.2183075,10,20946.61221,1.194213867,-0.30380249,-0.903930664,20946.59749,-5.208152396,3.411339713,0.053793191,20946.59749,1.448610467,1.075420035,-0.52658323,-5.130316257,3.33285594,0.058093641,0.368363112,-0.4951666,-0.389038026,-0.495094161,0.222259436,0.449662612,0.709426565,0.760604143,0.502582371,-0.410965025,39.62792969,2.083415031,-7.913976669,2
658.391,65.8391,1478282917,37.35298547,-122.0355506,49.34283,0,118.125,4,10,1478282918,39.25842285,1.062744141,-8.878395081,246.6769714,233.2183075,10,20946.62189,1.261016846,-0.317062378,-0.919204712,20946.6075,-4.459628894,3.294179534,-0.093835149,20946.6075,1.495774349,1.131931773,-0.547601487,-4.381793022,3.215695858,-0.089534707,0.421346426,-0.8244434,-0.541151226,-0.518423824,0.223264428,0.446363977,0.694369451,0.772867441,0.52064091,-0.362779468,40.21243668,2.924778938,-3.427838326,2
668.073,66.8073,1478282917,37.35298547,-122.0355506,49.34283,0,118.125,4,10,1478282918,39.25842285,1.062744141,-8.878395081,246.6769714,233.2183075,10,20946.63157,1.349014282,-0.323242188,-0.981567383,20946.6075,-4.459628894,3.294179534,-0.093835149,20946.6075,1.495774349,1.131931773,-0.547601487,-4.381793022,3.215695858,-0.089534707,0.421346426,-0.8244434,-0.541151226,-0.518423824,0.223264428,0.446363977,0.694369451,0.772867441,0.52064091,-0.362779468,40.21243668,2.924778938,-3.427838326,2
677.731,67.7731,1478282917,37.35298547,-122.0355506,49.34283,0,118.125,4,10,1478282918,40.37599182,2.320007324,-4.990341187,243.694458,230.2357788,10,20946.64123,1.388717651,-0.425445557,-1.076690674,20946.62747,-3.040342731,3.315433423,-0.327783731,20946.62747,1.569746904,1.235353326,-0.578647031,-2.96250701,3.236950159,-0.323483318,0.558472812,-0.870133936,-0.705970526,-0.556839337,0.228323257,0.435305252,0.669557899,0.79054147,0.546891749,-0.275596887,40.21243668,2.924778938,-3.427838326,2
687.439,68.7439,1478282917,37.35298547,-122.0355506,49.34283,0,118.125,4,10,1478282918,40.37599182,2.320007324,-4.990341187,243.694458,230.2357788,10,20946.65094,1.349456787,-0.470565796,-1.080596924,20946.63748,-2.438171382,3.263995798,-0.308170349,20946.63748,1.597091386,1.282508198,-0.589389324,-2.360336065,3.185512781,-0.303869933,0.591742635,-0.981299043,-0.840348184,-0.572444044,0.232672687,0.428060555,0.659496322,0.796975017,0.555853486,-0.236342475,40.31598282,3.371076584,0.775864601,2
697.122,69.7122,1478282917,37.35298547,-122.0355506,49.34283,0,118.125,4,10,1478282918,40.37599182,2.320007324,-4.990341187,243.694458,230.2357788,10,20946.66062,1.271606445,-0.519607544,-1.101776123,20946.63748,-2.438171382,3.263995798,-0.308170349,20946.63748,1.597091386,1.282508198,-0.589389324,-2.360336065,3.185512781,-0.303869933,0.591742635,-0.981299043,-0.840348184,-0.572444044,0.232672687,0.428060555,0.659496322,0.796975017,0.555853486,-0.236342475,40.31598282,3.371076584,0.775864601,2
706.784,70.6784,1478282917,37.35298547,-122.0355506,49.34283,0,118.125,4,10,1478282918,40.62046051,3.472496033,-1.202857971,245.2859192,231.82724,10,20946.67028,1.179489136,-0.519088745,-1.123306274,20946.65743,-1.309567388,3.120493227,0.267662337,20946.65743,1.636094166,1.365470016,-0.597152238,-1.231732011,3.042010069,0.271962762,0.46203649,-1.081897378,-0.933174074,-0.596103723,0.245681346,0.414294429,0.642387074,0.809569955,0.562289834,-0.168602049,40.31598282,3.371076584,0.775864601,2
716.486,71.6486,1478282917,37.35298547,-122.0355506,49.34283,0,118.125,4,10,1478282918,40.51568604,3.926506042,2.517601013,246.3623352,232.903656,10,20946.67998,1.070953369,-0.465713501,-1.098892212,20946.66745,-0.746208949,2.982121236,0.567185934,20946.66745,1.646764649,1.400909397,-0.593728402,-0.668374002,2.903638601,0.571486294,0.362560928,-1.078544021,-0.983170092,-0.604100489,0.254940179,0.408063596,0.63525759,0.816928208,0.559455216,-0.140136212,40.12651062,3.312819481,4.028984547,2
726.162,72.6162,1478282917,37.35298547,-122.0355506,49.34283,0,118.125,4,10,1478282918,40.51568604,3.926506042,2.517601013,246.3623352,232.903656,10,20946.68966,0.949951172,-0.375274658,-1.078521729,20946.66745,-0.746208949,2.982121236,0.567185934,20946.66745,1.646764649,1.400909397,-0.593728402,-0.668374002,2.903638601,0.571486294,0.362560928,-1.078544021,-0.983170092,-0.604100489,0.254940179,0.408063596,0.63525759,0.816928208,0.559455216,-0.140136212,40.12651062,3.312819481,4.028984547,2
735.85,73.585,1478282917,37.35298547,-122.0355506,49.34283,0,118.125,4,10,1478282918,40.51568604,3.926506042,2.517601013,246.3623352,232.903656,10,20946.69935,0.835083008,-0.320587158,-1.095672607,20946.68744,0.227993487,2.36160337,0.783820773,20946.68744,1.649994708,1.453490146,-0.578972635,0.305828303,2.283120632,0.788121104,0.118678384,-0.922438979,-0.980558515,-0.61251524,0.275396954,0.397411579,0.625336418,0.831272781,0.547164321,-0.097963199,40.12651062,3.312819481,4.028984547,2
745.534,74.5534,1478282917,37.35298547,-122.0355506,49.34283,0,118.125,4,10,1478282918,40.51568604,3.926506042,2.517601013,246.3623352,232.903656,10,20946.70903,0.741821289,-0.291473389,-1.091522217,20946.69742,0.547087856,1.834954476,0.702642829,20946.69742,1.644415642,1.469460339,-0.571135477,0.624922335,1.756472349,0.706943154,-0.001888796,-0.861174822,-1.010565758,-0.613532606,0.284647675,0.39308687,0.622925481,0.836971819,0.540587664,-0.085106887,39.73022842,2.473576546,7.261891365,2
755.215,75.5215,1478282917,37.35298547,-122.0355506,49.34283,0,118.125,4,10,1478282918,40.51568604,3.926506042,2.517601013,246.3623352,232.903656,10,20946.71871,0.721496582,-0.227233887,-1.033401489,20946.69742,0.547087856,1.834954476,0.702642829,20946.69742,1.644415642,1.469460339,-0.571135477,0.624922335,1.756472349,0.706943154,-0.001888796,-0.861174822,-1.010565758,-0.613532606,0.284647675,0.39308687,0.622925481,0.836971819,0.540587664,-0.085106887,39.73022842,2.473576546,7.261891365,2
764.889,76.4889,1478282917,37.35298547,-122.0355506,49.34283,0,118.125,4,10,1478282918,40.83000946,4.031272888,5.768821716,250.0556641,236.5969849,10,20946.72839,0.779312134,-0.102905273,-0.987060547,20946.71741,1.196421924,0.710621394,0.965535977,20946.71741,1.622766344,1.477542619,-0.553240305,1.274256229,0.632139385,0.969836354,-0.125632986,-0.752680779,-0.954173744,-0.608808286,0.299563995,0.389167381,0.623026992,0.847129583,0.525446892,-0.079227768,39.73022842,2.473576546,7.261891365,2
774.581,77.4581,1478282917,37.35298547,-122.0355506,49.34283,0,118.125,4,10,1478282918,40.83000946,4.031272888,5.768821716,250.0556641,236.5969849,10,20946.73808,0.783401489,0.023880005,-0.850143433,20946.72739,1.604377723,0.450818311,1.321527112,20946.72739,1.605682064,1.47304473,-0.539427322,1.682211757,0.372336566,1.325827479,-0.074594833,-0.616549969,-0.903322875,-0.602840345,0.30775752,0.389289759,0.624757802,0.853906989,0.513644695,-0.083737656,39.46997833,1.76022625,8.73883152,2
784.263,78.4263,1478282917,37.35298547,-122.0355506,49.34283,0,118.125,4,10,1478282918,40.4807663,3.75188446,8.182090759,254.331543,240.872879,10,20946.74776,0.733886719,0.397537231,-0.690826416,20946.74739,2.302059349,0.747903252,1.652086922,20946.74739,1.560826124,1.459315201,-0.502606657,2.379893303,0.669421673,1.65638721,-0.087488502,-0.457831472,-0.752651393,-0.585998618,0.328419875,0.390175727,0.629689532,0.870889962,0.481711477,-0.097492009,39.46997833,1.76022625,8.73883152,2
793.938,79.3938,1478282917,37.35298547,-122.0355506,49.34283,0,118.125,4,10,1478282918,40.09659576,3.367713928,10.36073303,257.8505554,244.3918762,10,20946.75744,0.682785034,0.545837402,-0.627044678,20946.74739,2.302059349,0.747903252,1.652086922,20946.74739,1.560826124,1.459315201,-0.502606657,2.379893303,0.669421673,1.65638721,-0.087488502,-0.457831472,-0.752651393,-0.585998618,0.328419875,0.390175727,0.629689532,0.870889962,0.481711477,-0.097492009,39.46997833,1.76022625,8.73883152,2
803.628,80.3628,1478282917,37.35298547,-122.0355506,49.34283,0,118.125,4,10,1478282918,40.09659576,3.367713928,10.36073303,257.8505554,244.3918762,10,20946.76713,0.653915405,0.481643677,-0.638092041,20946.75736,2.476850069,1.294922133,1.148307391,20946.75736,1.5340025,1.457378029,-0.486823043,2.554683685,1.216440797,1.152607679,-0.19535999,0.078017019,-0.527017713,-0.577954231,0.340522265,0.386927578,0.632693088,0.878145039,0.467820376,-0.100026987,39.40458298,0.513038635,9.184782982,2
813.29,81.329,1478282917,37.35298547,-122.0355506,49.34283,0,118.125,4,10,1478282918,40.09659576,3.367713928,10.36073303,257.8505554,244.3918762,10,20946.77679,0.55329895,0.513458252,-0.477462769,20946.76737,2.423713613,1.565578395,0.511560222,20946.76737,1.506482187,1.459087639,-0.477361524,2.501547098,1.487097263,0.515860498,-0.228758663,0.02220642,-0.539077461,-0.571553711,0.351879342,0.380504669,0.636178812,0.882674098,0.459437251,-0.099014565,39.40458298,0.513038635,9.184782982,2
822.993,82.2993,1478282917,37.35298547,-122.0355506,49.34283,0,118.125,4,10,1478282918,40.09659576,3.367713928,10.36073303,257.8505554,244.3918762,10,20946.78649,0.494888306,0.598693848,-0.351364136,20946.77736,2.108057918,1.742309227,0.228373254,20946.77736,1.481360757,1.463728141,-0.47217065,2.18589139,1.663828135,0.232673556,-0.332184404,0.058637753,-0.382291734,-0.566841832,0.36208399,0.372717725,0.639270693,0.885483384,0.454820514,-0.095171042,39.40458298,0.513038635,9.184782982,2
832.671,83.2671,1478282917,37.35298547,-122.0355506,49.34283,0,118.125,4,10,1478282918,40.09659576,3.367713928,10.36073303,257.8505554,244.3918762,10,20946.79617,0.520004272,0.594726563,-0.195663452,20946.78733,1.618704464,1.760783842,0.327969087,20946.78733,1.46139108,1.471648509,-0.467371001,1.696537614,1.682302952,0.332269371,-0.393483102,0.148153052,-0.262994289,-0.563606317,0.371702834,0.36552592,0.640761831,0.888371408,0.450540781,-0.088369846,38.99849701,0.357825279,10.78581619,2
842.337,84.2337,1478282917,37.35298547,-122.0355506,49.34283,0,118.125,4,10,1478282918,40.09659576,3.367713928,10.36073303,257.8505554,244.3918762,10,20946.80584,0.577545166,0.643081665,-0.153411865,20946.78733,1.618704464,1.760783842,0.327969087,20946.78733,1.46139108,1.471648509,-0.467371001,1.696537614,1.682302952,0.332269371,-0.393483102,0.148153052,-0.262994289,-0.563606317,0.371702834,0.36552592,0.640761831,0.888371408,0.450540781,-0.088369846,38.99849701,0.357825279,10.78581619,2
852.023,85.2023,1478282917,37.35298547,-122.0355506,49.34283,0,118.125,4,10,1478282918,40.09659576,3.367713928,10.36073303,257.8505554,244.3918762,10,20946.81552,0.674026489,0.461044312,-0.043731689,20946.80734,0.506622722,0.765443896,0.395104981,20946.80734,1.440468892,1.485733325,-0.457305678,0.584455669,0.686963201,0.399405241,-0.316456079,0.201549426,-0.077181488,-0.560002439,0.385074122,0.357903337,0.640328346,0.894001245,0.441532254,-0.076230377,38.99849701,0.357825279,10.78581619,2
861.706,86.1706,1478282917,37.35298547,-122.0355506,49.34283,0,118.125,4,10,1478282918,39.7822876,2.774009705,11.73495483,259.6972351,246.2385559,10,20946.8252,0.781890869,0.517272949,0.076126099,20946.81731,0.270638952,0.037338584,0.45936839,20946.81731,1.436478072,1.485279647,-0.452623623,0.348471671,-0.041141819,0.463668644,-0.221989989,0.023717843,0.03308,-0.558121866,0.387419847,0.358168999,0.640406756,0.896016479,0.437326461,-0.076811686,38.5361557,0.35739994,12.33617973,2
871.395,87.1395,1478282917,37.35298547,-122.0355506,49.34283,0,118.125,4,10,1478282918,39.7822876,2.774009705,11.73495483,259.6972351,246.2385559,10,20946.83489,0.811264038,0.719177246,0.228088379,20946.82733,0.071650485,-0.514194355,0.486965663,20946.82733,1.434787787,1.480021129,-0.447346066,0.149482965,-0.592674553,0.491265893,-0.115995333,0.08469867,0.157856509,-0.555681661,0.387753382,0.360685753,0.640914186,0.897886217,0.432574272,-0.08173041,38.5361557,0.35739994,12.33617973,2
881.072,88.1072,1478282917,37.35298547,-122.0355506,49.34283,0,118.125,4,10,1478282918,39.7473526,2.250152588,12.43882751,260.2660828,246.8074036,10,20946.84457,0.817138672,0.841674805,0.257614136,20946.83732,-0.225877073,-0.772009387,0.141752874,20946.83732,1.4357152,1.472280535,-0.445020795,-0.148044676,-0.850489438,0.146053106,-0.08696118,0.28870061,0.316865146,-0.553940859,0.385695665,0.363830349,0.641884613,0.898225188,0.430476636,-0.08877676,38.5361557,0.35739994,12.33617973,2
890.754,89.0754,1478282917,37.35298547,-122.0355506,49.34283,0,118.125,4,10,1478282918,39.29334259,1.656440735,12.8745575,259.4501648,245.9914856,10,20946.85425,0.80581665,0.715957642,0.278564453,20946.83732,-0.225877073,-0.772009387,0.141752874,20946.83732,1.4357152,1.472280535,-0.445020795,-0.148044676,-0.850489438,0.146053106,-0.08696118,0.28870061,0.316865146,-0.553940859,0.385695665,0.363830349,0.641884613,0.898225188,0.430476636,-0.08877676,38.5361557,0.35739994,12.33617973,2
900.444,90.0444,1478282917,37.35298547,-122.0355506,49.34283,0,118.125,4,10,1478282918,39.29334259,1.656440735,12.8745575,259.4501648,245.9914856,10,20946.86394,0.806716919,0.567810059,0.147888184,20946.8573,-1.274817131,-0.74400252,-0.158757424,20946.8573,1.452396512,1.462798435,-0.449149298,-1.196984887,-0.822482347,-0.154457182,-0.089751899,0.281758279,0.375661761,-0.556299151,0.376805786,0.370577243,0.641265282,0.89556855,0.434199363,-0.097097307,38.67595673,-0.034456253,11.89596081,2
910.135,91.0135,1478282917,37.35298547,-122.0355506,49.34283,0,118.125,4,10,1478282918,39.29334259,1.656440735,12.8745575,259.4501648,245.9914856,10,20946.87363,0.796035767,0.493896484,0.030517578,20946.86729,-1.681213382,-0.979980164,0.034340131,20946.86729,1.469182405,1.460239107,-0.450974823,-1.603381395,-1.058459759,0.03864035,-0.087810896,0.131966949,0.247189611,-0.559361414,0.37076151,0.376119721,0.638893314,0.894527793,0.43584311,-0.09930142,38.67595673,-0.034456253,11.89596081,2
919.819,91.9819,1478282917,37.35298547,-122.0355506,49.34283,0,118.125,4,10,1478282918,39.29334259,1.656440735,12.8745575,259.4501648,245.9914856,10,20946.88332,0.842880249,0.455596924,-0.056442261,20946.86729,-1.681213382,-0.979980164,0.034340131,20946.86729,1.469182405,1.460239107,-0.450974823,-1.603381395,-1.058459759,0.03864035,-0.087810896,0.131966949,0.247189611,-0.559361414,0.37076151,0.376119721,0.638893314,0.894527793,0.43584311,-0.09930142,38.67595673,-0.034456253,11.89596081,2
929.501,92.9501,1478282918,37.35298547,-122.0355506,49.38293,0,78.046875,4,10,1478282918,39.29334259,1.656440735,12.8745575,259.4501648,245.9914856,10,20946.893,0.913131714,0.434661865,-0.030532837,20946.89724,-0.713690154,-1.956938972,0.15664607,20946.89724,1.509894517,1.427197283,-0.447472301,-0.635858476,-2.035418272,0.16094628,-0.049384177,0.022908837,0.072574079,-0.559522709,0.34989451,0.399372614,0.636403713,0.892264426,0.432688087,-0.12901634,38.97837448,-0.275193214,10.86070824,2
939.105,93.9105,1478282918,37.35298547,-122.0355506,49.38293,0,78.046875,4,10,1478282918,39.29333496,0.888122559,12.74047852,258.1878052,244.729126,10,20946.9026,1.00881958,0.516571045,-0.058135986,20946.89724,-0.713690154,-1.956938972,0.15664607,20946.89724,1.509894517,1.427197283,-0.447472301,-0.635858476,-2.035418272,0.16094628,-0.049384177,0.022908837,0.072574079,-0.559522709,0.34989451,0.399372614,0.636403713,0.892264426,0.432688087,-0.12901634,38.97837448,-0.275193214,10.86070824,2
948.802,94.8802,1478282918,37.35298547,-122.0355506,49.38293,0,78.046875,4,10,1478282918,39.29333496,0.888122559,12.74047852,258.1878052,244.729126,10,20946.9123,0.991256714,0.585494995,-0.042709351,20946.90726,-0.433061951,-1.866457808,-0.381645632,20946.90726,1.514015818,1.408860984,-0.450384408,-0.355230629,-1.944936752,-0.377345443,0.120318018,0.081259407,0.087014809,-0.557187622,0.342003739,0.404964829,0.639201756,0.888501585,0.435311645,-0.145150796,39.47338104,-0.948124886,8.84860611,2
958.46,95.846,1478282918,37.35298547,-122.0355506,49.38293,0,78.046875,4,10,1478282918,39.25841522,0.713508606,11.56735992,257.8261414,244.3674622,10,20946.92196,1.072784424,0.703277588,-0.080215454,20946.91725,-0.334317531,-1.134320736,-0.903827605,20946.91725,1.515470012,1.395333932,-0.458473289,-0.256486446,-1.212799549,-0.899527431,0.108295925,0.142915413,0.113826796,-0.55647256,0.334768898,0.406871702,0.642435595,0.882960796,0.442579567,-0.156536147,39.47338104,-0.948124886,8.84860611,2
968.152,96.8152,1478282918,37.35298547,-122.0355506,49.38293,0,78.046875,4,10,1478282918,39.25841522,0.713508606,11.56735992,257.8261414,244.3674622,10,20946.93165,1.11756897,0.803375244,-0.116668701,20946.92724,-0.517203194,-0.429454699,-1.224438645,20946.92724,1.517309975,1.389556077,-0.470545212,-0.439372212,-0.507933378,-1.22013855,0.196062237,0.249905273,0.080444887,-0.558263808,0.328650804,0.405605872,0.644836449,0.876722217,0.4533723,-0.160660341,39.47338104,-0.948124886,8.84860611,2
977.843,97.7843,1478282918,37.35298547,-122.0355506,49.38293,0,78.046875,4,10,1478282918,39.25841522,0.713508606,11.56735992,257.8261414,244.3674622,10,20946.94134,1.069915771,0.746429443,-0.173614502,20946.92724,-0.517203194,-0.429454699,-1.224438645,20946.92724,1.517309975,1.389556077,-0.470545212,-0.439372212,-0.507933378,-1.22013855,0.196062237,0.249905273,0.080444887,-0.558263808,0.328650804,0.405605872,0.644836449,0.876722217,0.4533723,-0.160660341,39.47338104,-0.948124886,8.84860611,2
987.515,98.7515,1478282918,37.35298547,-122.0355506,49.38293,0,78.046875,4,10,1478282918,39.25841522,0.713508606,11.56735992,257.8261414,244.3674622,10,20946.95101,0.975540161,0.687667847,-0.33757019,20946.93724,-0.836311944,-0.155064685,-1.179961192,20946.93724,1.522375229,1.389132023,-0.483669853,-0.758481145,-0.233543128,-1.175661087,0.199189559,0.281398237,-0.013671269,-0.561870536,0.323001369,0.403579503,0.645829081,0.870726228,0.465031207,-0.159943238,39.81438828,-0.17053318,7.220114708,2
997.206,99.7206,1478282918,37.35298547,-122.0355506,49.38293,0,78.046875,4,10,1478282918,39.25841522,0.713508606,11.56735992,257.8261414,244.3674622,10,20946.9607,0.976547241,0.457839966,-0.519592285,20946.95722,-1.09240045,-0.815509727,-0.542786319,20946.95722,1.541038235,1.387489361,-0.502974086,-1.014569759,-0.893988013,-0.538486183,0.114066161,0.20563443,-0.177863196,-0.568637737,0.311123166,0.404495649,0.645164142,0.861473978,0.482033432,-0.159706995,39.81438828,-0.17053318,7.220114708,2
1006.89,100.689,1478282918,37.35298547,-122.0355506,49.38293,0,78.046875,4,10,1478282918,39.25841522,0.713508606,10.56182861,256.9269714,243.4682922,10,20946.97039,1.047668457,0.31036377,-0.48210144,20946.95722,-1.09240045,-0.815509727,-0.542786319,20946.95722,1.541038235,1.387489361,-0.502974086,-1.014569759,-0.893988013,-0.538486183,0.114066161,0.20563443,-0.177863196,-0.568637737,0.311123166,0.404495649,0.645164142,0.861473978,0.482033432,-0.159706995,39.81438828,-0.17053318,7.220114708,2
1016.591,101.6591,1478282918,37.35298547,-122.0355506,49.38293,0,78.046875,4,10,1478282918,39.25841522,0.713508606,10.56182861,256.9269714,243.4682922,10,20946.98009,0.984848022,0.446716309,-0.362823486,20946.96721,-0.864866358,-1.601121209,-0.263567194,20946.96721,1.550044832,1.377044186,-0.50773833,-0.787036061,-1.679599166,-0.259267062,0.190172896,-0.175838366,-0.313849151,-0.56890522,0.30367863,0.408999624,0.645635693,0.857495546,0.486202151,-0.168252274,39.89771271,0.764621735,6.703160286,2
1026.275,102.6275,1478282918,37.35298547,-122.0355506,49.38293,0,78.046875,4,10,1478282918,39.25841522,0.713508606,10.56182861,256.9269714,243.4682922,10,20946.98977,0.993011475,0.478378296,-0.301422119,20946.96721,-0.864866358,-1.601121209,-0.263567194,20946.96721,1.550044832,1.377044186,-0.50773833,-0.787036061,-1.679599166,-0.259267062,0.190172896,-0.175838366,-0.313849151,-0.56890522,0.30367863,0.408999624,0.645635693,0.857495546,0.486202151,-0.168252274,39.89771271,0.764621735,6.703160286,2
1035.96,103.596,1478282918,37.35298547,-122.0355506,49.38293,0,78.046875,4,10,1478282918,39.4330368,0.957977295,9.120567322,255.7653198,242.3066559,10,20946.99946,0.983078003,0.46232605,-0.306121826,20946.98719,0.123887324,-2.053219702,-0.623872916,20946.98719,1.552320929,1.336098771,-0.516196537,0.201717481,-2.131697655,-0.619572818,0.147151858,-0.015197538,-0.099173747,-0.562570665,0.28703669,0.418904108,0.652413622,0.845859647,0.493575841,-0.202248365,40.0478363,0.86504364,5.724270821,2
1045.645,104.5645,1478282918,37.35298547,-122.0355506,49.38293,0,78.046875,4,10,1478282918,39.85212708,1.586608887,7.44468689,255.4534912,241.994812,10,20947.00914,0.95098877,0.472366333,-0.285446167,20946.99718,0.555785208,-1.741290302,-1.004107871,20946.99718,1.543839649,1.31282755,-0.523657575,0.633615017,-1.819767833,-0.999807715,0.145737663,-0.037724871,-0.085191466,-0.558106851,0.279377097,0.420530581,0.658497693,0.837340355,0.500050902,-0.220930368,40.0478363,0.86504364,5.724270821,2
1055.309,105.5309,1478282918,37.35298547,-122.0355506,49.38293,0,78.046875,4,10,1478282918,39.85212708,1.586608887,7.44468689,255.4534912,241.994812,10,20947.01881,0.985717773,0.513259888,-0.242645264,20946.99718,0.555785208,-1.741290302,-1.004107871,20946.99718,1.543839649,1.31282755,-0.523657575,0.633615017,-1.819767833,-0.999807715,0.145737663,-0.037724871,-0.085191466,-0.558106851,0.279377097,0.420530581,0.658497693,0.837340355,0.500050902,-0.220930368,40.0478363,0.86504364,5.724270821,2
1064.982,106.4982,1478282918,37.35298547,-122.0355506,49.38293,0,78.046875,4,10,1478282918,39.85212708,1.586608887,7.44468689,255.4534912,241.994812,10,20947.02848,0.940368652,0.672058105,-0.17074585,20947.01715,0.966406298,-1.232013474,-2.058133501,20947.01715,1.512125687,1.266597818,-0.549467953,1.044235945,-1.310490847,-2.053833485,0.172069713,-0.008973684,0.012793456,-0.549890463,0.264388197,0.415472737,0.674612307,0.813648045,0.522233546,-0.255438715,40.28892517,1.774547577,3.316331387,2
1074.694,107.4694,1478282918,37.35298547,-122.0355506,49.38293,0,78.046875,4,10,1478282918,39.85212708,1.586608887,7.44468689,255.4534912,241.994812,10,20947.03819,0.919509888,0.680725098,-0.195877075,20947.02716,0.842743479,-0.507417409,-2.289951554,20947.02716,1.493094032,1.248412454,-0.567970127,0.920572817,-0.585894406,-2.285651445,0.140802726,0.134136125,0.09633889,-0.547891957,0.257433551,0.408773827,0.682968761,0.799565911,0.537921965,-0.267084748,40.28892517,1.774547577,3.316331387,2
1084.376,108.4376,1478282918,37.35298547,-122.0355506,49.38293,0,78.046875,4,10,1478282918,39.85212708,1.586608887,7.44468689,255.4534912,241.994812,10,20947.04787,0.944152832,0.694885254,-0.123855591,20947.04714,0.613684993,1.424473468,-1.598947005,20947.04714,1.461612794,1.243597573,-0.599754501,0.691514254,1.345996499,-1.594646931,0.137830094,0.116285257,0.069423452,-0.550246034,0.254124061,0.390198269,0.693105746,0.781679809,0.564439833,-0.265300542,40.28892517,1.774547577,3.316331387,2
1094.035,109.4035,1478282918,37.35298547,-122.0355506,49.38293,0,78.046875,4,10,1478282918,39.67750549,2.878791809,6.338600159,259.9942017,246.5355377,10,20947.05753,0.898010254,0.744903564,-0.093704224,20947.05714,0.70592198,2.257254594,-1.234019101,20947.05714,1.447899041,1.255670882,-0.609718934,0.783766627,2.178759575,-1.229719877,0.164713278,0.122248195,0.130232513,-0.553113934,0.258883992,0.379230196,0.695146397,0.779439569,0.572637081,-0.254088104,40.02657318,5.387726784,2.488027573,2
1103.74,110.374,1478282918,37.35298547,-122.0355506,49.38293,0,78.046875,4,10,1478282918,39.67750549,2.878791809,6.338600159,259.9942017,246.5355377,10,20947.06724,0.820922852,0.766418457,-0.098556519,20947.05714,0.70592198,2.257254594,-1.234019101,20947.05714,1.447899041,1.255670882,-0.609718934,0.783766627,2.178759575,-1.229719877,0.164713278,0.122248195,0.130232513,-0.553113934,0.258883992,0.379230196,0.695146397,0.779439569,0.572637081,-0.254088104,40.02657318,5.387726784,2.488027573,2
1113.424,111.3424,1478282918,37.35298547,-122.0355506,49.38293,0,78.046875,4,10,1478282918,39.67750549,4.136054993,5.936393738,261.881134,248.4224548,10,20947.07692,0.683639526,0.722335815,-0.122833252,20947.06713,0.804978789,2.66402715,-1.213938333,20947.06713,1.433466612,1.272502812,-0.618487025,0.882823229,2.585532427,-1.209639311,0.042146377,0.186615333,0.14089191,-0.556378154,0.265930702,0.366979408,0.696455544,0.778776467,0.579803109,-0.239448428,40.02657318,5.387726784,2.488027573,2
1123.096,112.3096,1478282918,37.35298547,-122.0355506,49.38293,0,78.046875,4,10,1478282918,39.78227997,5.987030029,6.171012878,264.4984741,251.0398102,10,20947.08659,0.552841187,0.656677246,-0.147979736,20947.07712,0.816351019,2.626263259,-1.458798152,20947.07712,1.418021324,1.289214844,-0.629173077,0.894195378,2.547768354,-1.454499125,-0.093033306,0.133859441,0.101832844,-0.559753677,0.272658709,0.353773085,0.697981127,0.77667284,0.58847636,-0.224666104,39.72891235,6.436120987,4.187431335,2
1132.762,113.2762,1478282918,37.35298547,-122.0355506,49.38293,0,78.046875,4,10,1478282918,39.78227997,5.987030029,6.171012878,264.4984741,251.0398102,10,20947.09626,0.474700928,0.613693237,-0.158508301,20947.08711,0.758512753,2.337488713,-1.709368321,20947.08711,1.402264618,1.303287009,-0.6427091,0.836356878,2.258994102,-1.705069304,-0.219162673,0.057311039,0.063609943,-0.563102662,0.277705876,0.340266869,0.700009497,0.772003889,0.599366188,-0.211589679,39.72891235,6.436120987,4.187431335,2
1142.472,114.2472,1478282918,37.35298547,-122.0355506,49.38293,0,78.046875,4,10,1478282918,39.78227997,5.987030029,6.171012878,264.4984741,251.0398102,10,20947.10597,0.44644165,0.59463501,-0.133773804,20947.09711,0.656780266,1.842094944,-1.831760547,20947.09711,1.387147892,1.313098723,-0.658151713,0.734624267,1.763600588,-1.827461481,-0.290299714,0.002037564,0.043113519,-0.566117973,0.280534365,0.327526707,0.702522004,0.765000641,0.611655653,-0.201621816,39.72891235,6.436120987,4.187431335,2
1152.154,115.2154,1478282918,37.35298547,-122.0355506,49.38293,0,78.046875,4,10,1478282918,39.78227997,5.987030029,6.171012878,264.4984741,251.0398102,10,20947.11565,0.484451294,0.62828064,-0.096832275,20947.1071,0.54833102,1.27872026,-1.83740059,20947.1071,1.373247788,1.317885206,-0.674268065,0.626174927,1.200225949,-1.833101511,-0.30987215,-0.029690713,0.061691839,-0.568558921,0.281083496,0.316358529,0.705443196,0.756313801,0.624325693,-0.195465639,38.99716187,8.476086617,6.687439442,2
1161.839,116.1839,1478282918,37.35298547,-122.0355506,49.38293,0,78.046875,4,10,1478282918,39.78227997,5.987030029,6.171012878,264.4984741,251.0398102,10,20947.12534,0.558685303,0.686523438,-0.03855896,20947.11707,0.49736291,0.850012044,-1.673022032,20947.11707,1.360422232,1.318456124,-0.689539614,0.575206578,0.771517992,-1.668722987,-0.262653679,-0.007901405,0.095798425,-0.57027244,0.280132098,0.306970252,0.708579294,0.747104943,0.63618207,-0.192630708,38.99716187,8.476086617,6.687439442,2
1171.522,117.1522,1478282918,37.35298547,-122.0355506,49.38293,0,78.046875,4,10,1478282918,39.78227997,5.987030029,6.171012878,264.4984741,251.0398102,10,20947.13502,0.612411499,0.777709961,-0.010864258,20947.12708,0.491607287,0.688036456,-1.230534621,20947.12708,1.3488659,1.317358253,-0.701186124,0.569450796,0.609542549,-1.226235509,-0.180984616,0.041399006,0.153021008,-0.571101192,0.279380462,0.299585859,0.71136369,0.739669919,0.645124435,-0.191579968,38.99716187,8.476086617,6.687439442,2
1181.198,118.1198,1478282918,37.35298547,-122.0355506,49.38293,0,78.046875,4,10,1478282918,39.43304443,8.012619019,6.640258789,268.7269592,255.26828,10,20947.1447,0.64515686,0.838897705,-0.015731812,20947.13707,0.501177889,0.731079531,-0.69631143,20947.13707,1.338822332,1.317150274,-0.707701809,0.579021335,0.652585685,-0.69201237,-0.12313395,0.127620772,0.179810703,-0.571129844,0.280130727,0.294049962,0.713352716,0.735545456,0.650089204,-0.190674961,38.99716187,8.476086617,6.687439442,2
1190.885,119.0885,1478282918,37.35298547,-122.0355506,49.38293,0,78.046875,4,10,1478282918,39.43304443,8.012619019,6.640258789,268.7269592,255.26828,10,20947.15438,0.61390686,0.806121826,-0.049591064,20947.14705,0.481022819,0.889595673,-0.297569902,20947.14705,1.330344563,1.319357212,-0.709945688,0.558866084,0.811102033,-0.293270856,-0.0893929,0.187105119,0.172955975,-0.570764977,0.2826366,0.289697151,0.714436459,0.734549761,0.651792586,-0.188687786,38.19148254,10.86482239,7.791724682,2
1200.566,120.0566,1478282918,37.35298547,-122.0355506,49.38293,0,78.046875,4,10,1478282918,38.73455811,9.619125366,7.98097229,271.9402466,258.4815674,10,20947.16406,0.596206665,0.761154175,-0.12020874,20947.15706,0.380450405,1.001831135,-0.143750511,20947.15706,1.323563783,1.323915802,-0.710313098,0.458293468,0.923337758,-0.139451489,-0.121263154,0.154050648,0.135687724,-0.570539811,0.286085527,0.285859296,0.71478938,0.735170007,0.652071178,-0.185278788,38.19148254,10.86482239,7.791724682,2
1210.248,121.0248,1478282918,37.35298547,-122.0355506,49.38293,0,78.046875,4,10,1478282918,38.73455811,9.619125366,7.98097229,271.9402466,258.4815674,10,20947.17375,0.623855591,0.711105347,-0.184967041,20947.16705,0.212620124,1.001446308,-0.18534749,20947.16705,1.318783568,1.33007791,-0.711065373,0.29046312,0.92295289,-0.181048468,-0.139614493,0.108512834,0.060419369,-0.570897027,0.28941757,0.282157883,0.714633461,0.735821128,0.652641356,-0.180628106,38.19148254,10.86482239,7.791724682,2
1219.927,121.9927,1478282918,37.35298547,-122.0355506,49.38293,0,78.046875,4,10,1478282918,38.73455811,9.619125366,7.98097229,271.9402466,258.4815674,10,20947.18343,0.673736572,0.683837891,-0.170898438,20947.16705,0.212620124,1.001446308,-0.18534749,20947.16705,1.318783568,1.33007791,-0.711065373,0.29046312,0.92295289,-0.181048468,-0.139614493,0.108512834,0.060419369,-0.570897027,0.28941757,0.282157883,0.714633461,0.735821128,0.652641356,-0.180628106,38.19148254,10.86482239,7.791724682,2
1229.594,122.9594,1478282918,37.35298547,-122.0355506,49.38293,0,78.046875,4,10,1478282918,38.21070862,11.19070435,9.489265442,274.6403198,261.1816406,10,20947.19309,0.705764771,0.712814331,-0.157394409,20947.18703,0.066023492,0.829010888,-0.447535699,20947.18703,1.312356011,1.342261155,-0.716997923,0.143866241,0.750517786,-0.443236679,-0.06044643,0.026713165,-0.000128383,-0.572989347,0.29376552,0.274517888,0.714160315,0.734183013,0.657124698,-0.170770049,37.90099716,11.24477863,8.62635231,2
1239.29,123.929,1478282918,37.35298547,-122.0355506,49.38293,0,78.046875,4,10,1478282918,38.21070862,11.19070435,9.489265442,274.6403198,261.1816406,10,20947.20279,0.715316772,0.765686035,-0.19241333,20947.19702,0.090470512,0.677341734,-0.485365636,20947.19702,1.308857603,1.346372888,-0.721291647,0.168313026,0.59884882,-0.481066644,-0.026356665,0.052459143,0.009725989,-0.57399506,0.29490587,0.27073717,0.714325965,0.732121408,0.66035521,-0.167120397,37.90099716,11.24477863,8.62635231,2
1248.971,124.8971,1478282918,37.35298547,-122.0355506,49.38293,0,78.046875,4,10,1478282918,38.21070862,11.19070435,9.489265442,274.6403198,261.1816406,10,20947.21247,0.785812378,0.775924683,-0.197311401,20947.19702,0.090470512,0.677341734,-0.485365636,20947.19702,1.308857603,1.346372888,-0.721291647,0.168313026,0.59884882,-0.481066644,-0.026356665,0.052459143,0.009725989,-0.57399506,0.29490587,0.27073717,0.714325965,0.732121408,0.66035521,-0.167120397,37.90099716,11.24477863,8.62635231,2
1258.635,125.8635,1478282918,37.35298547,-122.0355506,49.38293,0,78.046875,4,10,1478282918,38.21070862,11.19070435,9.489265442,274.6403198,261.1816406,10,20947.22213,0.820114136,0.724517822,-0.168716431,20947.21701,0.354690713,0.316991005,-0.26059484,20947.21701,1.298446834,1.346728408,-0.72714716,0.432532996,0.23849836,-0.25629586,0.057414163,0.111183621,-0.03131333,-0.573813476,0.296207797,0.265063209,0.716059028,0.728398204,0.664741039,-0.165998071,37.56088257,11.72991657,9.430472374,2
1268.335,126.8335,1478282918,37.35298547,-122.0355506,49.38293,0,78.046875,4,10,1478282918,37.47731018,12.27334595,10.39424896,277.1719971,263.7133179,10,20947.23183,0.768890381,0.651504517,-0.137023926,20947.227,0.48542822,0.178009416,-0.01541411,20947.227,1.291253785,1.343264442,-0.72669105,0.563270271,0.099517018,-0.011115146,0.091999993,0.06011758,-0.000127837,-0.572186048,0.297168015,0.263621896,0.717494106,0.728114128,0.66440022,-0.168588594,37.56088257,11.72991657,9.430472374,2
1278.017,127.8017,1478282918,37.35298547,-122.0355506,49.38293,0,78.046875,4,10,1478282918,37.23284149,12.65750885,10.56182861,278.0576172,264.598938,10,20947.24152,0.735031128,0.641159058,-0.139587402,20947.227,0.48542822,0.178009416,-0.01541411,20947.227,1.291253785,1.343264442,-0.72669105,0.563270271,0.099517018,-0.011115146,0.091999993,0.06011758,-0.000127837,-0.572186048,0.297168015,0.263621896,0.717494106,0.728114128,0.66440022,-0.168588594,37.56088257,11.72991657,9.430472374,2
1287.686,128.7686,1478282918,37.35298547,-122.0355506,49.38293,0,78.046875,4,10,1478282918,37.23284149,12.65750885,10.56182861,278.0576172,264.598938,10,20947.25118,0.699111938,0.643173218,-0.168518066,20947.24699,0.532116364,-0.120488332,0.432092028,20947.24699,1.278625906,1.334821907,-0.717266896,0.609956563,-0.198976591,0.436390132,0.002310705,-0.016168391,0.036598317,-0.567035587,0.300628981,0.264461152,0.719828562,0.732720435,0.657327473,-0.176185712,37.38133621,12.14871407,9.611925125,2
1297.383,129.7383,1478282918,37.35298547,-122.0355506,49.38293,0,78.046875,4,10,1478282918,37.23284149,12.65750885,10.56182861,278.0576172,264.598938,10,20947.26088,0.725860596,0.655517578,-0.197402954,20947.25698,0.459396886,-0.294273708,0.563810378,20947.25698,1.273170717,1.327919554,-0.710722509,0.537236869,-0.372761726,0.568108439,-0.036534797,-0.009208306,0.013751589,-0.563781467,0.301687967,0.266503918,0.721186862,0.735646725,0.652381539,-0.182269648,37.38133621,12.14871407,9.611925125,2
1307.068,130.7068,1478282918,37.35298547,-122.0355506,49.38293,0,78.046875,4,10,1478282918,37.23284149,12.65750885,10.56182861,278.0576172,264.598938,10,20947.27057,0.810317993,0.677902222,-0.220062256,20947.25698,0.459396886,-0.294273708,0.563810378,20947.25698,1.273170717,1.327919554,-0.710722509,0.537236869,-0.372761726,0.568108439,-0.036534797,-0.009208306,0.013751589,-0.563781467,0.301687967,0.266503918,0.721186862,0.735646725,0.652381539,-0.182269648,37.38133621,12.14871407,9.611925125,2
1316.751,131.6751,1478282918,37.35298547,-122.0355506,49.38293,0,78.046875,4,10,1478282918,37.23284149,12.65750885,10.56182861,278.0576172,264.598938,10,20947.28025,0.891952515,0.702438354,-0.215179443,20947.27696,0.467313665,-0.358382387,0.629353701,20947.27696,1.26400072,1.313342346,-0.6960818,0.545153379,-0.436870158,0.633651793,0.068248652,0.036686275,-0.024677487,-0.556976875,0.303454076,0.271851515,0.723732781,0.742069364,0.64121592,-0.195384771,37.56214905,11.8456974,9.27947998,2
1326.433,132.6433,1478282918,37.35298547,-122.0355506,49.38293,0,78.046875,4,10,1478282918,37.19791412,12.83213043,10.99755859,278.611969,265.1532898,10,20947.28993,0.947128296,0.730987549,-0.217971802,20947.28695,0.547550447,-0.34540427,0.661491398,20947.28695,1.258600846,1.305639676,-0.688189895,0.625389934,-0.423891813,0.665789485,0.146549717,0.067298248,-0.012764753,-0.553206621,0.304557202,0.274485088,0.725165693,0.745402813,0.635140121,-0.202414691,37.56214905,11.8456974,9.27947998,2
1336.1,133.61,1478282918,37.35298547,-122.0355506,49.38293,0,78.046875,4,10,1478282918,37.19791412,12.83213043,10.99755859,278.611969,265.1532898,10,20947.2996,0.941635132,0.723556519,-0.220443726,20947.28695,0.547550447,-0.34540427,0.661491398,20947.28695,1.258600846,1.305639676,-0.688189895,0.625389934,-0.423891813,0.665789485,0.146549717,0.067298248,-0.012764753,-0.553206621,0.304557202,0.274485088,0.725165693,0.745402813,0.635140121,-0.202414691,37.56214905,11.8456974,9.27947998,2
1345.798,134.5798,1478282918,37.35298547,-122.0355506,49.38293,0,78.046875,4,10,1478282918,37.19791412,12.83213043,10.99755859,278.611969,265.1532898,10,20947.3093,0.91418457,0.686141968,-0.216094971,20947.29694,0.557542095,-0.338575126,0.726680255,20947.29694,1.253069261,1.297976248,-0.679643347,0.635381341,-0.417062461,0.73097837,0.192605123,0.095040858,-0.010867679,-0.549223677,0.305884502,0.277233264,0.726587738,0.749029994,0.628515661,-0.209576041,37.89722824,11.27565575,8.602575302,2
1355.481,135.5481,1478282918,37.35298547,-122.0355506,49.38293,0,78.046875,4,10,1478282919,37.79162598,11.81934357,10.15962219,276.8110352,263.352356,10,20947.31898,0.869659424,0.637481689,-0.176025391,20947.31692,0.272395839,-0.372356792,1.053094056,20947.31692,1.247800571,1.285724232,-0.659218543,0.350234985,-0.45084396,1.05739212,0.155615777,0.073642649,0.006206563,-0.541628257,0.309011432,0.284934341,0.727985706,0.758568764,0.612499297,-0.222301528,38.07359695,10.93387699,8.258104324,2
1365.153,136.5153,1478282918,37.35298547,-122.0355506,49.38293,0,78.046875,4,10,1478282919,37.79162598,11.81934357,10.15962219,276.8110352,263.352356,10,20947.32865,0.835494995,0.624710083,-0.169891357,20947.32692,0.097369431,-0.270438416,1.249532014,20947.32692,1.249479871,1.282957974,-0.647057343,0.175208554,-0.348925561,1.253830075,0.104622416,0.034640502,0.050471585,-0.538431977,0.311195304,0.290004092,0.727424302,0.765037,0.602841198,-0.22649698,38.07359695,10.93387699,8.258104324,2
1374.845,137.4845,1478282918,37.35298547,-122.0355506,49.38293,0,78.046875,4,10,1478282919,37.79162598,11.81934357,10.15962219,276.8110352,263.352356,10,20947.33834,0.878738403,0.667266846,-0.230072021,20947.32692,0.097369431,-0.270438416,1.249532014,20947.32692,1.249479871,1.282957974,-0.647057343,0.175208554,-0.348925561,1.253830075,0.104622416,0.034640502,0.050471585,-0.538431977,0.311195304,0.290004092,0.727424302,0.765037,0.602841198,-0.22649698,38.07359695,10.93387699,8.258104324,2
1384.524,138.4524,1478282918,37.35298547,-122.0355506,49.38293,0,78.046875,4,10,1478282919,37.79162598,11.81934357,10.15962219,276.8110352,263.352356,10,20947.34802,0.81312561,0.68598938,-0.180328369,20947.34689,-0.205297762,-0.117401462,1.349366466,20947.34689,1.259497921,1.283361144,-0.621043323,-0.127459094,-0.195888162,1.353664517,0.098831773,0.085382864,0.000485304,-0.533471203,0.316432951,0.301426565,0.724168964,0.779906631,0.581883967,-0.230557323,38.59301758,9.469234467,7.632641792,2
1394.206,139.4206,1478282918,37.35298547,-122.0355506,49.38293,0,78.046875,4,10,1478282919,37.79162598,11.81934357,10.15962219,276.8110352,263.352356,10,20947.3577,0.819320679,0.750915527,-0.199584961,20947.34689,-0.205297762,-0.117401462,1.349366466,20947.34689,1.259497921,1.283361144,-0.621043323,-0.127459094,-0.195888162,1.353664517,0.098831773,0.085382864,0.000485304,-0.533471203,0.316432951,0.301426565,0.724168964,0.779906631,0.581883967,-0.230557323,38.59301758,9.469234467,7.632641792,2
1403.862,140.3862,1478282918,37.35298547,-122.0355506,49.38293,0,78.046875,4,10,1478282919,37.79162598,11.81934357,10.15962219,276.8110352,263.352356,10,20947.36736,0.843841553,0.744064331,-0.289886475,20947.3569,-0.362038641,0.067963338,1.224228521,20947.3569,1.266748118,1.287052344,-0.609647121,-0.28420043,-0.010523045,1.228526473,0.032253057,0.178337336,0.02993362,-0.532286179,0.319236798,0.306506015,0.721673994,0.787067592,0.572578192,-0.229518577,38.59301758,9.469234467,7.632641792,2
1413.566,141.3566,1478282918,37.35298547,-122.0355506,49.38293,0,78.046875,4,10,1478282919,38.24563599,10.94624329,9.790924072,275.0430298,261.5843506,10,20947.37706,0.739822388,0.675537109,-0.287750244,20947.37687,-0.728576159,-0.257268019,0.931734338,20947.37687,1.285558093,1.294805584,-0.592514403,-0.65073812,-0.335754246,0.936032295,0.045695748,0.185615748,-0.063836798,-0.532168079,0.322137076,0.316364913,0.716196957,0.798145831,0.558448553,-0.226049677,38.8968277,8.190842628,7.569124222,2
1423.254,142.3254,1478282918,37.35298547,-122.0355506,49.38293,0,78.046875,4,10,1478282919,38.24563599,10.94624329,9.790924072,275.0430298,261.5843506,10,20947.38675,0.599395752,0.560150146,-0.198028564,20947.37687,-0.728576159,-0.257268019,0.931734338,20947.37687,1.285558093,1.294805584,-0.592514403,-0.65073812,-0.335754246,0.936032295,0.045695748,0.185615748,-0.063836798,-0.532168079,0.322137076,0.316364913,0.716196957,0.798145831,0.558448553,-0.226049677,38.8968277,8.190842628,7.569124222,2
1432.945,143.2945,1478282918,37.35298547,-122.0355506,49.38293,0,78.046875,4,10,1478282919,38.24563599,10.94624329,9.790924072,275.0430298,261.5843506,10,20947.39644,0.57522583,0.539276123,-0.24458313,20947.38687,-0.925418651,-0.537926582,0.641780544,20947.38687,1.297159451,1.295773117,-0.587654535,-0.84758085,-0.616412461,0.646078467,-0.201570943,0.005739595,0.02798315,-0.532962919,0.320849917,0.32171413,0.713796803,0.80096668,0.554410577,-0.226011708,38.8968277,8.190842628,7.569124222,2
1442.628,144.2628,1478282918,37.35298547,-122.0355506,49.38293,0,78.046875,4,10,1478282919,38.31549072,9.96837616,9.455741882,272.3719482,258.913269,10,20947.40613,0.610992432,0.575820923,-0.22227478,20947.40683,-1.252033521,-1.393227132,-0.185578652,20947.40683,1.322580244,1.287696843,-0.591145384,-1.174195886,-1.471712828,-0.181280717,-0.222026244,-0.018036282,-0.012652057,-0.536525174,0.310121268,0.331886068,0.71120825,0.797252059,0.557312429,-0.231931075,39.21766663,6.997652054,7.09592247,2
1452.304,145.2304,1478282918,37.35298547,-122.0355506,49.38293,0,78.046875,4,10,1478282919,38.31549072,9.96837616,9.455741882,272.3719482,258.913269,10,20947.4158,0.517944336,0.614578247,-0.051391602,20947.40683,-1.252033521,-1.393227132,-0.185578652,20947.40683,1.322580244,1.287696843,-0.591145384,-1.174195886,-1.471712828,-0.181280717,-0.222026244,-0.018036282,-0.012652057,-0.536525174,0.310121268,0.331886068,0.71120825,0.797252059,0.557312429,-0.231931075,39.21766663,6.997652054,7.09592247,2
1461.992,146.1992,1478282918,37.35298547,-122.0355506,49.38293,0,78.046875,4,10,1478282919,38.31549072,8.920661926,8.785392761,270.2791443,256.8204651,10,20947.42549,0.34916687,0.608642578,0.009613037,20947.41685,-1.331750987,-1.512020362,-0.50169108,20947.41685,1.335433322,1.279024979,-0.598734729,-1.25391376,-1.590505838,-0.497393191,-0.273192763,0.050980497,0.18622081,-0.538918078,0.301265831,0.336528752,0.711023631,0.791137099,0.563597739,-0.237612411,39.21766663,6.997652054,7.09592247,2
1471.676,147.1676,1478282918,37.35298547,-122.0355506,49.38293,0,78.046875,4,10,1478282919,38.31549072,8.920661926,8.785392761,270.2791443,256.8204651,10,20947.43517,0.200531006,0.595825195,0.011947632,20947.43683,-1.437417496,-1.021820023,-0.79031862,20947.43683,1.36095323,1.26727718,-0.619983903,-1.359580398,-1.100305319,-0.786020696,-0.427518606,0.027620519,0.252868116,-0.545840296,0.283603313,0.342475306,0.710167725,0.776685476,0.581022084,-0.243255064,39.4001236,7.122327805,5.852124214,2
1481.356,148.1356,1478282918,37.35298547,-122.0355506,49.38293,0,78.046875,4,10,1478282919,38.31549072,8.920661926,8.785392761,270.2791443,256.8204651,10,20947.44485,0.098083496,0.536468506,0.008087158,20947.43683,-1.437417496,-1.021820023,-0.79031862,20947.43683,1.36095323,1.26727718,-0.619983903,-1.359580398,-1.100305319,-0.786020696,-0.427518606,0.027620519,0.252868116,-0.545840296,0.283603313,0.342475306,0.710167725,0.776685476,0.581022084,-0.243255064,39.4001236,7.122327805,5.852124214,2
1491.036,149.1036,1478282918,37.35298547,-122.0355506,49.38293,0,78.046875,4,10,1478282919,38.31549072,8.920661926,8.785392761,270.2791443,256.8204651,10,20947.45453,0.019241333,0.480407715,-0.03553772,20947.44681,-1.541136169,-0.739114022,-0.782110225,20947.44681,1.374902009,1.266614781,-0.631788686,-1.463299274,-0.817599058,-0.777812362,-0.671842754,-0.054120615,0.249785393,-0.55050598,0.275851491,0.344103279,0.708831471,0.76992625,0.590589106,-0.241698235,39.4001236,7.122327805,5.852124214,2
1500.712,150.0712,1478282918,37.35298547,-122.0355506,49.38293,0,78.046875,4,10,1478282919,38.52502441,8.85080719,7.9139328,268.3764648,254.9178009,10,20947.46421,0.006469727,0.485351563,-0.062316895,20947.46681,-1.856910109,-0.773576125,-0.401248628,20947.46681,1.409966546,1.272162167,-0.652485411,-1.779073477,-0.852060974,-0.396950752,-0.74016726,-0.126755416,0.198238894,-0.561003025,0.26150966,0.34879058,0.703728239,0.759408593,0.607163131,-0.233776614,39.39212036,7.878930092,4.850558281,2
1510.396,151.0396,1478282918,37.35298547,-122.0355506,49.38293,0,78.046875,4,10,1478282919,38.52502441,8.85080719,7.9139328,268.3764648,254.9178009,10,20947.47389,0.082855225,0.535308838,-0.05531311,20947.46681,-1.856910109,-0.773576125,-0.401248628,20947.46681,1.409966546,1.272162167,-0.652485411,-1.779073477,-0.852060974,-0.396950752,-0.74016726,-0.126755416,0.198238894,-0.561003025,0.26150966,0.34879058,0.703728239,0.759408593,0.607163131,-0.233776614,39.39212036,7.878930092,4.850558281,2
1520.082,152.0082,1478282918,37.35298547,-122.0355506,49.38293,0,78.046875,4,10,1478282919,38.73457336,9.06035614,7.31060791,265.335968,251.8772888,10,20947.48358,0.282241821,0.680923462,-0.031784058,20947.46681,-1.856910109,-0.773576125,-0.401248628,20947.46681,1.409966546,1.272162167,-0.652485411,-1.779073477,-0.852060974,-0.396950752,-0.74016726,-0.126755416,0.198238894,-0.561003025,0.26150966,0.34879058,0.703728239,0.759408593,0.607163131,-0.233776614,39.39212036,7.878930092,4.850558281,2
1529.748,152.9748,1478282918,37.35298547,-122.0355506,49.38293,0,78.046875,4,10,1478282919,38.73457336,9.06035614,7.31060791,265.335968,251.8772888,10,20947.49325,0.60585022,0.89175415,-0.035919189,20947.49678,-2.549184453,-0.463428379,0.074987958,20947.49678,1.488842782,1.296988504,-0.672285236,-2.471348047,-0.541912854,0.079285808,-0.47101292,0.058147881,0.179776549,-0.579674429,0.241241072,0.363253609,0.688351013,0.753254712,0.622775555,-0.211560607,39.45730972,7.874225616,4.296747208,2
1539.447,153.9447,1478282918,37.35298547,-122.0355506,49.38293,0,78.046875,4,10,1478282919,38.73457336,9.06035614,7.31060791,265.335968,251.8772888,10,20947.50295,0.813796997,1.063308716,-0.015853882,20947.49678,-2.549184453,-0.463428379,0.074987958,20947.49678,1.488842782,1.296988504,-0.672285236,-2.471348047,-0.541912854,0.079285808,-0.47101292,0.058147881,0.179776549,-0.579674429,0.241241072,0.363253609,0.688351013,0.753254712,0.622775555,-0.211560607,39.45730972,7.874225616,4.296747208,2
1549.129,154.9129,1478282918,37.35298547,-122.0355506,49.38293,0,78.046875,4,10,1478282919,38.73457336,9.06035614,7.31060791,265.335968,251.8772888,10,20947.51263,0.8309021,1.110275269,-0.012619019,20947.49678,-2.549184453,-0.463428379,0.074987958,20947.49678,1.488842782,1.296988504,-0.672285236,-2.471348047,-0.541912854,0.079285808,-0.47101292,0.058147881,0.179776549,-0.579674429,0.241241072,0.363253609,0.688351013,0.753254712,0.622775555,-0.211560607,39.45730972,7.874225616,4.296747208,2
1558.787,155.8787,1478282918,37.35298547,-122.0355506,49.38293,0,78.046875,4,10,1478282919,38.699646,8.955581665,6.539703369,262.5048218,249.0461578,10,20947.52229,0.87336731,1.133163452,-0.067993164,20947.52676,-2.716616059,-0.28255793,-0.231681965,20947.52676,1.587511025,1.350769928,-0.692965711,-2.638780355,-0.361041963,-0.227384135,0.080095105,0.471453607,0.155296817,-0.605109261,0.223349197,0.374529371,0.666097342,0.750806987,0.638821661,-0.167915836,39.51523972,7.497097969,4.436674595,2
1568.492,156.8492,1478282918,37.35298547,-122.0355506,49.38293,0,78.046875,4,10,1478282919,38.699646,8.955581665,6.539703369,262.5048218,249.0461578,10,20947.53199,1.00239563,1.155609131,-0.184341431,20947.52676,-2.716616059,-0.28255793,-0.231681965,20947.52676,1.587511025,1.350769928,-0.692965711,-2.638780355,-0.361041963,-0.227384135,0.080095105,0.471453607,0.155296817,-0.605109261,0.223349197,0.374529371,0.666097342,0.750806987,0.638821661,-0.167915836,39.51523972,7.497097969,4.436674595,2
1578.17,157.817,1478282918,37.35298547,-122.0355506,49.38293,0,78.046875,4,10,1478282919,38.699646,8.955581665,6.539703369,262.5048218,249.0461578,10,20947.54167,1.102218628,1.010879517,-0.315444946,20947.52676,-2.716616059,-0.28255793,-0.231681965,20947.52676,1.587511025,1.350769928,-0.692965711,-2.638780355,-0.361041963,-0.227384135,0.080095105,0.471453607,0.155296817,-0.605109261,0.223349197,0.374529371,0.666097342,0.750806987,0.638821661,-0.167915836,39.51523972,7.497097969,4.436674595,2
1587.836,158.7836,1478282918,37.35298547,-122.0355506,49.38293,0,78.046875,4,10,1478282919,38.699646,8.955581665,6.539703369,262.5048218,249.0461578,10,20947.55133,1.150161743,0.74067688,-0.317276001,20947.54673,-2.422254734,-1.178493257,-0.571721564,20947.54673,1.648721405,1.372042257,-0.712806907,-2.344419479,-1.256976843,-0.567423761,0.360582918,0.356919676,-0.166069701,-0.61912988,0.204915999,0.382262567,0.654647199,0.74163574,0.65395987,-0.149375245,39.51523972,7.497097969,4.436674595,2
1597.514,159.7514,1478282918,37.35298547,-122.0355506,49.38293,0,78.046875,4,10,1478282919,39.25843811,8.676185608,5.534179688,256.5228271,243.0641632,10,20947.56101,1.198974609,0.628921509,-0.383331299,20947.55672,-2.133403754,-1.425331539,-0.318057867,20947.55672,1.675404655,1.375176518,-0.720814842,-2.055568695,-1.503814816,-0.313760072,0.413222194,0.080679826,-0.171248585,-0.623697091,0.194905689,0.387588399,0.650222227,0.736939549,0.659997046,-0.146027416,39.52223969,7.61537075,4.164531708,2
1607.202,160.7202,1478282918,37.35298547,-122.0355506,49.38293,0,78.046875,4,10,1478282919,39.25843811,8.676185608,5.534179688,256.5228271,243.0641632,10,20947.5707,1.17565918,0.62651062,-0.410949707,20947.55672,-2.133403754,-1.425331539,-0.318057867,20947.55672,1.675404655,1.375176518,-0.720814842,-2.055568695,-1.503814816,-0.313760072,0.413222194,0.080679826,-0.171248585,-0.623697091,0.194905689,0.387588399,0.650222227,0.736939549,0.659997046,-0.146027416,39.52223969,7.61537075,4.164531708,2
1616.885,161.6885,1478282918,37.35298547,-122.0355506,49.38293,0,78.046875,4,10,1478282919,39.25843811,8.676185608,5.534179688,256.5228271,243.0641632,10,20947.58038,1.100006104,0.671707153,-0.390029907,20947.57671,-1.215333031,-1.703848387,0.196685365,20947.57671,1.715289043,1.367282067,-0.72565079,-1.137498021,-1.782331467,0.200983137,0.443029851,-0.037111796,-0.259756029,-0.62661245,0.178213337,0.401514807,0.643725643,0.732629359,0.663622439,-0.151193693,39.52223969,7.61537075,4.164531708,2
1626.568,162.6568,1478282918,37.35298547,-122.0355506,49.38293,0,78.046875,4,10,1478282919,39.25843811,8.676185608,5.534179688,256.5228271,243.0641632,10,20947.59007,1.135269165,0.715133667,-0.375640869,20947.5867,-0.788934309,-1.538976345,0.125639684,20947.5867,1.726249614,1.357828019,-0.725705095,-0.711099565,-1.617459178,0.12993744,0.368874103,0.008044112,-0.231924385,-0.625666318,0.171723316,0.407982547,0.642341812,0.73113203,0.66366303,-0.158105522,39.66793823,7.541920662,2.630329132,2
1636.25,163.625,1478282918,37.35298547,-122.0355506,49.38293,0,78.046875,4,10,1478282919,39.25843811,8.676185608,5.534179688,256.5228271,243.0641632,10,20947.59975,1.202072144,0.709503174,-0.393585205,20947.5867,-0.788934309,-1.538976345,0.125639684,20947.5867,1.726249614,1.357828019,-0.725705095,-0.711099565,-1.617459178,0.12993744,0.368874103,0.008044112,-0.231924385,-0.625666318,0.171723316,0.407982547,0.642341812,0.73113203,0.66366303,-0.158105522,39.66793823,7.541920662,2.630329132,2
1645.932,164.5932,1478282918,37.35298547,-122.0355506,49.38293,0,78.046875,4,10,1478282919,39.25843811,8.676185608,5.534179688,256.5228271,243.0641632,10,20947.60943,1.167221069,0.695098877,-0.408050537,20947.5967,-0.61217578,-1.302231977,-0.091946169,20947.5967,1.733524779,1.348373064,-0.72721417,-0.534341276,-1.380714536,-0.087648422,0.473445356,0.044712052,-0.228795141,-0.624569177,0.165886451,0.412827936,0.641847431,0.728626788,0.664791107,-0.164790064,39.66793823,7.541920662,2.630329132,2
1655.614,165.5614,1478282918,37.35298547,-122.0355506,49.38293,0,78.046875,4,10,1478282919,38.83935547,8.326942444,4.863830566,255.2793884,241.8207245,10,20947.61911,1.089950562,0.648712158,-0.422866821,20947.61669,-0.538853096,-0.894782711,-0.269355308,20947.61669,1.744919366,1.333263207,-0.734567738,-0.461018801,-0.973265171,-0.265057564,0.44593823,0.024832448,-0.233425319,-0.623452751,0.154900154,0.419035584,0.641655506,0.72128284,0.670266449,-0.174625218,39.74351883,7.496767998,1.263245583,2
1665.294,166.5294,1478282918,37.35298547,-122.0355506,49.38293,0,78.046875,4,10,1478282919,38.83935547,8.326942444,4.863830566,255.2793884,241.8207245,10,20947.62879,0.954330444,0.599655151,-0.422073364,20947.62668,-0.437091048,-0.684449711,-0.180790821,20947.62668,1.749349433,1.328127485,-0.737372933,-0.359256744,-0.762932181,-0.176493093,0.371402025,-0.023633422,-0.244992122,-0.623134845,0.150882786,0.421234162,0.64148198,0.718548536,0.672345579,-0.177874699,39.74351883,7.496767998,1.263245583,2
1674.995,167.4995,1478282918,37.35298547,-122.0355506,49.38293,0,78.046875,4,10,1478282919,38.83935547,8.326942444,4.863830566,255.2793884,241.8207245,10,20947.63849,0.837371826,0.562347412,-0.419998169,20947.62668,-0.437091048,-0.684449711,-0.180790821,20947.62668,1.749349433,1.328127485,-0.737372933,-0.359256744,-0.762932181,-0.176493093,0.371402025,-0.023633422,-0.244992122,-0.623134845,0.150882786,0.421234162,0.64148198,0.718548536,0.672345579,-0.177874699,39.74351883,7.496767998,1.263245583,2
1684.677,168.4677,1478282918,37.35298547,-122.0355506,49.38293,0,78.046875,4,10,1478282919,39.15366364,8.292022705,3.020347595,253.9312439,240.4725647,10,20947.64818,0.709274292,0.589675903,-0.377792358,20947.64665,-0.214023077,-0.618649658,-0.174847711,20947.64665,1.753873365,1.317664584,-0.74153189,-0.136189207,-0.697131634,-0.170549989,0.123437002,-0.113070957,-0.235317126,-0.621881572,0.144647121,0.424724073,0.641833298,0.713934839,0.675418377,-0.184681043,39.71166611,7.762877464,0.256687164,2
1694.346,169.4346,1478282918,37.35298547,-122.0355506,49.38293,0,78.046875,4,10,1478282919,39.15366364,8.292022705,3.020347595,253.9312439,240.4725647,10,20947.65784,0.697158813,0.694274902,-0.380691528,20947.65665,-0.190617087,-0.873091797,-0.222251978,20947.65665,1.75464944,1.309477614,-0.743765325,-0.112783462,-0.951573551,-0.217954278,-0.001665581,-0.087387793,-0.18766281,-0.620530687,0.140985436,0.426863192,0.64253606,0.710939884,0.677063704,-0.190129548,39.71166611,7.762877464,0.256687164,2
1704.038,170.4038,1478282918,37.35298547,-122.0355506,49.38293,0,78.046875,4,10,1478282919,38.66473389,8.292022705,1.612609863,254.2449036,240.7862396,10,20947.66754,0.771240234,0.770431519,-0.431869507,20947.65665,-0.190617087,-0.873091797,-0.222251978,20947.65665,1.75464944,1.309477614,-0.743765325,-0.112783462,-0.951573551,-0.217954278,-0.001665581,-0.087387793,-0.18766281,-0.620530687,0.140985436,0.426863192,0.64253606,0.710939884,0.677063704,-0.190129548,39.71166611,7.762877464,0.256687164,2
1713.719,171.3719,1478282918,37.35298547,-122.0355506,49.38293,0,78.046875,4,10,1478282919,37.96624756,9.619132996,-2.610618591,257.3933105,243.9346466,10,20947.67722,0.832809448,0.778030396,-0.469024658,20947.67663,-0.221103357,-2.071447975,-0.485182411,20947.67663,1.755555763,1.276740155,-0.751843699,-0.143269971,-2.149929285,-0.480884731,0.072162271,0.087444901,-0.220163852,-0.614772513,0.127286809,0.434912074,0.645526385,0.699077964,0.682986617,-0.211705655,39.66050339,7.994428635,-0.691560745,2
1723.399,172.3399,1478282918,37.35298547,-122.0355506,49.38293,0,78.046875,4,10,1478282919,37.26777649,10.17791748,-4.688720703,257.9429932,244.484314,10,20947.6869,0.919006348,0.785186768,-0.499893188,20947.68663,-0.07291522,-2.664040732,-0.595805062,20947.68663,1.753783484,1.249541366,-0.757346458,0.004917935,-2.742522001,-0.591507375,0.143323988,0.091034755,-0.239575773,-0.609567121,0.117061889,0.441069583,0.648214518,0.68948549,0.686995625,-0.229448885,39.66050339,7.994428635,-0.691560745,2
1733.081,173.3081,1478282918,37.35298547,-122.0355506,49.38293,0,78.046875,4,10,1478282919,36.53437042,11.19071198,-6.264045715,258.2810059,244.8223267,10,20947.69658,0.971542358,0.809127808,-0.496078491,20947.68663,-0.07291522,-2.664040732,-0.595805062,20947.68663,1.753783484,1.249541366,-0.757346458,0.004917935,-2.742522001,-0.591507375,0.143323988,0.091034755,-0.239575773,-0.609567121,0.117061889,0.441069583,0.648214518,0.68948549,0.686995625,-0.229448885,39.66050339,7.994428635,-0.691560745,2
1742.747,174.2747,1478282918,37.35298547,-122.0355506,49.38293,0,78.046875,4,10,1478282919,36.11528778,12.587677,-8.275108337,256.9989319,243.5402679,10,20947.70625,0.963973999,0.803451538,-0.400924683,20947.7066,0.720180011,-3.396197512,-0.870268846,20947.7066,1.734463877,1.170914449,-0.768175101,0.798012972,-3.474678516,-0.865971148,0.309100777,0.114303842,-0.216094911,-0.592709698,0.093292149,0.455286741,0.657803749,0.662441611,0.69482398,-0.27998358,39.3967247,8.592839241,-3.377232552,2
1752.435,175.2435,1478282919,37.35298547,-122.0355506,49.79327,0,126.9140625,4,10,1478282919,36.32483673,12.5178299,-8.073997498,258.0729675,244.6142883,10,20947.71593,0.893295288,0.752426147,-0.231735229,20947.7066,0.720180011,-3.396197512,-0.870268846,20947.7066,1.734463877,1.170914449,-0.768175101,0.798012972,-3.474678516,-0.865971148,0.309100777,0.114303842,-0.216094911,-0.592709698,0.093292149,0.455286741,0.657803749,0.662441611,0.69482398,-0.27998358,39.3967247,8.592839241,-3.377232552,2
1762.125,176.2125,1478282919,37.35298547,-122.0355506,49.79327,0,126.9140625,4,10,1478282919,36.56930542,12.27336121,-6.163490295,260.0223083,246.5636292,10,20947.72562,0.834259033,0.726150513,-0.178451538,20947.71661,1.078755211,-3.16952655,-1.02928513,20947.71661,1.715105795,1.124129219,-0.772691,1.156587839,-3.248007298,-1.024987459,0.247509405,0.054361533,0.077564605,-0.581933624,0.081873931,0.461345228,0.664688271,0.645785868,0.698064625,-0.309299827,39.3967247,8.592839241,-3.377232552,2
1771.807,177.1807,1478282919,37.35298547,-122.0355506,49.79327,0,126.9140625,4,10,1478282919,36.84870148,12.2035141,-3.549110413,260.4986267,247.0399475,10,20947.73531,0.753219604,0.704544067,-0.174880981,20947.73659,1.080451378,-2.032477406,-1.482246221,20947.73659,1.667851532,1.039533364,-0.784035713,1.15828383,-2.110957861,-1.477948546,0.223784208,0.020007785,0.180272505,-0.562748872,0.062862429,0.466498343,0.679515503,0.610474825,0.706142724,-0.358724058,38.6163559,9.508973122,-7.463317871,2
1781.489,178.1489,1478282919,37.35298547,-122.0355506,49.79327,0,126.9140625,4,10,1478282919,36.88362122,11.81934357,-2.711166382,260.8628235,247.4041595,10,20947.74499,0.654373169,0.673019409,-0.207839966,20947.73659,1.080451378,-2.032477406,-1.482246221,20947.73659,1.667851532,1.039533364,-0.784035713,1.15828383,-2.110957861,-1.477948546,0.223784208,0.020007785,0.180272505,-0.562748872,0.062862429,0.466498343,0.679515503,0.610474825,0.706142724,-0.358724058,38.6163559,9.508973122,-7.463317871,2
1791.148,179.1148,1478282919,37.35298547,-122.0355506,49.79327,0,126.9140625,4,10,1478282919,37.30271149,11.60980225,-2.443031311,259.2654114,245.8067322,10,20947.75465,0.508041382,0.616729736,-0.226806641,20947.74656,0.889688084,-1.398885284,-1.702151688,20947.74656,1.643362486,1.005846754,-0.792779246,0.967520237,-1.477365494,-1.697854042,0.061564211,-0.039287277,0.167921558,-0.555956785,0.055057165,0.465140467,0.686676858,0.592808962,0.712306678,-0.375761539,38.6163559,9.508973122,-7.463317871,2
1800.855,180.0855,1478282919,37.35298547,-122.0355506,49.79327,0,126.9140625,4,10,1478282919,37.30271149,11.60980225,-2.443031311,259.2654114,245.8067322,10,20947.76435,0.340057373,0.572296143,-0.244796753,20947.76657,0.518985648,-0.107738981,-1.757393638,20947.76657,1.597761846,0.959864855,-0.814401264,0.596817613,-0.186219096,-1.753095984,-0.054119859,-0.110585079,0.166878387,-0.54883743,0.043988194,0.456102649,0.699151549,0.562161267,0.72731483,-0.393685043,37.63996887,10.95663834,-10.02644444,2
1810.537,181.0537,1478282919,37.35298547,-122.0355506,49.79327,0,126.9140625,4,10,1478282919,37.30271149,11.60980225,-2.443031311,259.2654114,245.8067322,10,20947.77404,0.226654053,0.543624878,-0.194076538,20947.76657,0.518985648,-0.107738981,-1.757393638,20947.76657,1.597761846,0.959864855,-0.814401264,0.596817613,-0.186219096,-1.753095984,-0.054119859,-0.110585079,0.166878387,-0.54883743,0.043988194,0.456102649,0.699151549,0.562161267,0.72731483,-0.393685043,37.63996887,10.95663834,-10.02644444,2
1820.218,182.0218,1478282919,37.35298547,-122.0355506,49.79327,0,126.9140625,4,10,1478282919,37.30271149,11.60980225,-2.443031311,259.2654114,245.8067322,10,20947.78372,0.17855835,0.494186401,-0.085479736,20947.77656,0.464249698,0.391286008,-1.561261677,20947.77656,1.577460082,0.946880744,-0.824350421,0.542081475,0.312806129,-1.55696404,-0.32444796,-0.190481976,0.202626988,-0.547657302,0.041469422,0.44981543,0.704285344,0.551102042,0.734106839,-0.396703541,37.63996887,10.95663834,-10.02644444,2
1829.875,182.9875,1478282919,37.35298547,-122.0355506,49.79327,0,126.9140625,4,10,1478282919,37.30271149,11.60980225,-2.443031311,259.2654114,245.8067322,10,20947.79337,0.179412842,0.451660156,-0.050689697,20947.78655,0.437274007,0.804717,-1.197319409,20947.78655,1.559994777,0.940342065,-0.831743757,0.515105546,0.726237357,-1.193021774,-0.365538925,-0.244920671,0.311608285,-0.547492007,0.041333905,0.443412534,0.708469713,0.544097304,0.739107072,-0.397088021,37.0242691,12.62747002,-10.34867477,2
1839.582,183.9582,1478282919,37.35298547,-122.0355506,49.79327,0,126.9140625,4,10,1478282919,37.30271149,11.60980225,-2.443031311,259.2654114,245.8067322,10,20947.80308,0.193496704,0.473007202,-0.059875488,20947.79654,0.361859676,0.977279719,-0.755719097,20947.79654,1.546890111,0.939322116,-0.835996152,0.439691126,0.898800135,-0.751421511,-0.36173737,-0.290304571,0.345094055,-0.547953733,0.043067667,0.437874002,0.711447989,0.541150212,0.741964757,-0.395783752,37.0242691,12.62747002,-10.34867477,2
1849.264,184.9264,1478282919,37.35298547,-122.0355506,49.79327,0,126.9140625,4,10,1478282919,37.30271149,11.60980225,-2.443031311,259.2654114,245.8067322,10,20947.81276,0.195297241,0.514022827,-0.118164063,20947.80653,0.272655498,0.916775362,-0.331406163,20947.80653,1.538640601,0.941892358,-0.837259472,0.350486785,0.838295937,-0.327108562,-0.347910523,-0.269803911,0.333964378,-0.54861844,0.045802591,0.43388422,0.713207132,0.541407228,0.742811143,-0.393839866,37.0242691,12.62747002,-10.34867477,2
1858.928,185.8928,1478282919,37.35298547,-122.0355506,49.79327,0,126.9140625,4,10,1478282919,37.30271149,11.60980225,-2.443031311,259.2654114,245.8067322,10,20947.82243,0.206619263,0.433868408,-0.182250977,20947.81653,0.204619455,0.501018632,0.01459652,20947.81653,1.534520177,0.944359781,-0.836022742,0.282450497,0.422539473,0.018894078,-0.347823918,-0.227959737,0.274876982,-0.548773055,0.048245275,0.432077178,0.714023697,0.543121159,0.741982579,-0.393041044,37.01476288,13.22700024,-9.607210159,2
1868.633,186.8633,1478282919,37.35298547,-122.0355506,49.79327,0,126.9140625,4,10,1478282919,37.30271149,11.60980225,-2.443031311,259.2654114,245.8067322,10,20947.83213,0.17137146,0.242279053,-0.137329102,20947.82652,0.193272791,-0.180587356,0.344031677,20947.82652,1.533531621,0.942703928,-0.832297617,0.27110377,-0.259066433,0.348329216,-0.338083059,-0.30561161,0.213310257,-0.547536601,0.049224552,0.433201655,0.714224713,0.544702291,0.739480019,-0.395561218,37.01476288,13.22700024,-9.607210159,2
1878.315,187.8315,1478282919,37.35298547,-122.0355506,49.79327,0,126.9140625,4,10,1478282919,37.30271149,11.60980225,-2.443031311,259.2654114,245.8067322,10,20947.84181,0.146102905,0.191360474,0.022064209,20947.82652,0.193272791,-0.180587356,0.344031677,20947.82652,1.533531621,0.942703928,-0.832297617,0.27110377,-0.259066433,0.348329216,-0.338083059,-0.30561161,0.213310257,-0.547536601,0.049224552,0.433201655,0.714224713,0.544702291,0.739480019,-0.395561218,37.01476288,13.22700024,-9.607210159,2
1887.969,188.7969,1478282919,37.35298547,-122.0355506,49.79327,0,126.9140625,4,10,1478282919,37.30271149,11.60980225,-2.443031311,259.2654114,245.8067322,10,20947.85147,0.315872192,0.357925415,0.12286377,20947.8465,0.185388769,-0.715619348,0.736860455,20947.8465,1.539197682,0.932089545,-0.818272689,0.263219506,-0.794098198,0.741158009,-0.402643383,-0.538605869,0.429527909,-0.542114151,0.048789388,0.441945104,0.713033217,0.548746288,0.729966342,-0.4074637,37.06975555,12.97625923,-9.736232758,2
1897.676,189.7676,1478282919,37.35298547,-122.0355506,49.79327,0,126.9140625,4,10,1478282919,37.30271149,11.60980225,-2.443031311,259.2654114,245.8067322,10,20947.86117,0.599227905,0.520355225,-0.018890381,20947.85649,0.179121818,-0.316585671,0.279679585,20947.85649,1.539938574,0.927662814,-0.813254706,0.256952345,-0.395064294,0.283977121,-0.233989283,-0.368602037,0.534944117,-0.539983219,0.048764126,0.444767408,0.712897003,0.549861491,0.726527452,-0.412080377,37.06975555,12.97625923,-9.736232758,2
1907.358,190.7358,1478282919,37.35298547,-122.0355506,49.79327,0,126.9140625,4,10,1478282919,37.30271149,11.60980225,-2.443031311,259.2654114,245.8067322,10,20947.87086,0.920669556,0.41973877,-0.172546387,20947.85649,0.179121818,-0.316585671,0.279679585,20947.85649,1.539938574,0.927662814,-0.813254706,0.256952345,-0.395064294,0.283977121,-0.233989283,-0.368602037,0.534944117,-0.539983219,0.048764126,0.444767408,0.712897003,0.549861491,0.726527452,-0.412080377,37.06975555,12.97625923,-9.736232758,2
1917.035,191.7035,1478282919,37.35298547,-122.0355506,49.79327,0,126.9140625,4,10,1478282919,37.30271149,11.60980225,-2.443031311,259.2654114,245.8067322,10,20947.88053,1.148696899,0.291656494,-0.388214111,20947.88647,-0.101318632,0.576286222,-0.976355069,20947.88647,1.515572709,0.91101045,-0.830292382,-0.02348835,0.497807801,-0.972057581,0.387604862,-0.318389893,0.240984887,-0.539765277,0.043448964,0.435929273,0.718840248,0.533064723,0.738128662,-0.413531274,37.0710144,12.3526516,-10.5117321,2
1926.707,192.6707,1478282919,37.35298547,-122.0355506,49.79327,0,126.9140625,4,10,1478282919,37.30271149,11.60980225,-2.443031311,259.2654114,245.8067322,10,20947.89021,1.206680298,0.3099823,-0.511352539,20947.88647,-0.101318632,0.576286222,-0.976355069,20947.88647,1.515572709,0.91101045,-0.830292382,-0.02348835,0.497807801,-0.972057581,0.387604862,-0.318389893,0.240984887,-0.539765277,0.043448964,0.435929273,0.718840248,0.533064723,0.738128662,-0.413531274,37.0710144,12.3526516,-10.5117321,2
1936.405,193.6405,1478282919,37.35298547,-122.0355506,49.79327,0,126.9140625,4,10,1478282919,37.30271149,11.60980225,-2.443031311,259.2654114,245.8067322,10,20947.8999,1.079269409,0.539352417,-0.562652588,20947.88647,-0.101318632,0.576286222,-0.976355069,20947.88647,1.515572709,0.91101045,-0.830292382,-0.02348835,0.497807801,-0.972057581,0.387604862,-0.318389893,0.240984887,-0.539765277,0.043448964,0.435929273,0.718840248,0.533064723,0.738128662,-0.413531274,37.0710144,12.3526516,-10.5117321,2
1946.087,194.6087,1478282919,37.35298547,-122.0355506,49.79327,0,126.9140625,4,10,1478282919,37.30271149,11.60980225,-2.443031311,259.2654114,245.8067322,10,20947.90959,0.963592529,0.824951172,-0.451202393,20947.89646,0.240734316,1.272527877,-0.622472626,20947.89646,1.50667978,0.914496473,-0.834581732,0.318564117,1.194049954,-0.618175149,0.547279656,-0.2016633,-0.152917802,-0.54134211,0.045621572,0.430623653,0.720715382,0.531989753,0.741015732,-0.409734786,36.79263306,13.32724476,-10.29713631,2
1955.769,195.5769,1478282919,37.35298547,-122.0355506,49.79327,0,126.9140625,4,10,1478282919,37.30271149,11.60980225,-2.443031311,259.2654114,245.8067322,10,20947.91927,0.936798096,0.969863892,-0.375213623,20947.89646,0.240734316,1.272527877,-0.622472626,20947.89646,1.50667978,0.914496473,-0.834581732,0.318564117,1.194049954,-0.618175149,0.547279656,-0.2016633,-0.152917802,-0.54134211,0.045621572,0.430623653,0.720715382,0.531989753,0.741015732,-0.409734786,36.79263306,13.32724476,-10.29713631,2
1965.45,196.545,1478282919,37.35298547,-122.0355506,49.79327,0,126.9140625,4,10,1478282919,37.30271149,11.60980225,-2.443031311,259.2654114,245.8067322,10,20947.92895,0.955459595,1.041412354,-0.376831055,20947.91644,1.000672393,2.016255559,-0.173203741,20947.91644,1.479346034,0.929551423,-0.828870933,1.07850194,1.937777877,-0.168906257,0.395317942,0.232694969,0.02899082,-0.542443489,0.060438733,0.418211955,0.726086071,0.541480124,0.737168908,-0.404204428,36.79263306,13.32724476,-10.29713631,2
1975.133,197.5133,1478282919,37.35298547,-122.0355506,49.79327,0,126.9140625,4,10,1478282919,37.30271149,11.60980225,-2.443031311,259.2654114,245.8067322,10,20947.93863,0.98260498,0.967453003,-0.356613159,20947.92643,0.576032955,1.88401523,0.017739316,20947.92643,1.469860588,0.941115185,-0.824396629,0.653862298,1.805537701,0.022036782,0.406681359,0.307274133,0.023023302,-0.543458209,0.068745887,0.412848212,0.727656191,0.548778236,0.73413825,-0.399854362,37.14137268,13.46575451,-8.74851799,2
1984.816,198.4816,1478282919,37.35298547,-122.0355506,49.79327,0,126.9140625,4,10,1478282919,37.30271149,11.60980225,-2.443031311,259.2654114,245.8067322,10,20947.94831,0.98475647,0.859375,-0.375335693,20947.92643,0.576032955,1.88401523,0.017739316,20947.92643,1.469860588,0.941115185,-0.824396629,0.653862298,1.805537701,0.022036782,0.406681359,0.307274133,0.023023302,-0.543458209,0.068745887,0.412848212,0.727656191,0.548778236,0.73413825,-0.399854362,37.14137268,13.46575451,-8.74851799,2
1994.487,199.4487,1478282919,37.35298547,-122.0355506,49.79327,0,126.9140625,4,10,1478282919,37.1280899,11.92411041,-2.141365051,257.9792786,244.5205994,10,20947.95799,0.922897339,0.787689209,-0.447784424,20947.94641,-0.09991488,1.555469835,0.45978917,20947.94641,1.471112318,0.973499036,-0.818096322,-0.022085689,1.476992607,0.464086622,0.419506103,0.129529223,0.009134283,-0.548623628,0.082323302,0.406196912,0.72611229,0.565250397,0.729845762,-0.384469986,37.14137268,13.46575451,-8.74851799,2
2004.183,200.4183,1478282919,37.35298547,-122.0355506,49.79327,0,126.9140625,4,10,1478282919,37.1280899,11.92411041,-2.141365051,257.9792786,244.5205994,10,20947.96768,0.75402832,0.815872192,-0.458099365,20947.95641,-0.174838656,1.525966804,0.777651827,20947.95641,1.477690197,0.992752789,-0.812693724,-0.097009785,1.447489738,0.781949282,0.347055644,0.061547346,-0.072119251,-0.551530802,0.089337494,0.404787198,0.723864567,0.575841725,0.72614187,-0.375665158,37.63639069,13.08537769,-7.044117928,2
2013.866,201.3866,1478282919,37.35298547,-122.0355506,49.79327,0,126.9140625,4,10,1478282919,37.1280899,11.92411041,-2.141365051,257.9792786,244.5205994,10,20947.97736,0.53742981,0.906570435,-0.461410522,20947.95641,-0.174838656,1.525966804,0.777651827,20947.95641,1.477690197,0.992752789,-0.812693724,-0.097009785,1.447489738,0.781949282,0.347055644,0.061547346,-0.072119251,-0.551530802,0.089337494,0.404787198,0.723864567,0.575841725,0.72614187,-0.375665158,37.63639069,13.08537769,-7.044117928,2
2023.538,202.3538,1478282919,37.35298547,-122.0355506,49.79327,0,126.9140625,4,10,1478282919,37.30271149,12.16858673,-1.4375,256.4112549,242.9525909,10,20947.98704,0.280487061,1.109161377,-0.477218628,20947.97638,-0.117770576,1.556499413,1.042705597,20947.97638,1.495068526,1.033794875,-0.796803865,-0.039941851,1.478022575,1.047002912,-0.06317997,0.19144477,-0.103830911,-0.556989258,0.104752858,0.404130603,0.717961184,0.600609779,0.71512568,-0.357579619,37.63639069,13.08537769,-7.044117928,2
2033.23,203.323,1478282919,37.35298547,-122.0355506,49.79327,0,126.9140625,4,10,1478282919,37.30271149,12.16858673,-1.4375,256.4112549,242.9525909,10,20947.99673,0.198654175,1.129394531,-0.473587036,20947.98639,-0.079535306,1.47763043,0.821979877,20947.98639,1.501571001,1.052685385,-0.789054349,-0.001706894,1.399153829,0.826277316,-0.331566274,0.399474025,-0.128313825,-0.559394351,0.112363525,0.403376042,0.715360166,0.612053335,0.709687352,-0.348904788,38.26300812,12.01336956,-5.381983757,2
2042.913,204.2913,1478282919,37.35298547,-122.0355506,49.79327,0,126.9140625,4,10,1478282919,37.30271149,12.16858673,-1.4375,256.4112549,242.9525909,10,20948.00641,0.252761841,1.062072754,-0.42300415,20947.98639,-0.079535306,1.47763043,0.821979877,20947.98639,1.501571001,1.052685385,-0.789054349,-0.001706894,1.399153829,0.826277316,-0.331566274,0.399474025,-0.128313825,-0.559394351,0.112363525,0.403376042,0.715360166,0.612053335,0.709687352,-0.348904788,38.26300812,12.01336956,-5.381983757,2
2052.591,205.2591,1478282919,37.35298547,-122.0355506,49.79327,0,126.9140625,4,10,1478282919,37.30271149,12.16858673,-1.4375,256.4112549,242.9525909,10,20948.01609,0.389984131,1.127578735,-0.43309021,20948.00637,-0.477058438,0.692146779,0.283589106,20948.00637,1.51284068,1.08014489,-0.783448081,-0.399230182,0.613670409,0.2878865,-0.372139841,0.35634622,-0.089165919,-0.564322964,0.120915159,0.401273907,0.711265329,0.624901712,0.705726504,-0.333838224,38.26300812,12.01336956,-5.381983757,2
2062.276,206.2276,1478282919,37.35298547,-122.0355506,49.79327,0,126.9140625,4,10,1478282919,37.30271149,12.16858673,-1.4375,256.4112549,242.9525909,10,20948.02577,0.456375122,1.184875488,-0.326873779,20948.01636,-0.696506374,0.038643,0.267462334,20948.01636,1.521762607,1.087810619,-0.783716767,-0.618678451,-0.039833035,0.271759719,-0.237290323,0.421661884,-0.10414014,-0.566461409,0.121022471,0.402198046,0.709021696,0.627274454,0.705916882,-0.328950077,38.5655632,11.49760342,-4.224568844,2
2071.959,207.1959,1478282919,37.35298547,-122.0355506,49.79327,0,126.9140625,4,10,1478282919,37.30271149,12.16858673,-1.4375,256.4112549,242.9525909,10,20948.03546,0.474990845,1.208023071,-0.291549683,20948.01636,-0.696506374,0.038643,0.267462334,20948.01636,1.521762607,1.087810619,-0.783716767,-0.618678451,-0.039833035,0.271759719,-0.237290323,0.421661884,-0.10414014,-0.566461409,0.121022471,0.402198046,0.709021696,0.627274454,0.705916882,-0.328950077,38.5655632,11.49760342,-4.224568844,2
2081.632,208.1632,1478282919,37.35298547,-122.0355506,49.79327,0,126.9140625,4,10,1478282919,37.30271149,12.16858673,-1.4375,256.4112549,242.9525909,10,20948.04513,0.442932129,1.211288452,-0.283615112,20948.03635,-0.95025396,-0.815360057,0.200218315,20948.03635,1.544174396,1.08983762,-0.786407879,-0.872426152,-0.893835962,0.204515696,-0.151262656,0.500202656,0.035248183,-0.568772923,0.114448373,0.408773418,0.704487917,0.626253486,0.707820415,-0.326797873,38.5655632,11.49760342,-4.224568844,2
2091.32,209.132,1478282919,37.35298547,-122.0355506,49.79327,0,126.9140625,4,10,1478282919,37.51226044,12.5178299,-0.566040039,256.5578613,243.0991974,10,20948.05482,0.390411377,1.181518555,-0.380859375,20948.04634,-1.250218311,-0.680111688,0.036179576,20948.04634,1.55845653,1.091985074,-0.79062267,-1.172390819,-0.758587301,0.040476937,-0.181368321,0.500497043,0.040459774,-0.570907316,0.109669471,0.411976969,0.701649785,0.62430048,0.710791409,-0.324074894,38.56513214,11.32949066,-4.660262108,2
2101.001,210.1001,1478282919,37.35298547,-122.0355506,49.79327,0,126.9140625,4,10,1478282919,37.51226044,12.5178299,-0.566040039,256.5578613,243.0991974,10,20948.0645,0.310470581,1.028808594,-0.28805542,20948.06632,-1.936115449,-0.323447839,-0.376415982,20948.06632,1.596810897,1.107408332,-0.810301648,-1.858273387,-0.401940912,-0.372119397,-0.226179332,0.457023442,-0.072764091,-0.580103491,0.097120009,0.41526448,0.693976264,0.616590738,0.724495113,-0.308095276,38.56513214,11.32949066,-4.660262108,2
2110.683,211.0683,1478282919,37.35298547,-122.0355506,49.79327,0,126.9140625,4,10,1478282919,37.51226044,12.5178299,-0.566040039,256.5578613,243.0991974,10,20948.07418,0.198822021,0.87399292,-0.206924438,20948.06632,-1.936115449,-0.323447839,-0.376415982,20948.06632,1.596810897,1.107408332,-0.810301648,-1.858273387,-0.401940912,-0.372119397,-0.226179332,0.457023442,-0.072764091,-0.580103491,0.097120009,0.41526448,0.693976264,0.616590738,0.724495113,-0.308095276,38.56513214,11.32949066,-4.660262108,2
2120.341,212.0341,1478282919,37.35298547,-122.0355506,49.79327,0,126.9140625,4,10,1478282919,37.51226044,12.5178299,-0.566040039,256.5578613,243.0991974,10,20948.08384,0.107025146,0.85697937,-0.181167603,20948.0763,-2.044655775,0.158067932,-0.255177438,20948.0763,1.620481351,1.124163118,-0.821435257,-1.966814041,0.079575084,-0.250880867,-0.415530592,0.141868681,0.087294795,-0.586867076,0.09207289,0.415333692,0.68891766,0.614352643,0.732124209,-0.294219226,38.56513214,11.32949066,-4.660262108,2
2130.046,213.0046,1478282919,37.35298547,-122.0355506,49.79327,0,126.9140625,4,10,1478282919,37.51226044,12.5178299,-0.566040039,256.5578613,243.0991974,10,20948.09354,0.080825806,0.919815063,-0.18548584,20948.08631,-2.038280168,0.577732318,-0.202915831,20948.08631,1.645630739,1.146740489,-0.831557744,-1.960438728,0.499239713,-0.198619276,-0.507026851,0.117997609,0.096043751,-0.594567091,0.088793558,0.414337272,0.683322986,0.614051998,0.738981783,-0.277211368,38.38831329,11.99956322,-4.437634468,2
2139.728,213.9728,1478282919,37.35298547,-122.0355506,49.79327,0,126.9140625,4,10,1478282919,36.63916779,14.29895401,3.221458435,261.6689148,248.2102509,10,20948.10323,0.09475708,0.871047974,-0.151153564,20948.0963,-1.80633668,0.781492638,-0.300210427,20948.0963,1.668608423,1.170364026,-0.841235693,-1.728495121,0.703000128,-0.295913875,-0.532987893,0.174347728,0.074343279,-0.602164611,0.086505609,0.412242369,0.678211464,0.613813698,0.745467305,-0.259829134,38.38831329,11.99956322,-4.437634468,2
2149.394,214.9394,1478282919,37.35298547,-122.0355506,49.79327,0,126.9140625,4,10,1478282919,36.63916779,14.29895401,3.221458435,261.6689148,248.2102509,10,20948.11289,0.143554688,0.787887573,-0.159957886,20948.0963,-1.80633668,0.781492638,-0.300210427,20948.0963,1.668608423,1.170364026,-0.841235693,-1.728495121,0.703000128,-0.295913875,-0.532987893,0.174347728,0.074343279,-0.602164611,0.086505609,0.412242369,0.678211464,0.613813698,0.745467305,-0.259829134,38.38831329,11.99956322,-4.437634468,2
2159.069,215.9069,1478282919,37.35298547,-122.0355506,49.79327,0,126.9140625,4,10,1478282919,36.63916779,14.29895401,3.221458435,261.6689148,248.2102509,10,20948.12257,0.322723389,0.8565979,-0.253967285,20948.11628,-1.032516077,1.388286435,-0.046623162,20948.11628,1.701225893,1.216140298,-0.853928875,-0.95467484,1.309794188,-0.042326625,-0.47258231,0.034019981,0.068206228,-0.615034497,0.087467187,0.405535469,0.670539367,0.616136968,0.753867567,-0.228164122,38.37620926,12.34284306,-3.502166271,2
2168.776,216.8776,1478282919,37.35298547,-122.0355506,49.79327,0,126.9140625,4,10,1478282919,36.63916779,14.29895401,3.221458435,261.6689148,248.2102509,10,20948.13227,0.454101563,0.963363647,-0.317337036,20948.12627,-0.786301774,1.502673731,0.087913078,20948.12627,1.712483246,1.238712088,-0.855856392,-0.708460748,1.4241817,0.092209607,-0.297031432,0.101465277,-0.040241547,-0.620389898,0.090848808,0.40175133,0.667426953,0.619754791,0.755132616,-0.213725731,38.37620926,12.34284306,-3.502166271,2
2178.435,217.8435,1478282919,37.35298547,-122.0355506,49.79327,0,126.9140625,4,10,1478282919,36.63916779,14.29895401,3.221458435,261.6689148,248.2102509,10,20948.14193,0.528579712,1.070251465,-0.240661621,20948.12627,-0.786301774,1.502673731,0.087913078,20948.12627,1.712483246,1.238712088,-0.855856392,-0.708460748,1.4241817,0.092209607,-0.297031432,0.101465277,-0.040241547,-0.620389898,0.090848808,0.40175133,0.667426953,0.619754791,0.755132616,-0.213725731,38.37620926,12.34284306,-3.502166271,2
2188.122,218.8122,1478282919,37.35298547,-122.0355506,49.79327,0,126.9140625,4,10,1478282919,36.63916779,14.29895401,3.221458435,261.6689148,248.2102509,10,20948.15162,0.65776062,1.247329712,-0.309371948,20948.14626,-0.542335712,1.520248198,0.012229236,20948.14626,1.728942313,1.279022871,-0.857644778,-0.464494884,1.441756368,0.016525749,-0.097990364,0.313947648,-0.052474312,-0.629452659,0.098466718,0.394087759,0.662411121,0.626570046,0.756303847,-0.188187316,38.46163559,12.45781136,-1.688175201,2
2197.795,219.7795,1478282919,37.35298547,-122.0355506,49.79327,0,126.9140625,4,10,1478282919,36.63916779,14.29895401,3.221458435,261.6689148,248.2102509,10,20948.16129,0.776504517,1.444519043,-0.404815674,20948.15625,-0.506542028,1.424050025,-0.262049459,20948.15625,1.734508847,1.297108381,-0.860533389,-0.42870146,1.345558405,-0.257752955,0.029995717,0.489139259,-0.133137852,-0.633678724,0.101657405,0.389340692,0.66070483,0.627764881,0.758190453,-0.176234096,38.46163559,12.45781136,-1.688175201,2
2207.499,220.7499,1478282919,37.35298547,-122.0355506,49.79327,0,126.9140625,4,10,1478282919,36.63916779,14.29895401,3.221458435,261.6689148,248.2102509,10,20948.171,0.819869995,1.550064087,-0.313156128,20948.15625,-0.506542028,1.424050025,-0.262049459,20948.15625,1.734508847,1.297108381,-0.860533389,-0.42870146,1.345558405,-0.257752955,0.029995717,0.489139259,-0.133137852,-0.633678724,0.101657405,0.389340692,0.66070483,0.627764881,0.758190453,-0.176234096,38.46163559,12.45781136,-1.688175201,2
2217.166,221.7166,1478282919,37.35298547,-122.0355506,49.79327,0,126.9140625,4,10,1478282919,36.63916779,14.29895401,3.221458435,261.6689148,248.2102509,10,20948.18066,0.718933105,1.174636841,0.179656982,20948.17624,-0.554603563,0.860900645,-1.412153951,20948.17624,1.740305175,1.320236658,-0.881043462,-0.476763248,0.78240931,-1.407857418,0.203394115,0.778660774,-0.155376419,-0.641160541,0.100116472,0.377608843,0.660531161,0.61647588,0.771403313,-0.157779709,38.45548248,12.59037018,0.055179596,2
2226.846,222.6846,1478282919,37.35298547,-122.0355506,49.79327,0,126.9140625,4,10,1478282919,36.63916779,14.29895401,3.221458435,261.6689148,248.2102509,10,20948.19034,0.654541016,0.903579712,0.226470947,20948.18623,-0.737240754,1.846924054,-1.653070428,20948.18623,1.743484492,1.337432187,-0.898135131,-0.659400642,1.768432975,-1.648774028,0.112752385,0.392470509,0.323742956,-0.646700694,0.098667246,0.367844535,0.660858067,0.606180727,0.782166302,-0.144085974,38.45548248,12.59037018,0.055179596,2
2236.528,223.6528,1478282919,37.35298547,-122.0355506,49.79327,0,126.9140625,4,10,1478282919,36.63916779,14.29895401,3.221458435,261.6689148,248.2102509,10,20948.20003,0.622344971,0.68409729,0.147872925,20948.18623,-0.737240754,1.846924054,-1.653070428,20948.18623,1.743484492,1.337432187,-0.898135131,-0.659400642,1.768432975,-1.648774028,0.112752385,0.392470509,0.323742956,-0.646700694,0.098667246,0.367844535,0.660858067,0.606180727,0.782166302,-0.144085974,38.45548248,12.59037018,0.055179596,2
2246.215,224.6215,1478282919,37.35298547,-122.0355506,49.79327,0,126.9140625,4,10,1478282919,36.63916779,14.29895401,3.221458435,261.6689148,248.2102509,10,20948.20971,0.61706543,0.438674927,0.10307312,20948.19622,-0.952509391,2.736208403,-1.652609967,20948.19622,1.750675112,1.367677096,-0.916109083,-0.874669552,2.657717466,-1.648313522,0.025951713,-0.109141119,0.270705789,-0.654677878,0.099902183,0.354777567,0.659961596,0.596393228,0.793238401,-0.122832857,37.8732605,14.13734627,1.759577274,2
2255.892,225.5892,1478282919,37.35298547,-122.0355506,49.79327,0,126.9140625,4,10,1478282919,36.63916779,14.29895401,3.221458435,261.6689148,248.2102509,10,20948.21939,0.566802979,0.265884399,0.040969849,20948.21618,-0.771626691,2.450136699,-1.253054311,20948.21618,1.770389795,1.437694295,-0.947248369,-0.693786979,2.371645927,-1.248757839,0.038311094,-0.373136938,0.180564657,-0.670937302,0.10534405,0.328222815,0.656517747,0.578754365,0.811811864,-0.077491537,37.8732605,14.13734627,1.759577274,2
2265.575,226.5575,1478282919,37.35298547,-122.0355506,49.79327,0,126.9140625,4,10,1478282919,36.63916779,14.29895401,3.221458435,261.6689148,248.2102509,10,20948.22907,0.573013306,0.316726685,-0.133712769,20948.2262,-0.663559342,1.735802592,-0.772381697,20948.2262,1.778779549,1.462965766,-0.956866686,-0.585719585,1.657311797,-0.768085182,-0.005935028,-0.551506162,0.102968991,-0.676362012,0.107400448,0.319392162,0.654971922,0.572737992,0.817390561,-0.061999142,37.8732605,14.13734627,1.759577274,2
2275.255,227.5255,1478282919,37.35298547,-122.0355506,49.79327,0,126.9140625,4,10,1478282919,36.63916779,14.29895401,3.221458435,261.6689148,248.2102509,10,20948.23875,0.632232666,0.479553223,-0.205474854,20948.2262,-0.663559342,1.735802592,-0.772381697,20948.2262,1.778779549,1.462965766,-0.956866686,-0.585719585,1.657311797,-0.768085182,-0.005935028,-0.551506162,0.102968991,-0.676362012,0.107400448,0.319392162,0.654971922,0.572737992,0.817390561,-0.061999142,37.8732605,14.13734627,1.759577274,2
2284.955,228.4955,1478282919,37.35298547,-122.0355506,49.79327,0,126.9140625,4,10,1478282919,36.32484436,14.89266205,4.863830566,263.8240662,250.3654022,10,20948.24845,0.655181885,0.609512329,-0.19593811,20948.23617,-0.673679621,0.836291971,-0.267919865,20948.23617,1.788365406,1.480677511,-0.961265774,-0.595840335,0.757801712,-0.263623446,0.062073156,-0.340363622,-0.15395321,-0.680067042,0.108388156,0.315112532,0.653042814,0.570159495,0.819916844,-0.051521651,36.80579758,15.83550072,5.649333954,2
2294.627,229.4627,1478282919,37.35298547,-122.0355506,49.79327,0,126.9140625,4,10,1478282919,36.32484436,14.89266205,4.863830566,263.8240662,250.3654022,10,20948.25813,0.673477173,0.684814453,-0.161590576,20948.24616,-0.644216803,0.096715358,0.095084438,20948.24616,1.798458522,1.490823681,-0.961561246,-0.56637764,0.018225182,0.099380858,0.084770501,-0.210573643,-0.1502233,-0.682235511,0.108154076,0.314852693,0.650941768,0.570411384,0.820086002,-0.045714807,36.80579758,15.83550072,5.649333954,2
2304.32,230.432,1478282919,37.35298547,-122.0355506,49.79327,0,126.9140625,4,10,1478282919,36.32484436,14.89266205,4.863830566,263.8240662,250.3654022,10,20948.26782,0.709899902,0.731750488,-0.129577637,20948.25617,-0.556807063,-0.415884828,0.362139575,20948.25617,1.807645919,1.494566997,-0.958919312,-0.478968114,-0.494374752,0.366436005,0.100740328,-0.133756846,-0.117846467,-0.68311299,0.10716617,0.317405444,0.648942092,0.572736859,0.81857127,-0.04374411,36.78226471,15.76495838,5.989618778,2
