time(ms),time(ds),locationTimestamp_since1970,locationLatitude,locationLongitude,locationAltitude,locationSpeed,locationCourse,locationVerticalAccuracy,locationHorizontalAccuracy,locationHeadingTimestamp_since1970,locationHeadingX,locationHeadingY,locationHeadingZ,locationTrueHeading,locationMagneticHeading,locationHeadingAccuracy,accelerometerTimestamp_sinceReboot,accelerometerAccelerationX,accelerometerAccelerationY,accelerometerAccelerationZ,gyroTimestamp_sinceReboot,gyroRotationX,gyroRotationY,gyroRotationZ,motionTimestamp_sinceReboot,motionYaw,motionRoll,motionPitch,motionRotationRateX,motionRotationRateY,motionRotationRateZ,motionUserAccelerationX,motionUserAccelerationY,motionUserAccelerationZ,motionQuaternionX,motionQuaternionY,motionQuaternionZ,motionQuaternionW,motionGravityX,motionGravityY,motionGravityZ,motionMagneticFieldX,motionMagneticFieldY,motionMagneticFieldZ,motionMagneticFieldCalibrationAccuracy
0,0,1478282397,37.35297047,-122.0348353,54.57001,1.55,151.875,6,10,1478282398,28.11752892,1.167655945,-26.27451324,243.3145752,229.855896,10,20441.60992,0.310348511,0.508651733,-0.774429321,20441.59595,-0.356868646,-0.083049347,0.107081446,20441.59094,0.49726898,0.367113419,-0.57038385,-0.236112326,-0.086713605,0.107869118,0.065465972,-0.042671237,0.018244939,-0.311211441,0.101699157,0.182400393,0.927111006,0.302102983,0.539955199,-0.785609424,27.92029572,3.37264061,-24.97132874,2
9.6840001,0.96840001,1478282397,37.35297047,-122.0348353,54.57001,1.55,151.875,6,10,1478282398,28.11752892,1.167655945,-26.27451324,243.3145752,229.855896,10,20441.61961,0.292312622,0.525054932,-0.772155762,20441.60594,-0.446367637,-0.221736923,0.115317272,20441.60094,0.499803055,0.366475685,-0.572764389,-0.319196045,-0.240221888,0.11595419,0.00920803,-0.033305593,0.010170365,-0.312354369,0.100672264,0.183390978,0.926643185,0.301140487,0.541957319,-0.784599662,27.92029572,3.37264061,-24.97132874,2
19.3680001,1.93680001,1478282397,37.35297047,-122.0348353,54.57001,1.55,151.875,6,10,1478282398,28.11752892,1.167655945,-26.27451324,243.3145752,229.855896,10,20441.62929,0.279754639,0.532958984,-0.780059814,20441.61591,-0.549966467,-0.258957262,0.100023004,20441.62091,0.505940472,0.363309346,-0.580330381,-0.522130728,-0.331625432,0.081991151,-0.004876337,-0.023245327,0.009538263,-0.315771656,0.097166089,0.185829353,0.925372608,0.297188967,0.548300266,-0.781694055,27.83340073,3.47248745,-25.05451393,2
29.0700001,2.90700001,1478282397,37.35297047,-122.0348353,54.57001,1.55,151.875,6,10,1478282398,28.11752892,1.167655945,-26.27451324,243.3145752,229.855896,10,20441.63899,0.286300659,0.542434692,-0.77494812,20441.62592,-0.641000238,-0.244533582,0.051082359,20441.62091,0.505940472,0.363309346,-0.580330381,-0.522130728,-0.331625432,0.081991151,-0.004876337,-0.023245327,0.009538263,-0.315771656,0.097166089,0.185829353,0.925372608,0.297188967,0.548300266,-0.781694055,27.83340073,3.47248745,-25.05451393,2
38.7540001,3.87540001,1478282397,37.35297047,-122.0348353,54.57001,1.55,151.875,6,10,1478282398,28.01275444,1.412124634,-26.50913239,242.9421082,229.4834442,10,20441.64868,0.28868103,0.557403564,-0.77482605,20441.63591,-0.672418082,-0.206954781,-0.02112739,20441.63092,0.508816733,0.3617295,-0.585565586,-0.587616801,-0.309853762,0.02244206,-0.008633087,-0.010236138,0.00451903,-0.318115987,0.095229424,0.186786754,0.924577895,0.294933736,0.552670836,-0.779467165,27.83340073,3.47248745,-25.05451393,2
48.4380001,4.84380001,1478282397,37.35297047,-122.0348353,54.57001,1.55,151.875,6,10,1478282398,28.01275444,1.412124634,-26.50913239,242.9421082,229.4834442,10,20441.65836,0.288528442,0.56817627,-0.779281616,20441.64591,-0.631249073,-0.140719301,-0.088796981,20441.6509,0.512082373,0.358818958,-0.596491757,-0.508446813,-0.189000949,-0.108742863,-0.001844813,-0.004339962,-0.000204242,-0.322899536,0.091787723,0.187460464,0.923130261,0.290525854,0.561743498,-0.774621785,27.59828568,3.819357872,-25.26325607,2
58.1180001,5.81180001,1478282397,37.35297047,-122.0348353,54.57001,1.55,151.875,6,10,1478282398,28.01275444,1.412124634,-26.50913239,242.9421082,229.4834442,10,20441.66804,0.2862854,0.58203125,-0.783447266,20441.6559,-0.532254582,-0.083768667,-0.126682312,20441.6509,0.512082373,0.358818958,-0.596491757,-0.508446813,-0.189000949,-0.108742863,-0.001844813,-0.004339962,-0.000204242,-0.322899536,0.091787723,0.187460464,0.923130261,0.290525854,0.561743498,-0.774621785,27.59828568,3.819357872,-25.26325607,2
67.7750001,6.77750001,1478282397,37.35297047,-122.0348353,54.57001,1.55,151.875,6,10,1478282398,28.01275444,1.412124634,-26.50913239,242.9421082,229.4834442,10,20441.6777,0.286651611,0.585968018,-0.787643433,20441.66589,-0.409566479,-0.035030156,-0.130493562,20441.6609,0.512463748,0.357525687,-0.600893542,-0.393321037,-0.139315099,-0.127488881,-0.002370271,0.01665153,-0.010774194,-0.324768323,0.090493096,0.187321659,0.92263055,0.288655668,0.565379739,-0.77267307,27.59828568,3.819357872,-25.26325607,2
77.4880001,7.74880001,1478282397,37.35297047,-122.0348353,54.57001,1.55,151.875,6,10,1478282398,27.90798378,1.796295166,-26.60967255,242.9027405,229.4440613,10,20441.68741,0.289199829,0.579681396,-0.782714844,20441.67586,-0.294222309,0.005380384,-0.114102604,20441.68085,0.511967582,0.355552974,-0.606301433,-0.165860593,-0.058526356,-0.098976821,0.000589303,0.016135992,-0.017280001,-0.326983423,0.088882645,0.186771016,0.922116209,0.2860623,0.569832027,-0.77036345,27.44949722,4.261823654,-25.35442543,2
87.1440001,8.71440001,1478282397,37.35297047,-122.0348353,54.57001,1.55,151.875,6,10,1478282398,27.90798378,1.796295166,-26.60967255,242.9027405,229.4440613,10,20441.69707,0.287002563,0.574447632,-0.774658203,20441.68588,-0.195908521,0.041600973,-0.090276367,20441.68085,0.511967582,0.355552974,-0.606301433,-0.165860593,-0.058526356,-0.098976821,0.000589303,0.016135992,-0.017280001,-0.326983423,0.088882645,0.186771016,0.922116209,0.2860623,0.569832027,-0.77036345,27.44949722,4.261823654,-25.35442543,2
96.8550001,9.68550001,1478282397,37.35297047,-122.0348353,54.57001,1.55,151.875,6,10,1478282398,27.90798378,1.796295166,-26.60967255,242.9027405,229.4440613,10,20441.70678,0.28163147,0.570388794,-0.766433716,20441.69587,-0.108267885,0.102193481,-0.062999472,20441.69087,0.511465278,0.355037907,-0.607470232,-0.072881699,-0.008527325,-0.072875455,0.001568802,0.003655522,-0.004772539,-0.327436322,0.088558585,0.186484858,0.922044592,0.285433769,0.570792139,-0.769885659,27.44949722,4.261823654,-25.35442543,2
106.5400001,10.65400001,1478282397,37.35297047,-122.0348353,54.57001,1.55,151.875,6,10,1478282398,27.90798378,1.93598938,-27.01189423,242.5532227,229.0945435,10,20441.71646,0.275146484,0.561798096,-0.763778687,20441.69587,-0.108267885,0.102193481,-0.062999472,20441.70087,0.510933461,0.355142809,-0.607759424,0.006227612,0.05842977,-0.043397203,-0.003825642,-0.000640746,0.003267201,-0.327551996,0.088652304,0.186188159,0.92205446,0.285457104,0.571029544,-0.769700944,27.4063015,4.447554588,-25.36924934,2
116.2140001,11.62140001,1478282397,37.35297047,-122.0348353,54.57001,1.55,151.875,6,10,1478282398,27.66351128,2.250312805,-26.97837067,242.5727234,229.1140442,10,20441.72614,0.277374268,0.561981201,-0.764953613,20441.71585,0.01795157,0.214921627,-0.003180347,20441.71086,0.510459152,0.355901951,-0.607284857,0.073607638,0.117976531,-0.012922921,-0.010989249,-0.008841794,0.005959229,-0.327389074,0.089148396,0.185901566,0.922122316,0.286135733,0.570639908,-0.769737899,27.4063015,4.447554588,-25.36924934,2
125.9050001,12.59050001,1478282397,37.35297047,-122.0348353,54.57001,1.55,151.875,6,10,1478282398,27.66351128,2.250312805,-26.97837067,242.5727234,229.1140442,10,20441.73583,0.2865448,0.571624756,-0.758407593,20441.72584,0.026570625,0.227740487,0.011892612,20441.72085,0.510107336,0.357108856,-0.60632228,0.104688093,0.145700544,0.011902521,-0.009882136,-0.007867956,0.004952678,-0.327054475,0.089901197,0.185656406,0.922217352,0.28725639,0.569849133,-0.769906282,27.4063015,4.447554588,-25.36924934,2
135.5860001,13.55860001,1478282397,37.35297047,-122.0348353,54.57001,1.55,151.875,6,10,1478282398,27.66351128,2.250312805,-26.97837067,242.5727234,229.1140442,10,20441.74551,0.284591675,0.57510376,-0.751159668,20441.72584,0.026570625,0.227740487,0.011892612,20441.73084,0.509860334,0.358434576,-0.605332657,0.095101357,0.14466019,0.01509724,-0.001929724,0.0025891,0.011644919,-0.326723221,0.090695537,0.185443779,0.922299767,0.28847453,0.569035649,-0.770052493,27.49305344,4.400891304,-25.28337669,2
145.2460001,14.52460001,1478282397,37.35297047,-122.0348353,54.57001,1.55,151.875,6,10,1478282398,27.66351128,2.250312805,-26.97837067,242.5727234,229.1140442,10,20441.75517,0.279525757,0.576965332,-0.746353149,20441.73584,0.003059173,0.214975956,0.005364672,20441.74083,0.509629011,0.359572941,-0.604628858,0.064102881,0.118095778,0.004162031,-0.004900113,0.006646988,0.01893864,-0.326503056,0.091359731,0.185235242,0.922354085,0.289491773,0.568456769,-0.770098329,27.49305344,4.400891304,-25.28337669,2
154.9500001,15.49500001,1478282397,37.35297047,-122.0348353,54.57001,1.55,151.875,6,10,1478282398,27.66351128,2.250312805,-26.97837067,242.5727234,229.1140442,10,20441.76487,0.276473999,0.583221436,-0.753952026,20441.73584,0.003059173,0.214975956,0.005364672,20441.74083,0.509629011,0.359572941,-0.604628858,0.064102881,0.118095778,0.004162031,-0.004900113,0.006646988,0.01893864,-0.326503056,0.091359731,0.185235242,0.922354085,0.289491773,0.568456769,-0.770098329,27.49305344,4.400891304,-25.28337669,2
164.6320001,16.46320001,1478282397,37.35297047,-122.0348353,54.57001,1.55,151.875,6,10,1478282398,27.38411903,2.320159912,-26.71022797,242.5561523,229.0974731,10,20441.77455,0.278991699,0.583221436,-0.767974854,20441.75581,-0.065194183,0.152483816,0.006888532,20441.76082,0.509584378,0.361126746,-0.606440408,-0.00519786,0.072591819,0.012260185,-0.013849691,0.013275211,0.01473091,-0.32745565,0.091822269,0.184743729,0.92206899,0.290323675,0.569946229,-0.768682957,27.5715847,4.428265572,-25.19291878,2
174.3140001,17.43140001,1478282397,37.35297047,-122.0348353,54.57001,1.55,151.875,6,10,1478282398,27.38411903,2.320159912,-26.71022797,242.5561523,229.0974731,10,20441.78424,0.286972046,0.574356079,-0.785293579,20441.76581,-0.100398244,0.151430535,0.010089652,20441.77081,0.509847775,0.361975477,-0.60668201,-0.038302593,0.067258097,0.009012177,-0.011935519,0.013076708,0.0003326,-0.327654263,0.092135536,0.18469715,0.921976512,0.290927231,0.570144713,-0.768307447,27.5715847,4.428265572,-25.19291878,2
183.9940001,18.39940001,1478282397,37.35297047,-122.0348353,54.57001,1.55,151.875,6,10,1478282398,27.38411903,2.320159912,-26.71022797,242.5561523,229.0974731,10,20441.79392,0.292892456,0.566116333,-0.7915802,20441.76581,-0.100398244,0.151430535,0.010089652,20441.77081,0.509847775,0.361975477,-0.60668201,-0.038302593,0.067258097,0.009012177,-0.011935519,0.013076708,0.0003326,-0.327654263,0.092135536,0.18469715,0.921976512,0.290927231,0.570144713,-0.768307447,27.5715847,4.428265572,-25.19291878,2
193.6470001,19.36470001,1478282397,37.35297047,-122.0348353,54.57001,1.55,151.875,6,10,1478282398,27.69843483,2.215385437,-26.27449799,243.1265564,229.6678772,10,20441.80357,0.294311523,0.559860229,-0.775772095,20441.78578,-0.162614747,0.067300744,-0.052660815,20441.79079,0.509645225,0.361927044,-0.608389345,-0.094195582,-0.054060187,-0.07226298,0.002347542,-0.005430215,-0.024170142,-0.328404283,0.091899937,0.184406522,0.921791334,0.290544927,0.571546555,-0.76741004,27.60580063,4.469540596,-25.14812279,2
203.3580001,20.33580001,1478282397,37.35297047,-122.0348353,54.57001,1.55,151.875,6,10,1478282398,27.9428997,2.250312805,-26.24097443,243.6142578,230.1555786,10,20441.81328,0.293075562,0.559356689,-0.766876221,20441.79579,-0.178834197,-0.012447082,-0.098297542,20441.80078,0.508944701,0.360539617,-0.608283554,-0.101844035,-0.112572089,-0.110213704,0.004810284,-0.011599506,-0.007903093,-0.328196957,0.091390681,0.184324075,0.921932284,0.28950125,0.571459711,-0.767868996,27.60580063,4.469540596,-25.14812279,2
213.0380001,21.30380001,1478282397,37.35297047,-122.0348353,54.57001,1.55,151.875,6,10,1478282398,27.9428997,2.250312805,-26.24097443,243.6142578,230.1555786,10,20441.82296,0.287628174,0.564987183,-0.764038086,20441.79579,-0.178834197,-0.012447082,-0.098297542,20441.80078,0.508944701,0.360539617,-0.608283554,-0.101844035,-0.112572089,-0.110213704,0.004810284,-0.011599506,-0.007903093,-0.328196957,0.091390681,0.184324075,0.921932284,0.28950125,0.571459711,-0.767868996,27.60580063,4.469540596,-25.14812279,2
222.6980001,22.26980001,1478282397,37.35297047,-122.0348353,54.57001,1.55,151.875,6,10,1478282398,27.9428997,2.250312805,-26.24097443,243.6142578,230.1555786,10,20441.83262,0.291809082,0.562744141,-0.765945435,20441.81575,-0.172583225,-0.029586654,-0.126228776,20441.82077,0.507229968,0.357622788,-0.610027707,-0.094407983,-0.088236816,-0.113172159,0.000717241,-0.007902987,0.003737252,-0.328631279,0.090076709,0.183804103,0.922010694,0.286910921,0.572890162,-0.767775357,27.52663803,4.551423073,-25.22010422,2
232.3990001,23.23990001,1478282397,37.35297047,-122.0348353,54.57001,1.55,151.875,6,10,1478282398,27.9428997,2.250312805,-26.24097443,243.6142578,230.1555786,10,20441.84232,0.289093018,0.564529419,-0.773117065,20441.82576,-0.170373334,0.015018364,-0.107631655,20441.83076,0.506800012,0.357186747,-0.610529224,-0.087902628,-0.042538855,-0.090293474,0.005333451,-0.010557017,0.001685659,-0.328796368,0.089874365,0.18361781,0.922008702,0.286475629,0.573301136,-0.767631114,27.52663803,4.551423073,-25.22010422,2
242.0830001,24.20830001,1478282397,37.35297047,-122.0348353,54.57001,1.55,151.875,6,10,1478282398,27.9428997,2.250312805,-26.24097443,243.6142578,230.1555786,10,20441.85201,0.290313721,0.564620972,-0.770172119,20441.82576,-0.170373334,0.015018364,-0.107631655,20441.83076,0.506800012,0.357186747,-0.610529224,-0.087902628,-0.042538855,-0.090293474,0.005333451,-0.010557017,0.001685659,-0.328796368,0.089874365,0.18361781,0.922008702,0.286475629,0.573301136,-0.767631114,27.52663803,4.551423073,-25.22010422,2
251.7410001,25.17410001,1478282397,37.35297047,-122.0348353,54.57001,1.55,151.875,6,10,1478282398,27.9428997,2.669395447,-26.17394257,244.1686401,230.7099609,10,20441.86166,0.289031982,0.565505981,-0.771102905,20441.84574,-0.151925617,0.089581016,-0.047101466,20441.85074,0.506309343,0.356903149,-0.611461701,-0.06513802,0.022542484,-0.023453403,0.004242696,-0.009443956,-0.002961048,-0.329165709,0.089690584,0.183327245,0.921952633,0.286071032,0.57406491,-0.76721108,27.50037766,4.627563477,-25.2348938,2
261.4500001,26.14500001,1478282397,37.35297047,-122.0348353,54.57001,1.55,151.875,6,10,1478282398,27.9428997,2.669395447,-26.17394257,244.1686401,230.7099609,10,20441.87137,0.28112793,0.557662964,-0.763595581,20441.85574,-0.134645963,0.102550877,-0.011745073,20441.86073,0.506585383,0.357360441,-0.611246234,-0.044675656,0.020651491,0.006415573,0.002566887,-0.008382507,-0.003906873,-0.329123589,0.089886858,0.183404894,0.921933111,0.286465108,0.573888481,-0.767196059,27.50037766,4.627563477,-25.2348938,2
271.1170001,27.11170001,1478282397,37.35297047,-122.0348353,54.57001,1.55,151.875,6,10,1478282398,27.9428997,2.669395447,-26.17394257,244.1686401,230.7099609,10,20441.88104,0.2837677,0.555969238,-0.756088257,20441.85574,-0.134645963,0.102550877,-0.011745073,20441.86073,0.506585383,0.357360441,-0.611246234,-0.044675656,0.020651491,0.006415573,0.002566887,-0.008382507,-0.003906873,-0.329123589,0.089886858,0.183404894,0.921933111,0.286465108,0.573888481,-0.767196059,27.50037766,4.627563477,-25.2348938,2
280.8100001,28.08100001,1478282397,37.35297047,-122.0348353,54.57001,1.55,151.875,6,10,1478282398,28.04767418,2.774177551,-26.34152985,244.1691895,230.7105103,10,20441.89073,0.295440674,0.554626465,-0.740066528,20441.87572,-0.115287445,0.104855843,0.012827648,20441.88072,0.50706512,0.357908824,-0.611125614,-0.037180673,0.034458678,0.011890793,-0.003142317,-0.017820466,0.011015397,-0.329141499,0.090078003,0.183550164,0.921879148,0.286910027,0.573789716,-0.767103672,27.51581955,4.614025116,-25.22053337,2
290.5000001,29.05000001,1478282397,37.35297047,-122.0348353,54.57001,1.55,151.875,6,10,1478282398,28.04767418,2.774177551,-26.34152985,244.1691895,230.7105103,10,20441.90042,0.304718018,0.552154541,-0.737075806,20441.88572,-0.110063122,0.118500282,-0.00411778,20441.89071,0.507898027,0.359750944,-0.611230241,-0.025609901,0.048039455,-0.014663276,0.007139182,-0.019248925,0.026451107,-0.329395061,0.090774864,0.183618267,0.921706651,0.288301498,0.573875368,-0.766517639,27.51581955,4.614025116,-25.22053337,2
300.1540001,30.01540001,1478282397,37.35297047,-122.0348353,54.57001,1.55,151.875,6,10,1478282398,28.04767418,2.774177551,-26.34152985,244.1691895,230.7105103,10,20441.91008,0.301147461,0.549865723,-0.735961914,20441.9057,-0.104980212,0.124554979,-0.045693985,20441.9007,0.508714303,0.362003749,-0.611190498,-0.018280471,0.04999442,-0.038129639,0.014682367,-0.021688303,0.028811727,-0.329621355,0.09168422,0.183628027,0.921533784,0.290035665,0.573842824,-0.765887558,27.51581955,4.614025116,-25.22053337,2
309.8640001,30.98640001,1478282397,37.35297047,-122.0348353,54.57001,1.55,151.875,6,10,1478282398,28.04767418,2.774177551,-26.34152985,244.1691895,230.7105103,10,20441.91979,0.295837402,0.553787231,-0.738739014,20441.9057,-0.104980212,0.124554979,-0.045693985,20441.9007,0.508714303,0.362003749,-0.611190498,-0.018280471,0.04999442,-0.038129639,0.014682367,-0.021688303,0.028811727,-0.329621355,0.09168422,0.183628027,0.921533784,0.290035665,0.573842824,-0.765887558,27.51581955,4.614025116,-25.22053337,2
319.5470001,31.95470001,1478282397,37.35297047,-122.0348353,54.57001,1.55,151.875,6,10,1478282398,28.25721931,2.774177551,-26.81076813,243.8067932,230.348114,10,20441.92947,0.29524231,0.555633545,-0.747146606,20441.91567,-0.136935749,0.112960907,-0.036194223,20441.92067,0.509249886,0.364073256,-0.612035571,-0.080095075,0.035242449,-0.024381498,0.004390148,-0.020747492,0.026093222,-0.330213681,0.092427306,0.183431494,0.921286603,0.291447252,0.574534714,-0.764832258,27.61027527,4.605239868,-25.11870575,2
329.2300001,32.92300001,1478282397,37.35297047,-122.0348353,54.57001,1.55,151.875,6,10,1478282398,28.25721931,2.774177551,-26.81076813,243.8067932,230.348114,10,20441.93915,0.286651611,0.554168701,-0.764022827,20441.92568,-0.183816438,0.110920127,-0.022324214,20441.92067,0.509249886,0.364073256,-0.612035571,-0.080095075,0.035242449,-0.024381498,0.004390148,-0.020747492,0.026093222,-0.330213681,0.092427306,0.183431494,0.921286603,0.291447252,0.574534714,-0.764832258,27.61027527,4.605239868,-25.11870575,2
338.9130001,33.89130001,1478282397,37.35297047,-122.0348353,54.57001,1.55,151.875,6,10,1478282398,28.11752129,3.123420715,-27.01187897,243.582489,230.1238251,10,20441.94884,0.283233643,0.549636841,-0.77192688,20441.93567,-0.230716303,0.091898765,-0.013962954,20441.93068,0.509783967,0.364905344,-0.611998589,-0.129116133,0.026832569,-0.012708439,-0.005439532,-0.020335753,0.000586482,-0.330298216,0.092727739,0.183544576,0.921203584,0.292091131,0.574504435,-0.764609337,27.61027527,4.605239868,-25.11870575,2
348.5840001,34.85840001,1478282397,37.35297047,-122.0348353,54.57001,1.55,151.875,6,10,1478282398,28.11752129,3.123420715,-27.01187897,243.582489,230.1238251,10,20441.95851,0.285842896,0.549133301,-0.778808594,20441.94567,-0.254169431,0.061187458,-0.01319836,20441.95066,0.510635815,0.364734851,-0.614053984,-0.178160667,-0.034600127,-0.012245898,-0.008305314,-0.026548743,-0.008372553,-0.331240112,0.092210763,0.183716131,0.920883026,0.291538954,0.576185584,-0.763554335,27.6668396,4.62843132,-25.05211639,2
358.2590001,35.82590001,1478282397,37.35297047,-122.0348353,54.57001,1.55,151.875,6,10,1478282398,27.83812904,3.123420715,-27.01187897,243.1844788,229.7257996,10,20441.96818,0.289916992,0.549301147,-0.770751953,20441.95566,-0.253126005,0.025124528,-0.022102107,20441.95066,0.510635815,0.364734851,-0.614053984,-0.178160667,-0.034600127,-0.012245898,-0.008305314,-0.026548743,-0.008372553,-0.331240112,0.092210763,0.183716131,0.920883026,0.291538954,0.576185584,-0.763554335,27.6668396,4.62843132,-25.05211639,2
367.9330001,36.79330001,1478282397,37.35297047,-122.0348353,54.57001,1.55,151.875,6,10,1478282398,27.83812904,3.123420715,-27.01187897,243.1844788,229.7257996,10,20441.97786,0.291824341,0.546417236,-0.768188477,20441.96565,-0.232971734,-0.002573679,-0.046940345,20441.96065,0.510627503,0.363552179,-0.613173601,-0.165415242,-0.069654085,-0.028613724,-0.000898995,-0.026164658,-0.006379553,-0.330737761,0.091795059,0.184014569,0.921045514,0.290815979,0.575465798,-0.764372408,27.63171577,4.647346497,-25.08735657,2
377.6440001,37.76440001,1478282397,37.35297047,-122.0348353,54.57001,1.55,151.875,6,10,1478282398,27.83812904,3.123420715,-27.01187897,243.1844788,229.7257996,10,20441.98757,0.292999268,0.550186157,-0.759811401,20441.96565,-0.232971734,-0.002573679,-0.046940345,20441.97065,0.510697228,0.362732143,-0.61354396,-0.142081574,-0.088902973,-0.056569241,0.001710908,-0.029351419,-0.003777166,-0.330830937,0.091352262,0.184137573,0.921031492,0.290113419,0.57576865,-0.76441133,27.63171577,4.647346497,-25.08735657,2
387.3090001,38.73090001,1478282397,37.35297047,-122.0348353,54.57001,1.55,151.875,6,10,1478282398,27.83812904,3.123420715,-27.01187897,243.1844788,229.7257996,10,20441.99723,0.289840698,0.552536011,-0.744018555,20441.98563,-0.171221018,-0.021811023,-0.075974393,20441.98064,0.510566906,0.361857657,-0.614070948,-0.109060802,-0.097449794,-0.069473527,0.003661868,-0.026013291,0.004569436,-0.330979923,0.090894838,0.184158684,0.921019,0.289337397,0.576199472,-0.764380813,27.63171577,4.647346497,-25.08735657,2
397.0010001,39.70010001,1478282397,37.35297047,-122.0348353,54.57001,1.55,151.875,6,10,1478282398,27.83812904,3.123420715,-27.01187897,243.1844788,229.7257996,10,20442.00692,0.286437988,0.543777466,-0.743286133,20441.99562,-0.139207958,-0.001668737,-0.074712321,20441.99062,0.510340877,0.361021912,-0.614720911,-0.072788797,-0.096395046,-0.072674058,0.001274577,-0.024194537,0.020253301,-0.331183122,0.090453368,0.184114667,0.920998218,0.288566113,0.576730549,-0.764271855,27.63171577,4.647346497,-25.08735657,2
406.6930001,40.66930001,1478282398,37.35297047,-122.0348353,55.20886,0,146.25,6,10,1478282398,27.41903496,3.123420715,-26.47559357,243.4007263,229.9420471,10,20442.01662,0.289382935,0.53427124,-0.750732422,20441.99562,-0.139207958,-0.001668737,-0.074712321,20442.00061,0.509984753,0.360317148,-0.61483237,-0.04927602,-0.058193821,-0.062686458,-0.001566765,-0.033044133,0.021128746,-0.331151975,0.090171672,0.184053961,0.921049173,0.288004756,0.576821625,-0.764414907,27.5457077,4.707966805,-25.17049599,2
416.3650001,41.63650001,1478282398,37.35297047,-122.0348353,55.20886,0,146.25,6,10,1478282398,27.41903496,3.123420715,-26.47559357,243.4007263,229.9420471,10,20442.02629,0.289978027,0.518188477,-0.761779785,20442.01561,-0.126255407,0.070580427,-0.040893637,20442.0106,0.509765234,0.360146649,-0.614319978,-0.0438678,-0.013594524,-0.045156267,0.001404397,-0.042131726,0.014008046,-0.330897407,0.090203502,0.18404264,0.921139805,0.28797853,0.576402962,-0.764740467,27.5457077,4.707966805,-25.17049599,2
426.0500001,42.60500001,1478282398,37.35297047,-122.0348353,55.20886,0,146.25,6,10,1478282398,27.55873299,3.332954407,-26.27448273,244.0040283,230.5453644,10,20442.03597,0.289474487,0.497955322,-0.773422241,20442.0256,-0.145392617,0.046286272,-0.031524903,20442.02061,0.509675802,0.360074005,-0.613115648,-0.05552185,-0.013499865,-0.031271551,0.001810663,-0.057229932,0.003630709,-0.330348382,0.090358729,0.184158052,0.921298572,0.288167357,0.575418413,-0.765410483,27.5405426,4.696229935,-25.178339,2
435.7240001,43.57240001,1478282398,37.35297047,-122.0348353,55.20886,0,146.25,6,10,1478282398,27.55873299,3.332954407,-26.27448273,244.0040283,230.5453644,10,20442.04565,0.276733398,0.495727539,-0.785858154,20442.0256,-0.145392617,0.046286272,-0.031524903,20442.03059,0.509643945,0.359522064,-0.61135214,-0.085339509,-0.063251428,-0.027491232,0.001373058,-0.076019891,-0.006904127,-0.329507586,0.090364229,0.184445908,0.921541515,0.288101435,0.573975205,-0.766518116,27.5405426,4.696229935,-25.178339,2
445.4120001,44.54120001,1478282398,37.35297047,-122.0348353,55.20886,0,146.25,6,10,1478282398,27.52380943,3.856819153,-25.97283173,245.0769348,231.6182556,10,20442.05533,0.265838623,0.495727539,-0.798568726,20442.04556,-0.261717096,-0.109541941,-0.049076733,20442.04058,0.509366993,0.357473251,-0.610119315,-0.152564302,-0.158655062,-0.038039785,-0.010044356,-0.07723771,-0.018089088,-0.328754512,0.08964339,0.184802829,0.921809334,0.286777765,0.572965264,-0.767769039,27.5405426,4.696229935,-25.178339,2
455.1110001,45.51110001,1478282398,37.35297047,-122.0348353,55.20886,0,146.25,6,10,1478282398,27.52380943,3.856819153,-25.97283173,245.0769348,231.6182556,10,20442.06503,0.261856079,0.515686035,-0.814682007,20442.05555,-0.303411812,-0.157335562,-0.066628296,20442.05056,0.509643992,0.355649549,-0.612133808,-0.210255817,-0.208558738,-0.05347335,-0.019135991,-0.078887589,-0.031361502,-0.329499559,0.088467101,0.184990599,0.921619276,0.284974605,0.574615121,-0.767207205,27.5405426,4.696229935,-25.178339,2
464.7940001,46.47940001,1478282398,37.35297047,-122.0348353,55.20886,0,146.25,6,10,1478282398,27.52380943,3.856819153,-25.97283173,245.0769348,231.6182556,10,20442.07472,0.263656616,0.535827637,-0.806121826,20442.05555,-0.303411812,-0.157335562,-0.066628296,20442.06058,0.509819483,0.353189796,-0.614519926,-0.232754335,-0.276499808,-0.076570421,-0.020755475,-0.060880307,-0.048064787,-0.330347028,0.086961093,0.185193816,0.921418396,0.282611549,0.576566339,-0.766617239,27.40241241,4.651063919,-25.33693695,2
474.4700001,47.44700001,1478282398,37.35297047,-122.0348353,55.20886,0,146.25,6,10,1478282398,27.52380943,3.856819153,-25.97283173,245.0769348,231.6182556,10,20442.08439,0.244262695,0.531661987,-0.787017822,20442.06557,-0.305713583,-0.241265617,-0.105905128,20442.07057,0.509352897,0.34952011,-0.617007649,-0.213861674,-0.360604495,-0.141476467,-0.015647748,-0.042769518,-0.039822664,-0.331099922,0.084989765,0.185291664,0.921312423,0.279304355,0.578597128,-0.766299188,27.40241241,4.651063919,-25.33693695,2
484.1590001,48.41590001,1478282398,37.35297047,-122.0348353,55.20886,0,146.25,6,10,1478282398,27.27933693,4.171142578,-26.00634003,245.5335999,232.0749359,10,20442.09408,0.230651855,0.474472046,-0.794235229,20442.06557,-0.305713583,-0.241265617,-0.105905128,20442.07057,0.509352897,0.34952011,-0.617007649,-0.213861674,-0.360604495,-0.141476467,-0.015647748,-0.042769518,-0.039822664,-0.331099922,0.084989765,0.185291664,0.921312423,0.279304355,0.578597128,-0.766299188,27.40241241,4.651063919,-25.33693695,2
493.8410001,49.38410001,1478282398,37.35297047,-122.0348353,55.20886,0,146.25,6,10,1478282398,27.27933693,4.171142578,-26.00634003,245.5335999,232.0749359,10,20442.10376,0.224136353,0.480209351,-0.780288696,20442.08554,-0.234242062,-0.26906822,-0.2951656,20442.09055,0.50369928,0.33810202,-0.620511966,-0.147805527,-0.296306729,-0.33194381,-0.039210614,-0.106979713,-0.026714483,-0.33138091,0.08016433,0.184169466,0.921868744,0.269862473,0.581451774,-0.767520726,27.27346039,4.780220032,-25.4517746,2
503.5230001,50.35230001,1478282398,37.35297047,-122.0348353,55.20886,0,146.25,6,10,1478282398,27.17456627,4.555305481,-25.90579987,246.3882751,232.9295959,10,20442.11345,0.219039917,0.507263184,-0.793182373,20442.09555,-0.222045317,-0.153219114,-0.38154523,20442.10054,0.499630035,0.333823993,-0.623218797,-0.149559528,-0.149818704,-0.426552325,-0.041923508,-0.103442505,-0.013110319,-0.332040595,0.078484744,0.182693118,0.922069636,0.266059875,0.583651841,-0.767178357,27.27346039,4.780220032,-25.4517746,2
513.2070001,51.32070001,1478282398,37.35297047,-122.0348353,55.20886,0,146.25,6,10,1478282398,27.17456627,4.555305481,-25.90579987,246.3882751,232.9295959,10,20442.12313,0.204452515,0.522659302,-0.806793213,20442.09555,-0.222045317,-0.153219114,-0.38154523,20442.10054,0.499630035,0.333823993,-0.623218797,-0.149559528,-0.149818704,-0.426552325,-0.041923508,-0.103442505,-0.013110319,-0.332040595,0.078484744,0.182693118,0.922069636,0.266059875,0.583651841,-0.767178357,27.27346039,4.780220032,-25.4517746,2
522.8840001,52.28840001,1478282398,37.35297047,-122.0348353,55.20886,0,146.25,6,10,1478282398,27.62858009,4.729927063,-26.34152985,246.9005737,233.4418945,10,20442.13281,0.191421509,0.545089722,-0.762008667,20442.11552,-0.253048507,0.020290624,-0.544199925,20442.12053,0.48886861,0.326194696,-0.629843398,-0.208057091,-0.047019999,-0.555748701,-0.054501958,-0.066358909,-0.041286759,-0.333909844,0.075835283,0.1782526,0.922485359,0.258954465,0.589018226,-0.765506446,26.9691391,5.120796204,-25.70851898,2
532.5710001,53.25710001,1478282398,37.35297047,-122.0348353,55.20886,0,146.25,6,10,1478282398,27.62858009,4.729927063,-26.34152985,246.9005737,233.4418945,10,20442.14249,0.203613281,0.5493927,-0.739730835,20442.12553,-0.330067125,0.070923708,-0.565022648,20442.13052,0.483414693,0.323285442,-0.634232622,-0.299942046,0.070469394,-0.554543376,-0.064481027,-0.047469825,0.001789131,-0.335418442,0.074803543,0.175734506,0.922505438,0.255902529,0.592559516,-0.76379782,26.9691391,5.120796204,-25.70851898,2
542.2540001,54.22540001,1478282398,37.35297047,-122.0348353,55.20886,0,146.25,6,10,1478282398,27.62858009,4.729927063,-26.34152985,246.9005737,233.4418945,10,20442.15218,0.238311768,0.593811035,-0.747024536,20442.12553,-0.330067125,0.070923708,-0.565022648,20442.13052,0.483414693,0.323285442,-0.634232622,-0.299942046,0.070469394,-0.554543376,-0.064481027,-0.047469825,0.001789131,-0.335418442,0.074803543,0.175734506,0.922505438,0.255902529,0.592559516,-0.76379782,26.9691391,5.120796204,-25.70851898,2
551.9230001,55.19230001,1478282398,37.35297047,-122.0348353,55.20886,0,146.25,6,10,1478282398,27.62858009,4.729927063,-26.34152985,246.9005737,233.4418945,10,20442.16185,0.247772217,0.625549316,-0.779815674,20442.1455,-0.485954727,0.371782082,-0.532063899,20442.1505,0.473830271,0.322620033,-0.64504612,-0.437784761,0.309744716,-0.546763182,-0.015036025,-0.007424257,0.010821767,-0.339859461,0.074648478,0.170228022,0.921924928,0.253347784,0.601235271,-0.757846296,26.85691833,5.709758759,-25.70193672,2
561.5570001,56.15570001,1478282398,37.35297047,-122.0348353,55.20886,0,146.25,6,10,1478282398,27.62858009,4.729927063,-26.34152985,246.9005737,233.4418945,10,20442.17148,0.24671936,0.617584229,-0.7996521,20442.1555,-0.548234347,0.379781951,-0.592819925,20442.16049,0.468468956,0.322270778,-0.651617915,-0.506630421,0.27727285,-0.639952302,-0.004053995,0.019075708,-0.025645057,-0.342580311,0.074521284,0.167089506,0.921502255,0.251826227,0.606473625,-0.754170597,26.85691833,5.709758759,-25.70193672,2
571.2410001,57.12410001,1478282398,37.35297047,-122.0348353,55.20886,0,146.25,6,10,1478282398,27.62858009,4.729927063,-26.34152985,246.9005737,233.4418945,10,20442.18116,0.24546814,0.601654053,-0.765731812,20442.1555,-0.548234347,0.379781951,-0.592819925,20442.16049,0.468468956,0.322270778,-0.651617915,-0.506630421,0.27727285,-0.639952302,-0.004053995,0.019075708,-0.025645057,-0.342580311,0.074521284,0.167089506,0.921502255,0.251826227,0.606473625,-0.754170597,26.85691833,5.709758759,-25.70193672,2
580.8990001,58.08990001,1478282398,37.35297047,-122.0348353,55.20886,0,146.25,6,10,1478282398,27.48888588,5.009315491,-26.34152985,246.8463745,233.3876953,10,20442.19082,0.247329712,0.574707031,-0.714691162,20442.17546,-0.732917645,0.266028754,-0.790352975,20442.18048,0.455180654,0.318329541,-0.66828738,-0.703019321,0.209130421,-0.82528007,-0.000185228,-0.017988635,-0.020280698,-0.349247806,0.072803939,0.159817911,0.920425875,0.245653361,0.619642675,-0.745451093,26.9571743,6.487840652,-25.41069794,2
590.6090001,59.06090001,1478282398,37.35297047,-122.0348353,55.20886,0,146.25,6,10,1478282398,27.20948982,5.568099976,-26.07338715,246.8496399,233.390976,10,20442.20053,0.252349854,0.566467285,-0.68548584,20442.18548,-0.827342152,0.352292004,-0.860989328,20442.19047,0.447690867,0.316887316,-0.678309531,-0.791027784,0.372779876,-0.883396149,0.004699106,-0.052770633,0.025175158,-0.353355901,0.072155717,0.155531016,0.919643008,0.242630601,0.627477646,-0.739866316,26.9571743,6.487840652,-25.41069794,2
600.2770001,60.02770001,1478282398,37.35297047,-122.0348353,55.20886,0,146.25,6,10,1478282398,27.20948982,5.568099976,-26.07338715,246.8496399,233.390976,10,20442.2102,0.256958008,0.584960938,-0.649581909,20442.20546,-0.988344621,0.78990583,-0.950493378,20442.20046,0.439906336,0.317383506,-0.689282956,-0.87579149,0.599012375,-0.925937176,0.011515615,-0.069516718,0.047673911,-0.35802785,0.07236148,0.150669252,0.91862868,0.240834236,0.635984004,-0.733159721,26.9571743,6.487840652,-25.41069794,2
609.9510001,60.99510001,1478282398,37.35297047,-122.0348353,55.20886,0,146.25,6,10,1478282398,27.20948982,5.568099976,-26.07338715,246.8496399,233.390976,10,20442.21987,0.249328613,0.596664429,-0.618469238,20442.21545,-1.06031069,1.039447486,-0.991735624,20442.22045,0.423622629,0.324829078,-0.71370744,-1.017529726,1.090727687,-1.001026034,0.01570216,-0.069679931,0.066826463,-0.368879537,0.075655155,0.139169796,0.915879879,0.24125585,0.654640853,-0.716408372,27.08821106,8.343770981,-24.72034073,2
619.6600001,61.96600001,1478282398,37.35297047,-122.0348353,55.20886,0,146.25,6,10,1478282398,27.20948982,5.568099976,-26.07338715,246.8496399,233.390976,10,20442.22958,0.248641968,0.587234497,-0.609054565,20442.21545,-1.06031069,1.039447486,-0.991735624,20442.22045,0.423622629,0.324829078,-0.71370744,-1.017529726,1.090727687,-1.001026034,0.01570216,-0.069679931,0.066826463,-0.368879537,0.075655155,0.139169796,0.915879879,0.24125585,0.654640853,-0.716408372,27.08821106,8.343770981,-24.72034073,2
629.3430001,62.93430001,1478282398,37.35297047,-122.0348353,55.20886,0,146.25,6,10,1478282398,27.20948982,5.568099976,-26.07338715,246.8496399,233.390976,10,20442.23927,0.248199463,0.569503784,-0.626724243,20442.22545,-1.13539905,1.301802143,-1.01790198,20442.22045,0.423622629,0.324829078,-0.71370744,-1.017529726,1.090727687,-1.001026034,0.01570216,-0.069679931,0.066826463,-0.368879537,0.075655155,0.139169796,0.915879879,0.24125585,0.654640853,-0.716408372,27.08821106,8.343770981,-24.72034073,2
639.0160001,63.90160001,1478282398,37.35297047,-122.0348353,55.20886,0,146.25,6,10,1478282398,27.62857628,6.12688446,-25.67116547,247.4742126,234.0155334,10,20442.24894,0.250793457,0.587890625,-0.653076172,20442.23544,-1.225349446,1.532452666,-1.034775236,20442.24043,0.407531204,0.341896385,-0.74165787,-1.20062983,1.539313197,-1.035967231,0.000985058,-0.106007487,0.067948028,-0.381802604,0.083009857,0.125481593,0.911915843,0.247214407,0.675511241,-0.694672287,27.4119339,9.371435165,-23.98430824,2
648.7110001,64.87110001,1478282398,37.35297047,-122.0348353,55.20886,0,146.25,6,10,1478282398,27.62857628,6.12688446,-25.67116547,247.4742126,234.0155334,10,20442.25863,0.254669189,0.599914551,-0.640762329,20442.24543,-1.338701039,1.680522558,-1.049270556,20442.25042,0.400037355,0.353040293,-0.757423402,-1.333237886,1.651287198,-1.062564254,-0.000433081,-0.099160925,0.028719541,-0.389140073,0.087590794,0.118109416,0.909366825,0.251226544,0.687051535,-0.681795716,27.4119339,9.371435165,-23.98430824,2
658.3940001,65.83940001,1478282398,37.35297047,-122.0348353,55.20886,0,146.25,6,10,1478282398,27.62857628,6.12688446,-25.67116547,247.4742126,234.0155334,10,20442.26832,0.251434326,0.581069946,-0.625610352,20442.2554,-1.486304345,1.785007156,-1.085547337,20442.25042,0.400037355,0.353040293,-0.757423402,-1.333237886,1.651287198,-1.062564254,-0.000433081,-0.099160925,0.028719541,-0.389140073,0.087590794,0.118109416,0.909366825,0.251226544,0.687051535,-0.681795716,27.4119339,9.371435165,-23.98430824,2
668.0710001,66.80710001,1478282398,37.35297047,-122.0348353,55.20886,0,146.25,6,10,1478282398,28.01273537,7.488922119,-24.83322906,247.5760193,234.1173553,10,20442.27799,0.254119873,0.496826172,-0.64944458,20442.26539,-1.604928997,1.899236793,-1.093976242,20442.27041,0.386708672,0.379455104,-0.793032748,-1.565072894,1.861825705,-1.068927884,-0.008480917,-0.131414637,0.026163979,-0.405635886,0.097838449,0.102584518,0.902974851,0.259915233,0.712484598,-0.651774347,28.43544006,11.74217606,-21.63405037,2
677.7620001,67.77620001,1478282398,37.35297047,-122.0348353,55.20886,0,146.25,6,10,1478282398,28.36197853,9.02558136,-23.4254837,247.5517273,234.0930481,10,20442.28768,0.278930664,0.546569824,-0.616958618,20442.2754,-1.65997414,1.934738861,-1.012468599,20442.2804,0.382347312,0.394769609,-0.811300489,-1.575989962,1.83738029,-0.934655309,-0.010695656,-0.228357077,-0.013848801,-0.414142698,0.103382474,0.095224417,0.899294279,0.264815539,0.725183249,-0.635595798,28.43544006,11.74217606,-21.63405037,2
687.4460001,68.74460001,1478282398,37.35297047,-122.0348353,55.20886,0,146.25,6,10,1478282398,28.36197853,9.02558136,-23.4254837,247.5517273,234.0930481,10,20442.29737,0.3099823,0.593154907,-0.58807373,20442.2754,-1.65997414,1.934738861,-1.012468599,20442.2804,0.382347312,0.394769609,-0.811300489,-1.575989962,1.83738029,-0.934655309,-0.010695656,-0.228357077,-0.013848801,-0.414142698,0.103382474,0.095224417,0.899294279,0.264815539,0.725183249,-0.635595798,28.43544006,11.74217606,-21.63405037,2
697.1290001,69.71290001,1478282398,37.35297047,-122.0348353,55.20886,0,146.25,6,10,1478282398,28.36197853,9.02558136,-23.4254837,247.5517273,234.0930481,10,20442.30705,0.329879761,0.61579895,-0.552886963,20442.29539,-1.569124128,1.961656229,-0.810447324,20442.29039,0.379671158,0.411201541,-0.828816417,-1.526289225,1.846609592,-0.8331545,0.039878115,-0.14397718,0.031345371,-0.422349555,0.109138914,0.088361204,0.895489725,0.27010417,0.737132072,-0.619419098,28.43544006,11.74217606,-21.63405037,2
706.8110001,70.68110001,1478282398,37.35297047,-122.0348353,55.20886,0,146.25,6,10,1478282398,28.36197853,9.02558136,-23.4254837,247.5517273,234.0930481,10,20442.31673,0.375259399,0.615814209,-0.517822266,20442.29539,-1.569124128,1.961656229,-0.810447324,20442.30038,0.377694973,0.428829262,-0.845508293,-1.452504992,1.940074444,-0.798070312,0.054054197,-0.13250944,0.050399717,-0.430178906,0.115337631,0.081535512,0.891625089,0.27582556,0.748308361,-0.603286684,29.22858429,13.49265289,-19.44538689,2
716.4880001,71.64880001,1478282398,37.35297047,-122.0348353,55.20886,0,146.25,6,10,1478282398,28.36197853,9.02558136,-23.4254837,247.5517273,234.0930481,10,20442.32641,0.461257935,0.612258911,-0.494949341,20442.31537,-1.489242078,2.426527243,-0.954185319,20442.31037,0.375278243,0.447951228,-0.861864445,-1.40717268,2.164099932,-0.862018406,0.093288273,-0.143243477,0.068968773,-0.437779486,0.122284918,0.074102624,0.887639748,0.281971127,0.759057701,-0.586791039,29.22858429,13.49265289,-19.44538689,2
726.1710001,72.61710001,1478282398,37.35297047,-122.0348353,55.20886,0,146.25,6,10,1478282398,29.13030815,10.63208771,-21.61553955,249.991272,236.5325928,10,20442.33609,0.560638428,0.621154785,-0.49937439,20442.32536,-1.564263326,2.911070229,-1.295189248,20442.32037,0.370886442,0.46919797,-0.879149659,-1.440895796,2.578545094,-1.089506507,0.172860369,-0.157937899,0.073930018,-0.445586951,0.130432313,0.065057521,0.883293383,0.288397551,0.770196795,-0.568879366,29.77724266,14.52807426,-17.79707336,2
735.8610001,73.58610001,1478282398,37.35297047,-122.0348353,55.20886,0,146.25,6,10,1478282398,29.13030815,10.63208771,-21.61553955,249.991272,236.5325928,10,20442.34578,0.538955688,0.624572754,-0.538726807,20442.33535,-1.618574236,3.32361492,-1.930508696,20442.34034,0.343140443,0.509351608,-0.922549742,-1.468152881,3.251351833,-2.340346336,0.266223818,-0.175988927,0.027770683,-0.462926488,0.148749891,0.037468749,0.873022697,0.29441461,0.797143698,-0.527145088,29.77724266,14.52807426,-17.79707336,2
745.5410001,74.55410001,1478282398,37.35297047,-122.0348353,55.20886,0,146.25,6,10,1478282398,29.13030815,10.63208771,-21.61553955,249.991272,236.5325928,10,20442.35546,0.394088745,0.638397217,-0.562744141,20442.34535,-1.390645463,3.184435725,-2.744399221,20442.34034,0.343140443,0.509351608,-0.922549742,-1.468152881,3.251351833,-2.340346336,0.266223818,-0.175988927,0.027770683,-0.462926488,0.148749891,0.037468749,0.873022697,0.29441461,0.797143698,-0.527145088,29.77724266,14.52807426,-17.79707336,2
755.2280001,75.52280001,1478282398,37.35297047,-122.0348353,55.20886,0,146.25,6,10,1478282398,30.52727699,15.73098755,-16.45381927,261.5087891,248.0501099,10,20442.36515,0.25479126,0.72517395,-0.536270142,20442.35534,-1.059719468,2.864941882,-3.316720529,20442.35035,0.311160015,0.513969536,-0.947084032,-1.138162613,2.926488161,-3.069655657,0.106946468,-0.173318669,-0.054151334,-0.470787957,0.155120266,0.018863264,0.868297518,0.287142277,0.811715901,-0.508592784,30.37801361,16.87448692,-14.38446808,2
764.9130001,76.49130001,1478282398,37.35297047,-122.0348353,55.20886,0,146.25,6,10,1478282398,30.52727699,15.73098755,-16.45381927,261.5087891,248.0501099,10,20442.37484,0.169845581,0.876724243,-0.47467041,20442.36531,-0.784374711,2.819224727,-3.508348285,20442.37031,0.217856698,0.492409826,-0.993761447,-0.561950028,2.875226736,-3.463189363,-0.003113829,-0.11290998,-0.055541221,-0.482863012,0.162723235,-0.022806778,0.86014203,0.257905096,0.838083923,-0.480728924,30.37801361,16.87448692,-14.38446808,2
774.5700001,77.45700001,1478282398,37.35297047,-122.0348353,55.20886,0,146.25,6,10,1478282398,30.52727699,15.73098755,-16.45381927,261.5087891,248.0501099,10,20442.38449,0.08581543,1.012512207,-0.468795776,20442.37533,-0.471071918,3.150722236,-3.370577369,20442.37031,0.217856698,0.492409826,-0.993761447,-0.561950028,2.875226736,-3.463189363,-0.003113829,-0.11290998,-0.055541221,-0.482863012,0.162723235,-0.022806778,0.86014203,0.257905096,0.838083923,-0.480728924,30.37801361,16.87448692,-14.38446808,2
784.2790001,78.42790001,1478282398,37.35297047,-122.0348353,55.20886,0,146.25,6,10,1478282398,30.52727699,15.73098755,-16.45381927,261.5087891,248.0501099,10,20442.3942,0.025924683,1.137496948,-0.539871216,20442.38532,-0.159442123,3.727828712,-2.944222323,20442.38032,0.166649484,0.48131067,-1.011816863,-0.22451131,3.349544287,-3.19694519,-0.159692213,0.164715439,0.001275119,-0.486355867,0.168589806,-0.044394265,0.856191916,0.245507643,0.847796738,-0.470070899,29.60379219,20.20507622,-11.39540482,2
793.9620001,79.39620001,1478282398,37.35297047,-122.0348353,55.20886,0,146.25,6,10,1478282398,30.52727699,15.73098755,-16.45381927,261.5087891,248.0501099,10,20442.40388,-0.008209229,1.224822998,-0.640014648,20442.38532,-0.159442123,3.727828712,-2.944222323,20442.39032,0.119665901,0.478881465,-1.024884986,0.036679111,3.872475386,-2.645147324,-0.213314503,0.282842457,-0.079078063,-0.487826871,0.177843658,-0.065443486,0.852123071,0.239239186,0.854654491,-0.460793167,29.60379219,20.20507622,-11.39540482,2
803.6460001,80.36460001,1478282398,37.35297047,-122.0348353,55.20886,0,146.25,6,10,1478282398,30.52727699,15.73098755,-16.45381927,261.5087891,248.0501099,10,20442.41357,-0.024780273,1.296203613,-0.752227783,20442.41526,0.132279478,2.864999672,-1.048404762,20442.41027,0.05270387,0.49627561,-1.038385066,0.243400514,3.341948509,-1.351285934,-0.249910742,0.363237411,-0.193639636,-0.486433483,0.200486816,-0.099642975,0.844546494,0.241701514,0.861585617,-0.446375012,29.60379219,20.20507622,-11.39540482,2
813.3320001,81.33320001,1478282398,37.35297047,-122.0348353,55.20886,0,146.25,6,10,1478282398,30.73682213,18.03596497,-13.43723297,268.9532471,255.4945679,10,20442.42325,-0.024459839,1.295593262,-0.777984619,20442.41526,0.132279478,2.864999672,-1.048404762,20442.41027,0.05270387,0.49627561,-1.038385066,0.243400514,3.341948509,-1.351285934,-0.249910742,0.363237411,-0.193639636,-0.486433483,0.200486816,-0.099642975,0.844546494,0.241701514,0.861585617,-0.446375012,29.60379219,20.20507622,-11.39540482,2
823.0160001,82.30160001,1478282398,37.35297047,-122.0348353,55.20886,0,146.25,6,10,1478282398,30.73682213,18.03596497,-13.43723297,268.9532471,255.4945679,10,20442.43294,0.038253784,1.121551514,-0.717147827,20442.42529,-0.043675309,1.540171572,-0.488394715,20442.43028,0.029582872,0.512120174,-1.043217811,-0.107569873,0.776925862,-0.241090521,-0.271160066,0.431564569,-0.339129925,-0.485224841,0.212437066,-0.113779164,0.840524627,0.246700212,0.864028692,-0.438854694,29.09339142,22.68984795,-7.295909882,2
832.7010001,83.27010001,1478282398,37.35297047,-122.0348353,55.20886,0,146.25,6,10,1478282399,30.80666924,19.85202026,-11.02394867,274.3492126,260.8905334,10,20442.44262,0.117599487,0.947097778,-0.581253052,20442.43526,-0.328867105,0.195773765,0.008458732,20442.43028,0.029582872,0.512120174,-1.043217811,-0.107569873,0.776925862,-0.241090521,-0.271160066,0.431564569,-0.339129925,-0.485224841,0.212437066,-0.113779164,0.840524627,0.246700212,0.864028692,-0.438854694,29.09339142,22.68984795,-7.295909882,2
842.3850001,84.23850001,1478282398,37.35297047,-122.0348353,55.20886,0,146.25,6,10,1478282399,30.80666924,19.85202026,-11.02394867,274.3492126,260.8905334,10,20442.45231,0.157806396,0.931610107,-0.408447266,20442.44525,-0.586878679,-0.865264767,0.448371133,20442.44025,0.034998451,0.515070841,-1.04532991,-0.385387689,-0.463721544,0.253601998,-0.129495069,0.082007706,-0.144717321,-0.486515931,0.212213062,-0.112461389,0.840012084,0.247094557,0.865090072,-0.436535746,29.08359528,22.90799904,-6.62216568,2
852.0700001,85.20700001,1478282398,37.35297047,-122.0348353,55.20886,0,146.25,6,10,1478282399,30.80666924,19.85202026,-11.02394867,274.3492126,260.8905334,10,20442.46199,0.190246582,0.894882202,-0.260314941,20442.44525,-0.586878679,-0.865264767,0.448371133,20442.45027,0.049656834,0.516498707,-1.047635276,-0.617464781,-1.310505986,0.597445369,-0.088925682,0.065365925,0.025999852,-0.488943582,0.209070837,-0.106918969,0.840114214,0.246732071,0.866244197,-0.43444711,29.08359528,22.90799904,-6.62216568,2
861.7540001,86.17540001,1478282398,37.35297047,-122.0348353,55.20886,0,146.25,6,10,1478282399,30.80666924,19.85202026,-11.02394867,274.3492126,260.8905334,10,20442.47168,0.208221436,0.869873047,-0.183792114,20442.45526,-0.790991601,-1.468246249,0.68256366,20442.46026,0.069580031,0.517789494,-1.050650795,-0.794572532,-1.652595997,0.742443323,-0.05575202,0.027135342,0.171541601,-0.49219231,0.204495616,-0.099221082,0.840287719,0.245998606,0.86774683,-0.431856543,29.08359528,22.90799904,-6.62216568,2
871.4390001,87.14390001,1478282398,37.35297047,-122.0348353,55.20886,0,146.25,6,10,1478282399,30.70189857,21.70298767,-9.448616028,278.0140381,264.5553589,10,20442.48136,0.209625244,0.846282959,-0.203872681,20442.47523,-1.070051468,-1.344722446,0.79917656,20442.47024,0.092285658,0.52146691,-1.054509437,-0.925623357,-1.562286496,0.794629276,-0.037693802,0.000214883,0.244250372,-0.495915034,0.200117548,-0.091057109,0.840077287,0.245915234,0.869658172,-0.428042501,29.19124413,22.61354637,-7.140295029,2
881.1000001,88.11000001,1478282398,37.35297047,-122.0348353,55.20886,0,146.25,6,10,1478282399,30.70189857,21.70298767,-9.448616028,278.0140381,264.5553589,10,20442.49102,0.204528809,0.850921631,-0.260757446,20442.48524,-1.23222919,-1.042669378,0.851365463,20442.49023,0.145164938,0.543578237,-1.065188973,-1.253159642,-0.995250046,0.897567391,-0.040875692,-0.028597511,0.210655302,-0.50461474,0.195192152,-0.075773625,0.837569308,0.250500947,0.874880493,-0.414527982,29.19124413,22.61354637,-7.140295029,2
890.8070001,89.08070001,1478282398,37.35297047,-122.0348353,55.20886,0,146.25,6,10,1478282399,30.70189857,21.70298767,-9.448616028,278.0140381,264.5553589,10,20442.50073,0.218719482,0.840774536,-0.320343018,20442.48524,-1.23222919,-1.042669378,0.851365463,20442.49023,0.145164938,0.543578237,-1.065188973,-1.253159642,-0.995250046,0.897567391,-0.040875692,-0.028597511,0.210655302,-0.50461474,0.195192152,-0.075773625,0.837569308,0.250500947,0.874880493,-0.414527982,29.19124413,22.61354637,-7.140295029,2
900.4640001,90.04640001,1478282398,37.35297047,-122.0348353,55.20886,0,146.25,6,10,1478282399,30.70189857,22.19192505,-8.644187927,277.6748962,264.216217,10,20442.51039,0.247238159,0.8565979,-0.32850647,20442.5052,-1.675277196,-0.716326417,1.060805239,20442.5002,0.177947944,0.563551106,-1.072133272,-1.478912234,-0.84845823,1.006927729,-0.036758598,-0.037448209,0.083953612,-0.509916762,0.194516276,-0.068080968,0.835172615,0.255478084,0.878222764,-0.404296637,29.51685524,22.03422165,-7.598234653,2
910.1540001,91.01540001,1478282398,37.35297047,-122.0348353,55.20886,0,146.25,6,10,1478282399,30.70189857,22.19192505,-8.644187927,277.6748962,264.216217,10,20442.52008,0.286270142,0.865615845,-0.284835815,20442.5052,-1.675277196,-0.716326417,1.060805239,20442.51022,0.216173861,0.589590987,-1.080032777,-1.70889616,-0.727058351,1.119236469,-0.014814287,-0.025375355,0.063222639,-0.515982259,0.194673459,-0.059977176,0.832026016,0.262052447,0.881973267,-0.391729116,29.51685524,22.03422165,-7.598234653,2
919.8510001,91.98510001,1478282398,37.35297047,-122.0348353,55.20886,0,146.25,6,10,1478282399,30.70189857,22.26177216,-7.906799316,276.6893921,263.2307129,10,20442.52977,0.323532104,0.856369019,-0.269927979,20442.51521,-1.879731269,-0.546267603,1.165056278,20442.52021,0.259487879,0.62238122,-1.088352042,-1.876104236,-0.475509346,1.215757132,0.015802911,-0.020247709,0.092116751,-0.522597997,0.195997574,-0.051812226,0.82812546,0.270467222,0.885863543,-0.376952559,29.51685524,22.03422165,-7.598234653,2
929.5310001,92.95310001,1478282398,37.35297047,-122.0348353,55.20886,0,146.25,6,10,1478282399,30.70189857,22.26177216,-7.906799316,276.6893921,263.2307129,10,20442.53945,0.350326538,0.853378296,-0.288711548,20442.5352,-2.075931407,0.145951081,1.292707182,20442.54019,0.356966959,0.708562262,-1.10369223,-2.01704216,0.223863512,1.303965092,0.030501012,-0.036507044,0.071985923,-0.536338428,0.203430924,-0.037190828,0.818274888,0.293031096,0.892876089,-0.341913909,29.99403381,21.51986313,-7.192944527,2
939.2050001,93.92050001,1478282398,37.35297047,-122.0348353,55.20886,0,146.25,6,10,1478282399,30.70189857,22.26177216,-7.906799316,276.6893921,263.2307129,10,20442.54913,0.352157593,0.840209961,-0.249649048,20442.5352,-2.075931407,0.145951081,1.292707182,20442.54019,0.356966959,0.708562262,-1.10369223,-2.01704216,0.223863512,1.303965092,0.030501012,-0.036507044,0.071985923,-0.536338428,0.203430924,-0.037190828,0.818274888,0.293031096,0.892876089,-0.341913909,29.99403381,21.51986313,-7.192944527,2
948.9010001,94.89010001,1478282398,37.35297047,-122.0348353,55.20886,0,146.25,6,10,1478282399,30.70189857,22.26177216,-7.906799316,276.6893921,263.2307129,10,20442.55882,0.366012573,0.843292236,-0.179229736,20442.54518,-2.10706083,0.462615849,1.306576658,20442.55018,0.409123944,0.759967851,-1.109966131,-2.033256292,0.569117904,1.317050815,0.0458102,-0.055473663,0.072689466,-0.543177122,0.209259063,-0.031031751,0.812530793,0.3063474,0.895683646,-0.322338521,29.99403381,21.51986313,-7.192944527,2
958.5840001,95.85840001,1478282398,37.35297047,-122.0348353,55.20886,0,146.25,6,10,1478282399,31.33053017,21.8426857,-7.437545776,271.4715881,258.0129089,10,20442.56851,0.369064331,0.834747314,-0.146057129,20442.56517,-2.075927412,1.394215963,1.284980819,20442.56018,0.462455479,0.817015716,-1.114954048,-2.020907164,1.050795794,1.305879712,0.045046166,-0.054598324,0.122056022,-0.549845527,0.216857136,-0.026093688,0.806202207,0.320966393,0.897890568,-0.301285744,30.99569702,20.58835793,-5.465455055,2
968.2500001,96.82500001,1478282398,37.35297047,-122.0348353,55.20886,0,146.25,6,10,1478282399,31.33053017,21.8426857,-7.437545776,271.4715881,258.0129089,10,20442.57817,0.37612915,0.825195313,-0.207962036,20442.56517,-2.075927412,1.394215963,1.284980819,20442.57016,0.515510419,0.879005881,-1.118503393,-1.965011954,1.549190283,1.260702848,0.03250603,-0.064700074,0.132731155,-0.556206756,0.226362332,-0.022746452,0.799297653,0.336558312,0.899447381,-0.278788269,30.99569702,20.58835793,-5.465455055,2
977.9330001,97.79330001,1478282398,37.35297047,-122.0348353,55.20886,0,146.25,6,10,1478282399,31.33053017,21.8426857,-7.437545776,271.4715881,258.0129089,10,20442.58786,0.460662842,0.773834229,-0.268463135,20442.57516,-2.000926138,1.780147686,1.206640207,20442.58015,0.566373997,0.942014544,-1.120858245,-1.871967435,1.748476148,1.139911771,0.024398208,-0.075278722,0.047834486,-0.562202627,0.236706453,-0.02069858,0.792129932,0.351730943,0.900474012,-0.255796522,30.99569702,20.58835793,-5.465455055,2
987.6190001,98.76190001,1478282398,37.35297047,-122.0348353,55.20886,0,146.25,6,10,1478282399,33.07672882,21.42359924,-4.487983704,266.8084717,253.3497925,10,20442.59754,0.508666992,0.75920105,-0.237335205,20442.59515,-1.623921597,1.72290437,0.878219714,20442.59015,0.612897711,1.000980968,-1.122129839,-1.689176917,1.682949424,0.997217178,0.095432967,-0.12719211,-0.0344574,-0.567644171,0.246530379,-0.019334025,0.785257323,0.365229875,0.901026309,-0.234005734,31.78212738,19.83302307,-3.321520329,2
997.3110001,99.73110001,1478282398,37.35297047,-122.0348353,55.20886,0,146.25,6,10,1478282399,33.07672882,21.42359924,-4.487983704,266.8084717,253.3497925,10,20442.60723,0.476287842,0.716537476,-0.219970703,20442.59515,-1.623921597,1.72290437,0.878219714,20442.59015,0.612897711,1.000980968,-1.122129839,-1.689176917,1.682949424,0.997217178,0.095432967,-0.12719211,-0.0344574,-0.567644171,0.246530379,-0.019334025,0.785257323,0.365229875,0.901026309,-0.234005734,31.78212738,19.83302307,-3.321520329,2
1006.985,100.6985,1478282398,37.35297047,-122.0348353,55.20886,0,146.25,6,10,1478282399,33.07672882,21.42359924,-4.487983704,266.8084717,253.3497925,10,20442.61691,0.425567627,0.736572266,-0.174530029,20442.60514,-1.276334333,1.780676324,0.643843695,20442.61013,0.680894325,1.09610399,-1.122567577,-1.042633057,1.777840018,0.604068279,0.090834156,-0.184678644,-0.021892549,-0.57552431,0.264069484,-0.020133768,0.773714229,0.385453701,0.901216149,-0.198078156,31.78212738,19.83302307,-3.321520329,2
1016.67,101.667,1478282398,37.35297047,-122.0348353,55.20886,0,146.25,6,10,1478282399,33.07672882,21.42359924,-4.487983704,266.8084717,253.3497925,10,20442.62659,0.385070801,0.850982666,-0.160202026,20442.61514,-0.981141302,2.003875322,0.594769892,20442.61013,0.680894325,1.09610399,-1.122567577,-1.042633057,1.777840018,0.604068279,0.090834156,-0.184678644,-0.021892549,-0.57552431,0.264069484,-0.020133768,0.773714229,0.385453701,0.901216149,-0.198078156,31.78212738,19.83302307,-3.321520329,2
1026.354,102.6354,1478282398,37.35297047,-122.0348353,55.20886,0,146.25,6,10,1478282399,33.07672882,21.42359924,-4.487983704,266.8084717,253.3497925,10,20442.63628,0.35244751,1.022125244,-0.272918701,20442.62513,-0.729214519,2.407825461,0.653216424,20442.62013,0.704375203,1.137531922,-1.120776336,-0.773847938,2.133840561,0.619324744,-0.009720287,-0.04945574,0.022419637,-0.577720603,0.273729927,-0.02250854,0.768637885,0.394791096,0.900438428,-0.182621658,32.43099213,19.03981781,-0.448359489,2
1036.037,103.6037,1478282398,37.35297047,-122.0348353,55.20886,0,146.25,6,10,1478282399,33.07672882,21.42359924,-4.487983704,266.8084717,253.3497925,10,20442.64596,0.356430054,1.121673584,-0.379379272,20442.62513,-0.729214519,2.407825461,0.653216424,20442.63011,0.723109549,1.178142298,-1.116909077,-0.538717628,2.426840305,0.709754467,-0.052646581,0.123375759,-0.10514462,-0.578755993,0.284876216,-0.025932525,0.763684848,0.405094087,0.898749471,-0.167774081,32.43099213,19.03981781,-0.448359489,2
1045.734,104.5734,1478282398,37.35297047,-122.0348353,55.20886,0,146.25,6,10,1478282399,33.07672882,21.42359924,-4.487983704,266.8084717,253.3497925,10,20442.65566,0.438354492,1.167556763,-0.533081055,20442.64511,-0.417589518,2.031902163,0.77105997,20442.6401,0.738080343,1.214554411,-1.111201851,-0.370503932,2.215720892,0.786589026,-0.059303775,0.225441128,-0.224677086,-0.578863186,0.295916061,-0.029050789,0.759280678,0.415733844,0.896232426,-0.154702187,32.43099213,19.03981781,-0.448359489,2
1055.416,105.5416,1478282398,37.35297047,-122.0348353,55.20886,0,146.25,6,10,1478282399,33.49581909,20.65527344,-2.2758255,267.9696655,254.5109863,10,20442.66534,0.515960693,1.067001343,-0.359573364,20442.6551,-0.573072852,1.227608339,0.543085658,20442.65011,0.751086492,1.243999382,-1.105427214,-0.368380547,1.611600995,0.702577233,0.013351849,0.273900777,-0.389026433,-0.578825748,0.304849873,-0.030876317,0.755694357,0.425002635,0.893656015,-0.144054621,32.77852631,18.32811737,2.033039093,2
1065.104,106.5104,1478282398,37.35297047,-122.0348353,55.20886,0,146.25,6,10,1478282399,33.49581909,20.65527344,-2.2758255,267.9696655,254.5109863,10,20442.67503,0.551986694,1.018218994,-0.269561768,20442.66509,-0.728625694,0.607412982,0.150420132,20442.67008,0.77924462,1.283577196,-1.104037319,-0.551110625,0.480786115,-0.019764205,0.084400199,0.173969939,-0.232096106,-0.58219024,0.311954952,-0.031328997,0.750171398,0.431560487,0.893031418,-0.127477258,32.77852631,18.32811737,2.033039093,2
1074.765,107.4765,1478282398,37.35297047,-122.0348353,55.20886,0,146.25,6,10,1478282399,34.2641449,20.37588501,-0.130699158,269.283905,255.8252258,10,20442.68469,0.517715454,0.999404907,-0.253707886,20442.67509,-0.463660074,0.585133776,-0.166944248,20442.67008,0.77924462,1.283577196,-1.104037319,-0.551110625,0.480786115,-0.019764205,0.084400199,0.173969939,-0.232096106,-0.58219024,0.311954952,-0.031328997,0.750171398,0.431560487,0.893031418,-0.127477258,32.77852631,18.32811737,2.033039093,2
1084.471,108.4471,1478282398,37.35297047,-122.0348353,55.20886,0,146.25,6,10,1478282399,34.2641449,20.37588501,-0.130699158,269.283905,255.8252258,10,20442.69439,0.439727783,0.963684082,-0.261016846,20442.68508,-0.027049994,0.710238165,-0.320596658,20442.68008,0.78392509,1.293131433,-1.106842263,-0.17475912,0.569241464,-0.259176821,0.087367393,0.10511481,-0.131046712,-0.583481778,0.313398193,-0.03324673,0.748481958,0.430348068,0.89429009,-0.122661173,32.85732651,18.02953529,3.133191586,2
1094.154,109.4154,1478282398,37.35297047,-122.0348353,55.20886,0,146.25,6,10,1478282399,34.2641449,20.37588501,-0.130699158,269.283905,255.8252258,10,20442.70408,0.380065918,0.920501709,-0.231491089,20442.68508,-0.027049994,0.710238165,-0.320596658,20442.69006,0.778481304,1.294793971,-1.109547004,0.268722564,0.676896751,-0.337207973,0.011505234,0.068186916,-0.139730915,-0.583282893,0.314862035,-0.036625306,0.747864662,0.428222537,0.895497143,-0.12128593,32.85732651,18.02953529,3.133191586,2
1103.837,110.3837,1478282398,37.35297047,-122.0348353,55.20886,0,146.25,6,10,1478282399,34.2641449,20.37588501,-0.130699158,269.283905,255.8252258,10,20442.71376,0.372192383,0.845397949,-0.263031006,20442.70506,0.647210463,0.839701882,-0.180679767,20442.70005,0.765378952,1.29016768,-1.110791322,0.600115836,0.716881216,-0.248280495,-0.046519924,0.024451433,-0.108534083,-0.581620484,0.316605609,-0.040572104,0.74821949,0.426585853,0.896050274,-0.122957006,32.85732651,18.02953529,3.133191586,2
1113.523,111.3523,1478282398,37.35297047,-122.0348353,55.20886,0,146.25,6,10,1478282399,34.333992,20.02664185,1.545188904,272.1572266,258.6985474,10,20442.72345,0.372207642,0.769607544,-0.340026855,20442.71505,0.756790221,0.888301376,-0.056378854,20442.71006,0.747955635,1.282324928,-1.110067038,0.802562714,0.794147789,-0.119444504,-0.054038092,-0.050330542,-0.13654761,-0.578832623,0.318921776,-0.044591273,0.749168415,0.42623049,0.895728469,-0.126483396,32.63824463,18.33332634,3.622015476,2
1123.205,112.3205,1478282398,37.35297047,-122.0348353,55.20886,0,146.25,6,10,1478282399,34.333992,20.02664185,1.545188904,272.1572266,258.6985474,10,20442.73313,0.398468018,0.758560181,-0.402862549,20442.71505,0.756790221,0.888301376,-0.056378854,20442.72005,0.730275493,1.274479783,-1.107843934,0.803423882,0.788829625,0.023558183,-0.054920908,-0.12513034,-0.209622413,-0.575602064,0.321683141,-0.048259236,0.750248803,0.427128553,0.894737899,-0.130404443,32.63824463,18.33332634,3.622015476,2
1132.867,113.2867,1478282398,37.35297047,-122.0348353,55.20886,0,146.25,6,10,1478282399,34.333992,20.02664185,1.545188904,272.1572266,258.6985474,10,20442.74279,0.400756836,0.735427856,-0.327911377,20442.72505,0.614666102,0.797119801,0.08259368,20442.73004,0.718087903,1.270119403,-1.104993981,0.519269824,0.590453446,0.136934012,-0.030521687,-0.1349013,-0.269842237,-0.572987191,0.324307759,-0.050694253,0.750959552,0.428989708,0.893461466,-0.133020312,32.63824463,18.33332634,3.622015476,2
1142.573,114.2573,1478282398,37.35297047,-122.0348353,55.20886,0,146.25,6,10,1478282399,34.2641449,19.39801025,2.885902405,275.1913452,261.732666,10,20442.7525,0.387008667,0.721710205,-0.22428894,20442.74501,-0.122040955,0.290361258,0.336038732,20442.75003,0.719745358,1.277067316,-1.098818188,-0.171231002,0.1582793,0.451969981,-0.034419999,-0.155242816,-0.196279779,-0.571440381,0.328085496,-0.050138298,0.750534442,0.43517682,0.890670657,-0.131631598,32.57587433,18.38944054,3.889182329,2
1152.254,115.2254,1478282398,37.35297047,-122.0348353,55.20886,0,146.25,6,10,1478282399,34.12445068,19.32815933,3.422187805,275.8978271,262.4391479,10,20442.76218,0.380706787,0.732681274,-0.148147583,20442.75502,-0.321240344,0.231627637,0.573570064,20442.76002,0.729181834,1.287070908,-1.093430356,-0.277549773,0.169562891,0.701925516,-0.054063726,-0.166497976,-0.095675699,-0.571323544,0.330579473,-0.047772531,0.74968287,0.441072404,0.88820821,-0.128613234,32.57587433,18.38944054,3.889182329,2
1161.941,116.1941,1478282398,37.35297047,-122.0348353,55.20886,0,146.25,6,10,1478282399,34.12445068,19.32815933,3.422187805,275.8978271,262.4391479,10,20442.77186,0.375579834,0.72984314,-0.104278564,20442.75502,-0.321240344,0.231627637,0.573570064,20442.76002,0.729181834,1.287070908,-1.093430356,-0.277549773,0.169562891,0.701925516,-0.054063726,-0.166497976,-0.095675699,-0.571323544,0.330579473,-0.047772531,0.74968287,0.441072404,0.88820821,-0.128613234,32.57587433,18.38944054,3.889182329,2
1171.624,117.1624,1478282398,37.35297047,-122.0348353,55.20886,0,146.25,6,10,1478282399,34.12445068,19.32815933,3.422187805,275.8978271,262.4391479,10,20442.78155,0.352920532,0.715011597,-0.063598633,20442.775,-0.326039627,0.293144261,1.027913868,20442.77001,0.740285627,1.298784549,-1.085855578,-0.283708215,0.192343205,0.924213886,-0.073436648,-0.154859439,0.020963453,-0.570909175,0.333828855,-0.044574179,0.748755068,0.449016482,0.884702563,-0.125242025,32.77518463,17.97419739,4.14734745,2
1181.301,118.1301,1478282398,37.35297047,-122.0348353,55.20886,0,146.25,6,10,1478282399,34.12445068,19.32815933,3.422187805,275.8978271,262.4391479,10,20442.79122,0.368286133,0.736282349,-0.056015015,20442.785,-0.178473871,0.375375219,1.261437143,20442.78999,0.758812495,1.320548148,-1.063284465,-0.007869946,0.327023774,1.373884439,-0.11794515,-0.15894486,0.056757599,-0.567732507,0.342785186,-0.036666632,0.747551787,0.470865667,0.873956442,-0.120356232,32.77518463,17.97419739,4.14734745,2
1190.993,119.0993,1478282398,37.35297047,-122.0348353,55.20886,0,146.25,6,10,1478282399,34.12445068,19.32815933,3.422187805,275.8978271,262.4391479,10,20442.80092,0.407348633,0.780258179,-0.065673828,20442.785,-0.178473871,0.375375219,1.261437143,20442.78999,0.758812495,1.320548148,-1.063284465,-0.007869946,0.327023774,1.373884439,-0.11794515,-0.15894486,0.056757599,-0.567732507,0.342785186,-0.036666632,0.747551787,0.470865667,0.873956442,-0.120356232,32.77518463,17.97419739,4.14734745,2
1200.677,120.0677,1478282398,37.35297047,-122.0348353,55.20886,0,146.25,6,10,1478282399,34.15937042,19.36308289,3.991989136,275.0664673,261.6077881,10,20442.8106,0.454269409,0.823974609,-0.069213867,20442.80497,0.157790697,0.475669067,1.637082939,20442.79998,0.763968369,1.328632079,-1.048305441,0.15972361,0.37080583,1.560041904,-0.077130228,-0.086320639,0.053998157,-0.564609353,0.348396736,-0.03222882,0.747527455,0.484478861,0.866578817,-0.119671986,33.42959213,16.62356377,4.539209366,2
1210.342,121.0342,1478282398,37.35297047,-122.0348353,55.20886,0,146.25,6,10,1478282399,34.15937042,19.36308289,3.991989136,275.0664673,261.6077881,10,20442.82026,0.530944824,0.900665283,-0.086135864,20442.80497,0.157790697,0.475669067,1.637082939,20442.80998,0.766633721,1.33510026,-1.031354489,0.304724485,0.437678844,1.71974802,-0.045186184,-0.034020908,0.050735287,-0.560586702,0.354637805,-0.027600091,0.74780533,0.499455601,0.85799551,-0.119949155,33.42959213,16.62356377,4.539209366,2
1220.045,122.0045,1478282398,37.35297047,-122.0348353,55.20886,0,146.25,6,10,1478282399,34.15937042,19.36308289,3.991989136,275.0664673,261.6077881,10,20442.82997,0.616378784,0.955978394,-0.104644775,20442.81497,0.282439419,0.570000629,1.78852972,20442.81997,0.767431037,1.340897168,-1.012731535,0.418596119,0.532940447,1.8541255,0.015331908,0.052383803,0.034536634,-0.555804782,0.361586497,-0.022911832,0.748205384,0.5156129,0.848281503,-0.120672494,33.42959213,16.62356377,4.539209366,2
1229.73,122.973,1478282398,37.35297047,-122.0348353,55.20886,0,146.25,6,10,1478282399,34.68323517,16.88347626,4.695861816,272.5016174,259.0429382,10,20442.83965,0.739425659,1.015548706,-0.132247925,20442.83494,0.510327445,0.771067427,1.904726101,20442.83996,0.76299086,1.350581623,-0.973339357,0.63180095,0.811453462,1.846197248,0.067422047,0.129209548,0.018236374,-0.544513852,0.376913903,-0.01448621,0.749153339,0.548956752,0.826768875,-0.122881152,34.05881119,15.21376801,4.798289299,2
1239.407,123.9407,1478282398,37.35297047,-122.0348353,55.20886,0,146.25,6,10,1478282399,34.68323517,16.88347626,4.695861816,272.5016174,259.0429382,10,20442.84933,0.838790894,1.012832642,-0.163467407,20442.83494,0.510327445,0.771067427,1.904726101,20442.83996,0.76299086,1.350581623,-0.973339357,0.63180095,0.811453462,1.846197248,0.067422047,0.129209548,0.018236374,-0.544513852,0.376913903,-0.01448621,0.749153339,0.548956752,0.826768875,-0.122881152,34.05881119,15.21376801,4.798289299,2
1249.099,124.9099,1478282398,37.35297047,-122.0348353,55.20886,0,146.25,6,10,1478282399,34.68323517,16.88347626,4.695861816,272.5016174,259.0429382,10,20442.85902,0.913528442,0.964248657,-0.231109619,20442.84495,0.589186042,1.058998018,1.744262123,20442.84995,0.757655054,1.356890917,-0.955425402,0.700622857,1.160330772,1.62229383,0.274685621,0.196273252,-0.040927552,-0.5386754,0.385433375,-0.01237618,0.749077271,0.564105272,0.816559374,-0.122539856,34.05881119,15.21376801,4.798289299,2
1258.777,125.8777,1478282398,37.35297047,-122.0348353,55.20886,0,146.25,6,10,1478282399,34.68323517,16.88347626,4.695861816,272.5016174,259.0429382,10,20442.8687,0.936065674,0.880554199,-0.279983521,20442.86493,0.679488774,1.711531341,1.049400252,20442.85994,0.750058555,1.364787193,-0.940550292,0.755872309,1.487082005,1.267925978,0.336646527,0.156366125,-0.110556416,-0.533148772,0.394304178,-0.012493737,0.748411991,0.576881886,0.807882547,-0.120553203,34.78040314,13.18944359,5.554010391,2
1268.456,126.8456,1478282398,37.35297047,-122.0348353,55.20886,0,146.25,6,10,1478282399,34.68323517,16.88347626,4.695861816,272.5016174,259.0429382,10,20442.87838,0.913330078,0.807693481,-0.302154541,20442.86493,0.679488774,1.711531341,1.049400252,20442.86993,0.740797471,1.374263183,-0.929863598,0.749780118,1.75596714,0.82224673,0.349633098,0.079015814,-0.163222894,-0.528351403,0.40306883,-0.014981968,0.74709829,0.586432576,0.801538408,-0.116760626,34.78040314,13.18944359,5.554010391,2
1278.15,127.815,1478282398,37.35297047,-122.0348353,55.20886,0,146.25,6,10,1478282399,34.68323517,16.88347626,4.695861816,272.5016174,259.0429382,10,20442.88807,0.904953003,0.765075684,-0.322753906,20442.87493,0.660523339,1.930519349,0.586140983,20442.87992,0.7303754,1.384706303,-0.923790981,0.723432362,1.9072299,0.36471352,0.320937604,0.009800931,-0.190625831,-0.524494694,0.41126751,-0.019629875,0.745237559,0.592392445,0.79789257,-0.111528702,34.78040314,13.18944359,5.554010391,2
1287.833,128.7833,1478282398,37.35297047,-122.0348353,55.20886,0,146.25,6,10,1478282399,35.17217255,15.7659111,5.433250427,272.2562866,258.7976074,10,20442.89776,0.892349243,0.735427856,-0.343048096,20442.89491,0.564931568,1.881144342,-0.23210168,20442.89989,0.708255295,1.403444538,-0.923977149,0.618898571,1.66364336,-0.369006306,0.310721278,-0.032929074,-0.222369269,-0.519680531,0.42395734,-0.032802154,0.741023845,0.594231725,0.798004746,-0.100384638,34.77757263,12.59080124,6.817410946,2
1297.517,129.7517,1478282398,37.35297047,-122.0348353,55.20886,0,146.25,6,10,1478282399,35.17217255,15.7659111,5.433250427,272.2562866,258.7976074,10,20442.90744,0.873428345,0.710418701,-0.346435547,20442.89491,0.564931568,1.881144342,-0.23210168,20442.89989,0.708255295,1.403444538,-0.923977149,0.618898571,1.66364336,-0.369006306,0.310721278,-0.032929074,-0.222369269,-0.519680531,0.42395734,-0.032802154,0.741023845,0.594231725,0.798004746,-0.100384638,34.77757263,12.59080124,6.817410946,2
1307.203,130.7203,1478282398,37.35297047,-122.0348353,55.20886,0,146.25,6,10,1478282399,35.17217255,15.7659111,5.433250427,272.2562866,258.7976074,10,20442.91713,0.853500366,0.688278198,-0.335784912,20442.90488,0.516750989,1.575478963,-0.47643872,20442.90988,0.697345931,1.408808252,-0.927980874,0.569089413,1.322554708,-0.533630431,0.281824678,-0.089992508,-0.249755695,-0.518344472,0.427760542,-0.039553902,0.739442639,0.591603696,0.800411224,-0.096679851,34.77757263,12.59080124,6.817410946,2
1316.886,131.6886,1478282398,37.35297047,-122.0348353,55.20886,0,146.25,6,10,1478282399,35.73096466,14.99758148,6.371749878,273.3242798,259.8656006,10,20442.92681,0.833435059,0.669128418,-0.321151733,20442.92487,0.423327565,0.860654302,-0.488944126,20442.91987,0.687040569,1.411097217,-0.932469743,0.52669549,0.964673221,-0.531882048,0.265230119,-0.114815794,-0.241031781,-0.517301527,0.430142494,-0.045437058,0.738452462,0.588270247,0.80309397,-0.094753131,34.21425247,13.11223507,8.481693268,2
1326.569,132.6569,1478282398,37.35297047,-122.0348353,55.20886,0,146.25,6,10,1478282399,36.11512756,14.26417542,7.410797119,274.7696228,261.3109436,10,20442.93649,0.814453125,0.664855957,-0.311691284,20442.92487,0.423327565,0.860654302,-0.488944126,20442.91987,0.687040569,1.411097217,-0.932469743,0.52669549,0.964673221,-0.531882048,0.265230119,-0.114815794,-0.241031781,-0.517301527,0.430142494,-0.045437058,0.738452462,0.588270247,0.80309397,-0.094753131,34.21425247,13.11223507,8.481693268,2
1336.253,133.6253,1478282398,37.35297047,-122.0348353,55.20886,0,146.25,6,10,1478282399,36.11512756,14.26417542,7.410797119,274.7696228,261.3109436,10,20442.94618,0.800262451,0.661422729,-0.299743652,20442.92487,0.423327565,0.860654302,-0.488944126,20442.92987,0.677744463,1.410566582,-0.936151416,0.473224014,0.608647943,-0.419083327,0.229156077,-0.140426323,-0.217098385,-0.516311229,0.431423533,-0.049946907,0.738106873,0.585297048,0.805282295,-0.094592899,34.21425247,13.11223507,8.481693268,2
1345.925,134.5925,1478282398,37.35297047,-122.0348353,55.20886,0,146.25,6,10,1478282399,36.11512756,14.26417542,7.410797119,274.7696228,261.3109436,10,20442.95585,0.773696899,0.654067993,-0.288772583,20442.94485,0.284568616,0.190169143,-0.223419774,20442.93986,0.669848167,1.407782831,-0.938571374,0.403879225,0.273977369,-0.280443698,0.21715562,-0.145291954,-0.203838348,-0.515337903,0.43182658,-0.052941126,0.738342663,0.583106816,0.806714714,-0.095905304,34.01751328,13.42173576,8.783549309,2
1355.621,135.5621,1478282398,37.35297047,-122.0348353,55.20886,0,146.25,6,10,1478282399,36.11512756,14.26417542,7.410797119,274.7696228,261.3109436,10,20442.96554,0.736450195,0.648422241,-0.272445679,20442.95484,0.180710926,-0.079239162,-0.135358891,20442.94984,0.663661186,1.403183929,-0.939923784,0.3140724,-0.032306701,-0.168202922,0.192113534,-0.153445154,-0.190368757,-0.514496324,0.431383377,-0.054486974,0.739075831,0.581583381,0.807513118,-0.098403826,34.01751328,13.42173576,8.783549309,2
1365.305,136.5305,1478282398,37.35297047,-122.0348353,55.20886,0,146.25,6,10,1478282399,36.11512756,14.26417542,7.410797119,274.7696228,261.3109436,10,20442.97523,0.683273315,0.636734009,-0.259521484,20442.96483,0.048765409,-0.243082958,-0.08893227,20442.96983,0.657831286,1.393046282,-0.941250457,0.050271504,-0.352466166,-0.059260208,0.156949222,-0.159872726,-0.168340638,-0.51388417,0.42880128,-0.054472395,0.741002888,0.579500973,0.808294952,-0.10410504,34.01751328,13.42173576,8.783549309,2
1374.966,137.4966,1478282398,37.35297047,-122.0348353,55.20886,0,146.25,6,10,1478282399,36.25482941,14.54357147,8.282249451,276.5932922,263.134613,10,20442.98489,0.637283325,0.625,-0.257049561,20442.97485,-0.11103704,-0.268228259,-0.041103228,20442.96983,0.657831286,1.393046282,-0.941250457,0.050271504,-0.352466166,-0.059260208,0.156949222,-0.159872726,-0.168340638,-0.51388417,0.42880128,-0.054472395,0.741002888,0.579500973,0.808294952,-0.10410504,34.01751328,13.42173576,8.783549309,2
1384.655,138.4655,1478282399,37.35297445,-122.0348312,55.86975,0.18,286.171875,6,10,1478282399,36.25482941,14.54357147,8.282249451,276.5932922,263.134613,10,20442.99458,0.601242065,0.625778198,-0.257888794,20442.98484,-0.276167675,-0.18632194,0.02275032,20442.97984,0.659008597,1.390690573,-0.941595946,-0.115957208,-0.315109968,-0.006530436,0.058303978,-0.183498338,-0.151629701,-0.514295402,0.427539836,-0.053543366,0.741514017,0.578979373,0.808498323,-0.105419859,33.93494034,13.75308132,8.588224411,2
1394.356,139.4356,1478282399,37.35297445,-122.0348312,55.86975,0.18,286.171875,6,10,1478282399,36.28974915,15.13727951,8.852050781,277.6322021,264.1735229,10,20443.00428,0.592391968,0.645431519,-0.260955811,20442.99482,-0.434846802,-0.048184041,0.102114118,20442.99981,0.670077336,1.396358079,-0.940993992,-0.429053187,-0.06321685,0.147680432,0.021195363,-0.182365745,-0.155667529,-0.516346292,0.42693779,-0.050705395,0.740634588,0.580046713,0.808143973,-0.102221258,33.93494034,13.75308132,8.588224411,2
1404.019,140.4019,1478282399,37.35297445,-122.0348312,55.86975,0.18,286.171875,6,10,1478282399,36.28974915,15.13727951,8.852050781,277.6322021,264.1735229,10,20443.01394,0.601959229,0.666107178,-0.266860962,20443.00482,-0.566793118,0.068828333,0.186596512,20442.99981,0.670077336,1.396358079,-0.940993992,-0.429053187,-0.06321685,0.147680432,0.021195363,-0.182365745,-0.155667529,-0.516346292,0.42693779,-0.050705395,0.740634588,0.580046713,0.808143973,-0.102221258,33.93494034,13.75308132,8.588224411,2
1413.724,141.3724,1478282399,37.35297445,-122.0348312,55.86975,0.18,286.171875,6,10,1478282399,36.28974915,15.13727951,8.852050781,277.6322021,264.1735229,10,20443.02365,0.623153687,0.673416138,-0.269577026,20443.01481,-0.658189611,0.132855519,0.261994864,20443.00982,0.679260608,1.40386821,-0.939794867,-0.538578153,0.028378628,0.22976622,0.020206019,-0.141329914,-0.16883783,-0.517793507,0.427642744,-0.048855556,0.739340721,0.581753194,0.807437122,-0.098023139,34.01182556,13.64147949,8.46113205,2
1423.407,142.3407,1478282399,37.35297445,-122.0348312,55.86975,0.18,286.171875,6,10,1478282399,36.28974915,15.13727951,8.852050781,277.6322021,264.1735229,10,20443.03333,0.660491943,0.684661865,-0.271011353,20443.02481,-0.710093289,0.155567756,0.331629602,20443.0298,0.701501891,1.423278471,-0.935420919,-0.642368078,0.101380289,0.375718623,0.036119793,-0.131432816,-0.182345361,-0.520932323,0.430132168,-0.044246162,0.735974259,0.587033868,0.804848969,-0.087231666,34.01182556,13.64147949,8.46113205,2
1433.083,143.3083,1478282399,37.35297445,-122.0348312,55.86975,0.18,286.171875,6,10,1478282399,36.18497467,15.59128952,9.220748901,277.4104919,263.9518127,10,20443.04301,0.71206665,0.706054688,-0.285125732,20443.0348,-0.721435159,0.202677478,0.404702215,20443.0298,0.701501891,1.423278471,-0.935420919,-0.642368078,0.101380289,0.375718623,0.036119793,-0.131432816,-0.182345361,-0.520932323,0.430132168,-0.044246162,0.735974259,0.587033868,0.804848969,-0.087231666,34.01182556,13.64147949,8.46113205,2
1442.776,144.2776,1478282399,37.35297445,-122.0348312,55.86975,0.18,286.171875,6,10,1478282399,36.18497467,15.59128952,9.220748901,277.4104919,263.9518127,10,20443.0527,0.757965088,0.71762085,-0.299804688,20443.04479,-0.689263108,0.25798654,0.437278002,20443.03979,0.713105444,1.433966401,-0.932177435,-0.632477403,0.148361966,0.429567993,0.121550955,-0.096865095,-0.203817457,-0.522342444,0.431861355,-0.041688212,0.734109143,0.590515673,0.802919805,-0.081308283,34.11204529,13.20259857,8.748977661,2
1452.451,145.2451,1478282399,37.35297445,-122.0348312,55.86975,0.18,286.171875,6,10,1478282399,36.18497467,15.59128952,9.220748901,277.4104919,263.9518127,10,20443.06237,0.782150269,0.714706421,-0.30947876,20443.05478,-0.610330209,0.346986721,0.440288439,20443.05978,0.733155879,1.454995303,-0.924761488,-0.478844643,0.328524411,0.442017227,0.159972072,-0.080856346,-0.230245277,-0.524339651,0.436220386,-0.037359266,0.730331425,0.597993016,0.798477173,-0.06955941,34.11204529,13.20259857,8.748977661,2
1462.138,146.2138,1478282399,37.35297445,-122.0348312,55.86975,0.18,286.171875,6,10,1478282399,35.73096466,15.27696991,9.857582092,277.4837036,264.0250244,10,20443.07206,0.799530029,0.70892334,-0.313644409,20443.07475,-0.337367915,0.622329614,0.429110353,20443.06975,0.74015931,1.464866218,-0.920887139,-0.341337055,0.465087563,0.429477423,0.180428043,-0.081432335,-0.245498762,-0.524691938,0.43898562,-0.036083267,0.728483352,0.60172224,0.796138763,-0.063979991,34.22354126,12.6010313,9.189561844,2
1471.76,147.176,1478282399,37.35297445,-122.0348312,55.86975,0.18,286.171875,6,10,1478282399,35.73096466,15.27696991,9.857582092,277.4837036,264.0250244,10,20443.08168,0.812759399,0.6927948,-0.323196411,20443.07475,-0.337367915,0.622329614,0.429110353,20443.06975,0.74015931,1.464866218,-0.920887139,-0.341337055,0.465087563,0.429477423,0.180428043,-0.081432335,-0.245498762,-0.524691938,0.43898562,-0.036083267,0.728483352,0.60172224,0.796138763,-0.063979991,34.22354126,12.6010313,9.189561844,2
1481.444,148.1444,1478282399,37.35297445,-122.0348312,55.86975,0.18,286.171875,6,10,1478282399,35.55634308,14.75311279,9.958129883,276.4890137,263.0303345,10,20443.09137,0.824783325,0.684387207,-0.349975586,20443.08476,-0.155957909,0.786638131,0.443528174,20443.08975,0.745554377,1.48243223,-0.912266082,0.022598052,0.781045258,0.464590937,0.203191891,-0.098097712,-0.269191891,-0.523367517,0.446188508,-0.035792258,0.725066322,0.609567523,0.790892482,-0.054004516,34.22354126,12.6010313,9.189561844,2
1491.118,149.1118,1478282399,37.35297445,-122.0348312,55.86975,0.18,286.171875,6,10,1478282399,35.55634308,14.75311279,9.958129883,276.4890137,263.0303345,10,20443.10104,0.866333008,0.690246582,-0.359848022,20443.09475,0.046974966,0.914074384,0.482124036,20443.08975,0.745554377,1.48243223,-0.912266082,0.022598052,0.781045258,0.464590937,0.203191891,-0.098097712,-0.269191891,-0.523367517,0.446188508,-0.035792258,0.725066322,0.609567523,0.790892482,-0.054004516,34.22354126,12.6010313,9.189561844,2
1500.81,150.081,1478282399,37.35297445,-122.0348312,55.86975,0.18,286.171875,6,10,1478282399,35.55634308,14.75311279,9.958129883,276.4890137,263.0303345,10,20443.11073,0.927978516,0.707687378,-0.346755981,20443.10474,0.241593186,0.930494636,0.54309205,20443.09975,0.743385034,1.489198226,-0.907130589,0.227777258,0.861985147,0.515529513,0.252374023,-0.097492822,-0.309638649,-0.521453747,0.450534463,-0.036589673,0.723716714,0.613959014,0.787739396,-0.050209373,34.2189064,12.09021378,9.868035316,2
1510.488,151.0488,1478282399,37.35297445,-122.0348312,55.86975,0.18,286.171875,6,10,1478282399,35.55634308,14.75311279,9.958129883,276.4890137,263.0303345,10,20443.12041,0.97958374,0.778076172,-0.310958862,20443.10474,0.241593186,0.930494636,0.54309205,20443.10974,0.738314522,1.493395636,-0.901195886,0.400119841,0.786357403,0.587320507,0.309164017,-0.076382346,-0.298763424,-0.518718675,0.454900717,-0.037482105,0.722904811,0.618814528,0.784069717,-0.047992546,34.2189064,12.09021378,9.868035316,2
1520.177,152.0177,1478282399,37.35297445,-122.0348312,55.86975,0.18,286.171875,6,10,1478282399,35.55634308,14.75311279,9.958129883,276.4890137,263.0303345,10,20443.1301,0.988937378,0.855224609,-0.256896973,20443.11474,0.382101032,0.734255084,0.629691657,20443.11973,0.731460344,1.493496371,-0.894278312,0.499165386,0.437681258,0.680937827,0.355371594,-0.001681277,-0.262610942,-0.515383546,0.458482112,-0.037614769,0.723020804,0.624212146,0.77975744,-0.048347905,34.2189064,12.09021378,9.868035316,2
1529.86,152.986,1478282399,37.35297445,-122.0348312,55.86975,0.18,286.171875,6,10,1478282399,35.31186676,14.29910278,10.32683563,276.5482178,263.0895386,10,20443.13978,0.984375,0.923309326,-0.202026367,20443.13472,0.409646374,-0.413327129,0.795358919,20443.13972,0.71805075,1.476642022,-0.878039065,0.45175004,-0.778061211,0.796829522,0.353104889,0.085736625,-0.196853071,-0.508381365,0.459920033,-0.032615932,0.727295093,0.635832489,0.769487977,-0.060043901,34.19726563,11.60542488,10.50456429,2
1539.526,153.9526,1478282399,37.35297445,-122.0348312,55.86975,0.18,286.171875,6,10,1478282399,35.31186676,14.29910278,10.32683563,276.5482178,263.0895386,10,20443.14945,0.993179321,0.976654053,-0.15007019,20443.14471,0.331936665,-0.937732043,0.759143123,20443.14971,0.713251983,1.461893743,-0.870348228,0.358685821,-1.199105382,0.706143022,0.343633056,0.158755884,-0.131970748,-0.505464648,0.457687315,-0.028016733,0.730919198,0.640741944,0.764553428,-0.070055619,34.19726563,11.60542488,10.50456429,2
1549.228,154.9228,1478282399,37.35297445,-122.0348312,55.86975,0.18,286.171875,6,10,1478282399,35.27694702,13.49585724,10.69551849,276.8523254,263.3936462,10,20443.15915,1.003662109,1.022750854,-0.104644775,20443.14471,0.331936665,-0.937732043,0.759143123,20443.14971,0.713251983,1.461893743,-0.870348228,0.358685821,-1.199105382,0.706143022,0.343633056,0.158755884,-0.131970748,-0.505464648,0.457687315,-0.028016733,0.730919198,0.640741944,0.764553428,-0.070055619,34.19726563,11.60542488,10.50456429,2
1558.913,155.8913,1478282399,37.35297445,-122.0348312,55.86975,0.18,286.171875,6,10,1478282399,35.06739807,12.7275238,10.62848663,276.6106262,263.151947,10,20443.16884,0.98046875,1.032287598,-0.079681396,20443.15469,0.21822155,-1.249011366,0.621524807,20443.14971,0.713251983,1.461893743,-0.870348228,0.358685821,-1.199105382,0.706143022,0.343633056,0.158755884,-0.131970748,-0.505464648,0.457687315,-0.028016733,0.730919198,0.640741944,0.764553428,-0.070055619,34.19726563,11.60542488,10.50456429,2
1568.583,156.8583,1478282399,37.35297445,-122.0348312,55.86975,0.18,286.171875,6,10,1478282399,35.06739807,12.7275238,10.62848663,276.6106262,263.151947,10,20443.17851,0.919052124,1.001937866,-0.060394287,20443.17469,-0.091559478,-1.362253237,0.210511699,20443.17968,0.710522896,1.417412122,-0.858909027,-0.09389545,-1.399275422,0.143762246,0.334874392,0.275157273,0.020126527,-0.50220591,0.444842963,-0.013977906,0.741423347,0.645594358,0.757130325,-0.099807926,34.63158417,10.96162987,9.745814323,2
1578.279,157.8279,1478282399,37.35297445,-122.0348312,55.86975,0.18,286.171875,6,10,1478282399,35.06739807,12.7275238,10.62848663,276.6106262,263.151947,10,20443.1882,0.821060181,0.92755127,-0.046569824,20443.17469,-0.091559478,-1.362253237,0.210511699,20443.17968,0.710522896,1.417412122,-0.858909027,-0.09389545,-1.399275422,0.143762246,0.334874392,0.275157273,0.020126527,-0.50220591,0.444842963,-0.013977906,0.741423347,0.645594358,0.757130325,-0.099807926,34.63158417,10.96162987,9.745814323,2
1587.961,158.7961,1478282399,37.35297445,-122.0348312,55.86975,0.18,286.171875,6,10,1478282399,35.06739807,12.7275238,10.62848663,276.6106262,263.151947,10,20443.19788,0.716934204,0.855056763,-0.027328491,20443.18466,-0.248143763,-1.274204337,0.098273307,20443.17968,0.710522896,1.417412122,-0.858909027,-0.09389545,-1.399275422,0.143762246,0.334874392,0.275157273,0.020126527,-0.50220591,0.444842963,-0.013977906,0.741423347,0.645594358,0.757130325,-0.099807926,34.63158417,10.96162987,9.745814323,2
1597.631,159.7631,1478282399,37.35297445,-122.0348312,55.86975,0.18,286.171875,6,10,1478282399,35.06739807,12.7275238,10.62848663,276.6106262,263.151947,10,20443.20755,0.62940979,0.792312622,-0.005096436,20443.20466,-0.462122898,-1.135846993,0.211816115,20443.20966,0.725623544,1.390994015,-0.855694128,-0.428375632,-1.193009138,0.285776049,0.071810029,0.100030527,0.089932702,-0.504719416,0.432004301,-0.000643321,0.747415668,0.645124197,0.755026221,-0.117261194,35.13260651,10.60329247,8.231356621,2
1607.33,160.733,1478282399,37.35297445,-122.0348312,55.86975,0.18,286.171875,6,10,1478282399,35.20709991,12.44813538,9.891098022,275.3283691,261.8696899,10,20443.21725,0.557495117,0.751876831,0.030685425,20443.20466,-0.462122898,-1.135846993,0.211816115,20443.20966,0.725623544,1.390994015,-0.855694128,-0.428375632,-1.193009138,0.285776049,0.071810029,0.100030527,0.089932702,-0.504719416,0.432004301,-0.000643321,0.747415668,0.645124197,0.755026221,-0.117261194,35.13260651,10.60329247,8.231356621,2
1617.013,161.7013,1478282399,37.35297445,-122.0348312,55.86975,0.18,286.171875,6,10,1478282399,35.20709991,12.44813538,9.891098022,275.3283691,261.8696899,10,20443.22694,0.505020142,0.729675293,0.062850952,20443.22465,-0.650681094,-1.023980912,0.467074779,20443.21965,0.734154618,1.385896737,-0.852790782,-0.522612095,-1.140224576,0.418709099,-0.089174986,-0.001242515,0.15163596,-0.505738477,0.428664584,0.004789673,0.74863364,0.646670103,0.753119349,-0.120950535,35.47104645,10.36339092,6.992149353,2
1626.689,162.6689,1478282399,37.35297445,-122.0348312,55.86975,0.18,286.171875,6,10,1478282399,35.20709991,12.44813538,9.891098022,275.3283691,261.8696899,10,20443.23661,0.46131897,0.718612671,0.093063354,20443.23463,-0.744272298,-0.922932857,0.5375082,20443.23963,0.756193082,1.381947841,-0.844981529,-0.715162039,-0.940287352,0.554217637,-0.146924272,-0.018283559,0.187454477,-0.508234441,0.423551639,0.016611223,0.74968382,0.651944399,0.747958839,-0.124603525,35.47104645,10.36339092,6.992149353,2
1636.363,163.6363,1478282399,37.35297445,-122.0348312,55.86975,0.18,286.171875,6,10,1478282399,35.31186676,12.41321564,9.053153992,273.6938477,260.2351685,10,20443.24629,0.435592651,0.718093872,0.125808716,20443.23463,-0.744272298,-0.922932857,0.5375082,20443.23963,0.756193082,1.381947841,-0.844981529,-0.715162039,-0.940287352,0.554217637,-0.146924272,-0.018283559,0.187454477,-0.508234441,0.423551639,0.016611223,0.74968382,0.651944399,0.747958839,-0.124603525,35.47104645,10.36339092,6.992149353,2
1646.061,164.6061,1478282399,37.35297445,-122.0348312,55.86975,0.18,286.171875,6,10,1478282399,35.31186676,12.41321564,9.053153992,273.6938477,260.2351685,10,20443.25598,0.418167114,0.73677063,0.160720825,20443.24463,-0.838261378,-0.786331069,0.546379456,20443.23963,0.756193082,1.381947841,-0.844981529,-0.715162039,-0.940287352,0.554217637,-0.146924272,-0.018283559,0.187454477,-0.508234441,0.423551639,0.016611223,0.74968382,0.651944399,0.747958839,-0.124603525,35.47104645,10.36339092,6.992149353,2
1655.728,165.5728,1478282399,37.35297445,-122.0348312,55.86975,0.18,286.171875,6,10,1478282399,35.31186676,12.41321564,9.053153992,273.6938477,260.2351685,10,20443.26565,0.4112854,0.770294189,0.190856934,20443.25462,-0.9178606,-0.594219416,0.470398671,20443.25961,0.783053806,1.387649585,-0.838443447,-0.877566993,-0.550770998,0.402310103,-0.239271596,-0.006832647,0.282493174,-0.512156401,0.420487398,0.027368346,0.748423104,0.657438695,0.743603289,-0.121772341,35.82256317,9.739891052,6.030216694,2
1665.416,166.5416,1478282399,37.35297445,-122.0348312,55.86975,0.18,286.171875,6,10,1478282399,35.3817215,12.27351379,7.913551331,270.7067261,257.2480469,10,20443.27534,0.430130005,0.809967041,0.207748413,20443.26461,-0.984171713,-0.334981723,0.305412645,20443.2696,0.79722576,1.394790416,-0.837539395,-0.929133832,-0.265270025,0.207692146,-0.2476677,0.027295684,0.308049202,-0.51499059,0.419748202,0.03113063,0.746744282,0.65895313,0.742998481,-0.117192276,35.82256317,9.739891052,6.030216694,2
1675.105,167.5105,1478282399,37.35297445,-122.0348312,55.86975,0.18,286.171875,6,10,1478282399,35.3817215,12.27351379,7.913551331,270.7067261,257.2480469,10,20443.28503,0.485733032,0.848754883,0.205108643,20443.27461,-1.020844241,-0.034695663,0.104534133,20443.2696,0.79722576,1.394790416,-0.837539395,-0.929133832,-0.265270025,0.207692146,-0.2476677,0.027295684,0.308049202,-0.51499059,0.419748202,0.03113063,0.746744282,0.65895313,0.742998481,-0.117192276,35.82256317,9.739891052,6.030216694,2
1684.789,168.4789,1478282399,37.35297445,-122.0348312,55.86975,0.18,286.171875,6,10,1478282399,35.3817215,12.27351379,7.913551331,270.7067261,257.2480469,10,20443.29471,0.551452637,0.883453369,0.191329956,20443.2846,-1.00694254,0.235371509,-0.032606146,20443.2796,0.811273663,1.404803086,-0.838480473,-0.943270624,0.027754378,0.025951369,-0.17367053,0.10512685,0.315581679,-0.518354428,0.419609535,0.033468735,0.744389931,0.659403563,0.743628025,-0.110473052,36.04204559,9.149690628,5.633746147,2
1694.456,169.4456,1478282399,37.35297445,-122.0348312,55.86975,0.18,286.171875,6,10,1478282399,35.3817215,12.27351379,7.913551331,270.7067261,257.2480469,10,20443.30438,0.610366821,0.900146484,0.165267944,20443.2846,-1.00694254,0.235371509,-0.032606146,20443.28958,0.824613461,1.416849265,-0.840345761,-0.89165467,0.267534643,-0.055988781,-0.107862003,0.138579518,0.293639004,-0.521857143,0.420131636,0.034670039,0.741587837,0.659314632,0.744873881,-0.102309063,36.04204559,9.149690628,5.633746147,2
1704.154,170.4154,1478282399,37.35297445,-122.0348312,55.86975,0.18,286.171875,6,10,1478282399,35.69603729,12.23859406,7.47782135,268.865509,255.4068298,10,20443.31408,0.652603149,0.893325806,0.132369995,20443.30458,-0.75391161,0.505826969,0.013821273,20443.29957,0.836414254,1.429441248,-0.841952368,-0.765653431,0.406495273,-0.029000843,-0.048998151,0.154201657,0.259098321,-0.524981234,0.42128318,0.035203371,0.738698794,0.659364998,0.745944858,-0.093830369,36.0345192,9.03472805,5.862765312,2
1713.832,171.3832,1478282399,37.35297445,-122.0348312,55.86975,0.18,286.171875,6,10,1478282399,35.94050598,12.06397247,7.109130859,267.1132813,253.6546021,10,20443.32375,0.664978027,0.852859497,0.12147522,20443.31457,-0.515975211,0.42657529,0.165628113,20443.30958,0.845735748,1.440564173,-0.842274514,-0.564293087,0.407429725,0.086256489,-0.00752638,0.147166461,0.218829438,-0.527228736,0.422847656,0.035606001,0.736180639,0.660129547,0.746159375,-0.086459443,36.0345192,9.03472805,5.862765312,2
1723.512,172.3512,1478282399,37.35297445,-122.0348312,55.86975,0.18,286.171875,6,10,1478282399,35.94050598,12.06397247,7.109130859,267.1132813,253.6546021,10,20443.33343,0.655029297,0.791946411,0.128097534,20443.32457,-0.239431231,0.268074062,0.336911982,20443.32956,0.853663172,1.451108783,-0.836984953,-0.020937305,0.121006392,0.412052959,6.42E-05,0.110232189,0.201439321,-0.527747797,0.426028417,0.037527322,0.733875842,0.664913833,0.742627323,-0.079964101,36.0345192,9.03472805,5.862765312,2
1733.195,173.3195,1478282399,37.35297445,-122.0348312,55.86975,0.18,286.171875,6,10,1478282399,35.94050598,12.06397247,7.109130859,267.1132813,253.6546021,10,20443.34312,0.636230469,0.723693848,0.127090454,20443.33456,0.03363892,0.155875884,0.469161899,20443.32956,0.853663172,1.451108783,-0.836984953,-0.020937305,0.121006392,0.412052959,6.42E-05,0.110232189,0.201439321,-0.527747797,0.426028417,0.037527322,0.733875842,0.664913833,0.742627323,-0.079964101,36.0345192,9.03472805,5.862765312,2
1742.895,174.2895,1478282399,37.35297445,-122.0348312,55.86975,0.18,286.171875,6,10,1478282399,35.94050598,12.06397247,7.109130859,267.1132813,253.6546021,10,20443.35282,0.609359741,0.67868042,0.143249512,20443.34455,0.265942734,0.129256257,0.578796251,20443.33956,0.851997443,1.4505258,-0.831791694,0.234943956,0.053179991,0.531942606,-0.032456461,-0.015445509,0.207903817,-0.526052718,0.427623499,0.038829133,0.734097391,0.668686926,0.739139378,-0.080813363,36.00939941,8.703505516,6.48512888,2
1752.577,175.2577,1478282399,37.35297445,-122.0348312,55.86975,0.18,286.171875,6,10,1478282399,35.94050598,12.06397247,7.109130859,267.1132813,253.6546021,10,20443.3625,0.580718994,0.655380249,0.141738892,20443.35452,0.424303081,0.211408918,0.65431338,20443.35952,0.840874293,1.444724688,-0.818043298,0.56124866,0.21322386,0.678661227,-0.068864994,-0.051129106,0.229210317,-0.519993631,0.432002569,0.040909572,0.735735558,0.678224742,0.729809523,-0.085960805,36.00939941,8.703505516,6.48512888,2
1762.236,176.2236,1478282399,37.35297445,-122.0348312,55.86975,0.18,286.171875,6,10,1478282399,35.90558624,11.40042114,7.276725769,266.5459595,253.0872803,10,20443.37216,0.568893433,0.652053833,0.115585327,20443.36454,0.533204531,0.378950513,0.681593204,20443.35952,0.840874293,1.444724688,-0.818043298,0.56124866,0.21322386,0.678661227,-0.068864994,-0.051129106,0.229210317,-0.519993631,0.432002569,0.040909572,0.735735558,0.678224742,0.729809523,-0.085960805,36.00939941,8.703505516,6.48512888,2
1771.943,177.1943,1478282399,37.35297445,-122.0348312,55.86975,0.18,286.171875,6,10,1478282399,35.90558624,11.40042114,7.276725769,266.5459595,253.0872803,10,20443.38187,0.566574097,0.648574829,0.085159302,20443.37453,0.612958749,0.505808061,0.648686387,20443.36953,0.832960145,1.442322084,-0.810495057,0.659297705,0.371006608,0.674885571,-0.114566825,-0.072574593,0.203878686,-0.516252931,0.435127837,0.041167148,0.736513369,0.683460236,0.724628448,-0.088293351,36.13903809,8.134504318,6.502663612,2
1781.625,178.1625,1478282399,37.35297445,-122.0348312,55.86975,0.18,286.171875,6,10,1478282399,35.90558624,11.40042114,7.276725769,266.5459595,253.0872803,10,20443.39155,0.568008423,0.643966675,0.060668945,20443.38452,0.647725785,0.568863726,0.580986435,20443.38951,0.81479603,1.438641495,-0.796738285,0.730972767,0.497126907,0.540552795,-0.126373231,-0.066504993,0.177272514,-0.508545365,0.441955886,0.040050609,0.737870283,0.692947328,0.715079844,-0.092113212,36.13903809,8.134504318,6.502663612,2
1791.281,179.1281,1478282399,37.35297445,-122.0348312,55.86975,0.18,286.171875,6,10,1478282399,36.46437073,10.70194244,7.94707489,267.2904053,253.8317261,10,20443.4012,0.573516846,0.638885498,0.027938843,20443.39449,0.650408653,0.570357493,0.494526378,20443.38951,0.81479603,1.438641495,-0.796738285,0.730972767,0.497126907,0.540552795,-0.126373231,-0.066504993,0.177272514,-0.508545365,0.441955886,0.040050609,0.737870283,0.692947328,0.715079844,-0.092113212,36.13903809,8.134504318,6.502663612,2
1800.989,180.0989,1478282399,37.35297445,-122.0348312,55.86975,0.18,286.171875,6,10,1478282399,36.46437073,10.70194244,7.94707489,267.2904053,253.8317261,10,20443.41091,0.569107056,0.644683838,-0.048171997,20443.40448,0.626476156,0.496673418,0.409451963,20443.39949,0.805464897,1.436769871,-0.791040241,0.720896959,0.465820432,0.458036363,-0.123283617,-0.072199561,0.121891774,-0.50490761,0.445075093,0.038997543,0.738549699,0.69680047,0.711085081,-0.093952931,36.20201874,7.591514587,6.802026749,2
1810.673,181.0673,1478282399,37.35297445,-122.0348312,55.86975,0.18,286.171875,6,10,1478282399,36.46437073,10.70194244,7.94707489,267.2904053,253.8317261,10,20443.4206,0.59866333,0.63420105,-0.155960083,20443.40448,0.626476156,0.496673418,0.409451963,20443.4095,0.796553784,1.434144279,-0.786341497,0.668056726,0.322066605,0.348777503,-0.130746678,-0.063089669,0.048064228,-0.501595373,0.44753097,0.037944467,0.739376988,0.699853718,0.707773507,-0.096236229,36.20201874,7.591514587,6.802026749,2
1820.343,182.0343,1478282399,37.35297445,-122.0348312,55.86975,0.18,286.171875,6,10,1478282399,36.46437073,10.70194244,7.94707489,267.2904053,253.8317261,10,20443.43027,0.638092041,0.615280151,-0.244949341,20443.42449,0.245093378,-0.314912407,0.06723017,20443.41949,0.789429766,1.429482405,-0.783429909,0.483740091,-0.082698904,0.172871202,-0.102771401,-0.071512595,-0.056172464,-0.499116945,0.448317372,0.037451464,0.740601915,0.701434731,0.70571363,-0.099787615,36.20772552,7.378030777,7.003585815,2
1830.039,183.0039,1478282399,37.35297445,-122.0348312,55.86975,0.18,286.171875,6,10,1478282399,36.46437073,10.70194244,7.94707489,267.2904053,253.8317261,10,20443.43996,0.627288818,0.595703125,-0.230041504,20443.43448,-0.185601289,-1.065078547,-0.123831664,20443.42948,0.786360647,1.421544395,-0.78291667,0.122282848,-0.761993825,-0.032441497,-0.062886566,-0.090069771,-0.139543086,-0.498138765,0.446267455,0.038464276,0.74244436,0.700978577,0.705349922,-0.105406255,36.20772552,7.378030777,7.003585815,2
1839.723,183.9723,1478282399,37.35297445,-122.0348312,55.86975,0.18,286.171875,6,10,1478282399,36.46437073,10.70194244,7.94707489,267.2904053,253.8317261,10,20443.44965,0.583221436,0.595046997,-0.13861084,20443.43448,-0.185601289,-1.065078547,-0.123831664,20443.43948,0.789164265,1.410359054,-0.784724979,-0.341235161,-1.491717935,-0.176315591,-0.071206704,-0.110927485,-0.117005266,-0.499036482,0.440958581,0.041692704,0.744835444,0.698495507,0.706630588,-0.113036238,36.20772552,7.378030777,7.003585815,2
1849.407,184.9407,1478282399,37.35297445,-122.0348312,55.86975,0.18,286.171875,6,10,1478282400,36.5691452,10.5971756,7.578384399,267.1774902,253.718811,10,20443.45933,0.532592773,0.608917236,-0.043228149,20443.44447,-0.642414376,-1.692692139,-0.203692675,20443.44947,0.797932623,1.397936578,-0.787723154,-0.758267105,-1.957868695,-0.186236933,-0.111725882,-0.113701887,-0.017271448,-0.501509258,0.433380627,0.047076738,0.747297449,0.694947302,0.708748877,-0.121339396,36.33717346,7.384064674,6.29047966,2
1859.091,185.9091,1478282399,37.35297445,-122.0348312,55.86975,0.18,286.171875,6,10,1478282400,36.5691452,10.5971756,7.578384399,267.1774902,253.718811,10,20443.46901,0.498947144,0.615875244,0.018112183,20443.44447,-0.642414376,-1.692692139,-0.203692675,20443.44947,0.797932623,1.397936578,-0.787723154,-0.758267105,-1.957868695,-0.186236933,-0.111725882,-0.113701887,-0.017271448,-0.501509258,0.433380627,0.047076738,0.747297449,0.694947302,0.708748877,-0.121339396,36.33717346,7.384064674,6.29047966,2
1868.754,186.8754,1478282399,37.35297445,-122.0348312,55.86975,0.18,286.171875,6,10,1478282400,36.46437073,10.49240112,7.008575439,266.1689453,252.7102661,10,20443.47868,0.480224609,0.631317139,0.040466309,20443.46445,-1.222768843,-1.863013808,0.002920689,20443.46945,0.82804033,1.380282717,-0.7922133,-1.223132133,-1.80568707,0.099390015,-0.190618098,-0.09603411,0.151096568,-0.508683385,0.418029933,0.061326421,0.750154157,0.689565241,0.711909354,-0.132984385,36.33717346,7.384064674,6.29047966,2
1878.456,187.8456,1478282399,37.35297445,-122.0348312,55.86975,0.18,286.171875,6,10,1478282400,36.46437073,10.49240112,7.008575439,266.1689453,252.7102661,10,20443.48838,0.467041016,0.661407471,0.035675049,20443.47445,-1.373440111,-1.562069148,0.193881589,20443.47944,0.84725908,1.378487291,-0.792323109,-1.361004591,-1.458114386,0.295087069,-0.209024027,-0.080669321,0.174673602,-0.512645211,0.412421198,0.068956115,0.749899125,0.689248621,0.711986482,-0.134207293,36.6262207,7.327348709,4.39485836,2
1888.137,188.8137,1478282399,37.35297445,-122.0348312,55.86975,0.18,286.171875,6,10,1478282400,36.46437073,10.49240112,7.008575439,266.1689453,252.7102661,10,20443.49806,0.470565796,0.698669434,0.010864258,20443.47445,-1.373440111,-1.562069148,0.193881589,20443.47944,0.84725908,1.378487291,-0.792323109,-1.361004591,-1.458114386,0.295087069,-0.209024027,-0.080669321,0.174673602,-0.512645211,0.412421198,0.068956115,0.749899125,0.689248621,0.711986482,-0.134207293,36.6262207,7.327348709,4.39485836,2
1897.807,189.7807,1478282399,37.35297445,-122.0348312,55.86975,0.18,286.171875,6,10,1478282400,36.46437073,10.49240112,7.008575439,266.1689453,252.7102661,10,20443.50773,0.491744995,0.74055481,-0.027618408,20443.49443,-1.625267825,-0.790309565,0.489957725,20443.49943,0.891946422,1.390930018,-0.788906568,-1.598329902,-0.678401411,0.518643737,-0.2226886,-0.010913807,0.136919677,-0.521344325,0.406414052,0.083574686,0.745682899,0.693254411,0.709583223,-0.126055419,36.6262207,7.327348709,4.39485836,2
1907.506,190.7506,1478282399,37.35297445,-122.0348312,55.86975,0.18,286.171875,6,10,1478282400,37.05808258,10.24793243,6.304702759,263.8529358,250.3942719,10,20443.51743,0.516891479,0.776855469,-0.074508667,20443.50442,-1.718284585,-0.417478198,0.515083851,20443.50942,0.916278074,1.404106252,-0.786729491,-1.669165015,-0.318558484,0.503065288,-0.204631865,0.032507263,0.089547895,-0.526279885,0.405519827,0.089894412,0.741958319,0.69637686,0.708047569,-0.117166303,36.84325027,6.733469009,3.423490047,2
1917.183,191.7183,1478282399,37.35297445,-122.0348312,55.86975,0.18,286.171875,6,10,1478282400,37.05808258,10.24793243,6.304702759,263.8529358,250.3942719,10,20443.52711,0.534301758,0.820541382,-0.136886597,20443.50442,-1.718284585,-0.417478198,0.515083851,20443.50942,0.916278074,1.404106252,-0.786729491,-1.669165015,-0.318558484,0.503065288,-0.204631865,0.032507263,0.089547895,-0.526279885,0.405519827,0.089894412,0.741958319,0.69637686,0.708047569,-0.117166303,36.84325027,6.733469009,3.423490047,2
1926.86,192.686,1478282399,37.35297445,-122.0348312,55.86975,0.18,286.171875,6,10,1478282400,37.05808258,10.24793243,6.304702759,263.8529358,250.3942719,10,20443.53678,0.558792114,0.82484436,-0.22076416,20443.52439,-1.656757574,0.282414918,0.368376964,20443.52941,0.962272424,1.439283402,-0.783666964,-1.422263741,0.466848642,0.309130132,-0.16791141,0.114659801,-0.044000361,-0.536499109,0.407094078,0.098528471,0.73262218,0.702213168,0.705881596,-0.092886239,36.84325027,6.733469009,3.423490047,2
1936.559,193.6559,1478282399,37.35297445,-122.0348312,55.86975,0.18,286.171875,6,10,1478282400,37.09299469,9.933609009,5.936004639,263.6977234,250.2390442,10,20443.54648,0.604156494,0.784759521,-0.319732666,20443.5344,-1.280180471,0.886223578,0.236637043,20443.5394,0.977494021,1.460023706,-0.782920408,-0.9230811,1.19454515,0.170064658,-0.145719945,0.119491786,-0.142402738,-0.540449987,0.410771348,0.098753356,0.727618365,0.70451206,0.705352545,-0.078361422,37.09299469,9.933608055,5.936004639,2
1946.243,194.6243,1478282399,37.35297445,-122.0348312,55.86975,0.18,286.171875,6,10,1478282400,37.09299469,9.933609009,5.936004639,263.6977234,250.2390442,10,20443.55617,0.653884888,0.722167969,-0.372283936,20443.5344,-1.280180471,0.886223578,0.236637043,20443.5394,0.977494021,1.460023706,-0.782920408,-0.9230811,1.19454515,0.170064658,-0.145719945,0.119491786,-0.142402738,-0.540449987,0.410771348,0.098753356,0.727618365,0.70451206,0.705352545,-0.078361422,37.09299469,9.933608055,5.936004639,2
1955.918,195.5918,1478282399,37.35297445,-122.0348312,55.86975,0.18,286.171875,6,10,1478282400,37.30254364,10.00345612,6.070083618,262.7181091,249.2594452,10,20443.56584,0.688995361,0.672393799,-0.40486145,20443.55438,-0.055076302,2.193896127,0.013544305,20443.55938,0.981645891,1.501923809,-0.782403198,0.303618342,2.200802803,-0.005884288,-0.053655077,0.017182115,-0.323476672,-0.543160744,0.42493856,0.08908001,0.718657345,0.707539976,0.704985857,-0.048807256,37.09299469,9.933608055,5.936004639,2
1965.612,196.5612,1478282399,37.35297445,-122.0348312,55.86975,0.18,286.171875,6,10,1478282400,37.30254364,10.00345612,6.070083618,262.7181091,249.2594452,10,20443.57553,0.71546936,0.641998291,-0.414093018,20443.56438,0.463408405,2.22880431,-0.026804716,20443.56937,0.97266347,1.516271421,-0.782307805,0.732703626,1.990100622,-0.035870433,-0.019239169,-0.032524396,-0.366206706,-0.541826272,0.432547019,0.08199948,0.715963304,0.708234549,0.704918206,-0.038654733,36.78053284,9.742915154,7.878513813,2
1975.296,197.5296,1478282399,37.35297445,-122.0348312,55.86975,0.18,286.171875,6,10,1478282400,37.30254364,10.00345612,6.070083618,262.7181091,249.2594452,10,20443.58522,0.730545044,0.622421265,-0.394042969,20443.58433,1.000844966,1.254669784,-0.069836606,20443.58934,0.943797648,1.52231327,-0.78252011,1.129414082,0.883621752,-0.068454482,0.007163709,-0.063070476,-0.379725248,-0.535791768,0.442428869,0.06996614,0.715743402,0.708305657,0.705068767,-0.034367755,36.78053284,9.742915154,7.878513813,2
1984.981,198.4981,1478282399,37.35297445,-122.0348312,55.86975,0.18,286.171875,6,10,1478282400,37.30254364,10.00345612,6.070083618,262.7181091,249.2594452,10,20443.5949,0.747955322,0.611831665,-0.380615234,20443.58433,1.000844966,1.254669784,-0.069836606,20443.58934,0.943797648,1.52231327,-0.78252011,1.129414082,0.883621752,-0.068454482,0.007163709,-0.063070476,-0.379725248,-0.535791768,0.442428869,0.06996614,0.715743402,0.708305657,0.705068767,-0.034367755,36.78053284,9.742915154,7.878513813,2
1994.664,199.4664,1478282399,37.35297445,-122.0348312,55.86975,0.18,286.171875,6,10,1478282400,37.26761627,9.758987427,6.639884949,263.6591492,250.2004852,10,20443.60459,0.754852295,0.598815918,-0.364807129,20443.59433,1.0716989,0.691361413,-0.078724373,20443.59933,0.927620452,1.51577694,-0.782718241,1.141490579,0.362592995,-0.08330749,0.040028937,-0.09337759,-0.341626197,-0.532030942,0.444351848,0.065844936,0.717745747,0.707926393,0.705209255,-0.038989026,36.78053284,9.742915154,7.878513813,2
2004.349,200.4349,1478282399,37.35297445,-122.0348312,55.86975,0.18,286.171875,6,10,1478282400,37.26761627,9.758987427,6.639884949,263.6591492,250.2004852,10,20443.61427,0.758682251,0.580352783,-0.339782715,20443.60434,1.038903669,0.242328751,-0.090706468,20443.59933,0.927620452,1.51577694,-0.782718241,1.141490579,0.362592995,-0.08330749,0.040028937,-0.09337759,-0.341626197,-0.532030942,0.444351848,0.065844936,0.717745747,0.707926393,0.705209255,-0.038989026,36.78053284,9.742915154,7.878513813,2
2014.031,201.4031,1478282399,37.35297445,-122.0348312,55.86975,0.18,286.171875,6,10,1478282400,37.26761627,9.758987427,6.639884949,263.6591492,250.2004852,10,20443.62395,0.772201538,0.559875488,-0.336990356,20443.61433,0.950652635,-0.016961673,-0.068738052,20443.60934,0.912127591,1.505711395,-0.782905381,1.07560432,0.008927561,-0.082578324,0.051315874,-0.124989137,-0.293678701,-0.528308707,0.444789732,0.062877895,0.72048482,0.707366407,0.705341935,-0.04610401,36.30492401,10.17139816,9.396704674,2
2023.715,202.3715,1478282399,37.35297445,-122.0348312,55.86975,0.18,286.171875,6,10,1478282400,37.19776917,9.549446106,7.64540863,266.081665,252.6229858,10,20443.63364,0.795639038,0.547363281,-0.344772339,20443.61433,0.950652635,-0.016961673,-0.068738052,20443.61932,0.898025873,1.494465577,-0.782713009,0.970337927,-0.164448053,-0.038389564,0.065263078,-0.145330057,-0.282924175,-0.524778233,0.444493771,0.060814452,0.723418756,0.706938446,0.70520556,-0.054066189,36.30492401,10.17139816,9.396704674,2
2033.397,203.3397,1478282399,37.35297445,-122.0348312,55.86975,0.18,286.171875,6,10,1478282400,36.60406494,10.00345612,8.081138611,268.6080322,255.149353,10,20443.64332,0.813476563,0.541030884,-0.32598877,20443.63432,0.619625174,-0.184514986,0.064176323,20443.62931,0.886069617,1.483810153,-0.781896309,0.806431234,-0.239207968,0.030293087,0.088743269,-0.157262981,-0.283126622,-0.521596939,0.44397497,0.059549198,0.726138246,0.706895769,0.704626262,-0.06164572,36.29487991,10.41554546,9.165205002,2
2043.08,204.308,1478282399,37.35297445,-122.0348312,55.86975,0.18,286.171875,6,10,1478282400,36.60406494,10.00345612,8.081138611,268.6080322,255.149353,10,20443.653,0.805175781,0.560028076,-0.31072998,20443.64431,0.374559759,-0.219086012,0.132216361,20443.63931,0.87722427,1.474856551,-0.780462915,0.580610633,-0.282209277,0.102513738,0.106156431,-0.162577555,-0.257919669,-0.519004679,0.443395522,0.059152054,0.72837874,0.707320154,0.703608453,-0.068069108,36.29487991,10.41554546,9.165205002,2
2052.764,205.2764,1478282399,37.35297445,-122.0348312,55.86975,0.18,286.171875,6,10,1478282400,36.60406494,10.00345612,8.081138611,268.6080322,255.149353,10,20443.66269,0.800186157,0.593154907,-0.301315308,20443.65428,0.116593725,-0.292988466,0.179579882,20443.65928,0.870440518,1.462934692,-0.776510469,0.071137935,-0.435243398,0.205727205,0.095958121,-0.140766308,-0.233934551,-0.516128056,0.441830418,0.061107642,0.731206926,0.709217668,0.700794399,-0.076795422,36.29487991,10.41554546,9.165205002,2
2062.419,206.2419,1478282399,37.35297445,-122.0348312,55.86975,0.18,286.171875,6,10,1478282400,36.60406494,10.00345612,8.081138611,268.6080322,255.149353,10,20443.67234,0.820617676,0.625244141,-0.298934937,20443.6643,-0.127443443,-0.428290898,0.227389749,20443.65928,0.870440518,1.462934692,-0.776510469,0.071137935,-0.435243398,0.205727205,0.095958121,-0.140766308,-0.233934551,-0.516128056,0.441830418,0.061107642,0.731206926,0.709217668,0.700794399,-0.076795422,36.29487991,10.41554546,9.165205002,2
2072.128,207.2128,1478282399,37.35297445,-122.0348312,55.86975,0.18,286.171875,6,10,1478282400,36.60406494,10.00345612,8.081138611,268.6080322,255.149353,10,20443.68205,0.840270996,0.645355225,-0.287628174,20443.67429,-0.34799233,-0.562515016,0.27627207,20443.66929,0.872294131,1.45881213,-0.774192219,-0.163255438,-0.577914238,0.258798391,0.110110104,-0.073894612,-0.219035044,-0.515807059,0.440446514,0.063636115,0.732052178,0.710507572,0.699138761,-0.079899892,36.44773102,10.43432522,8.51415062,2
2081.809,208.1809,1478282399,37.35297445,-122.0348312,55.86975,0.18,286.171875,6,10,1478282400,36.21990204,9.968536377,8.181694031,269.1884766,255.7298126,10,20443.69173,0.852783203,0.656570435,-0.275772095,20443.68428,-0.538821937,-0.643935041,0.304326342,20443.68928,0.884604346,1.453386002,-0.769179844,-0.538508832,-0.751347363,0.313731164,0.126736134,-0.050190981,-0.203464717,-0.517021345,0.436585848,0.071243193,0.732807023,0.713534832,0.69554621,-0.08416345,36.44773102,10.43432522,8.51415062,2
2091.465,209.1465,1478282399,37.35297445,-122.0348312,55.86975,0.18,286.171875,6,10,1478282400,36.21990204,9.968536377,8.181694031,269.1884766,255.7298126,10,20443.70139,0.854522705,0.664627075,-0.229934692,20443.69427,-0.680718356,-0.699036377,0.30807847,20443.68928,0.884604346,1.453386002,-0.769179844,-0.538508832,-0.751347363,0.313731164,0.126736134,-0.050190981,-0.203464717,-0.517021345,0.436585848,0.071243193,0.732807023,0.713534832,0.69554621,-0.08416345,36.44773102,10.43432522,8.51415062,2
2101.175,210.1175,1478282399,37.35297445,-122.0348312,55.86975,0.18,286.171875,6,10,1478282400,36.21990204,9.968536377,8.181694031,269.1884766,255.7298126,10,20443.7111,0.866485596,0.675842285,-0.207519531,20443.70426,-0.738333715,-0.671480383,0.315843448,20443.69927,0.893706159,1.451922086,-0.766809121,-0.6430915,-0.781047702,0.313458949,0.139476523,-0.029213857,-0.144531459,-0.518334287,0.434313195,0.075758722,0.732777069,0.715046167,0.693840921,-0.085403234,36.69351196,10.05035591,7.898060322,2
2110.859,211.0859,1478282399,37.35297445,-122.0348312,55.86975,0.18,286.171875,6,10,1478282400,36.18497467,10.07331085,8.081138611,268.8877258,255.4290466,10,20443.72078,0.90145874,0.697921753,-0.213928223,20443.71426,-0.73183507,-0.533584298,0.350324194,20443.71925,0.912801554,1.452312326,-0.761494927,-0.639739215,-0.513785183,0.374863982,0.147754893,-0.014161967,-0.1219607,-0.521108502,0.43089037,0.084445554,0.731880022,0.718730688,0.69000423,-0.085558832,36.69351196,10.05035591,7.898060322,2
2120.533,212.0533,1478282399,37.35297445,-122.0348312,55.86975,0.18,286.171875,6,10,1478282400,36.25482941,9.793914795,7.67893219,266.8760681,253.4174042,10,20443.73046,0.937515259,0.716049194,-0.23336792,20443.73424,-0.652533856,-0.033981669,0.4706293,20443.72924,0.921826617,1.455271546,-0.758061932,-0.60116148,-0.257101506,0.435086012,0.180129245,0.010406382,-0.130224094,-0.52229896,0.430524946,0.088134333,0.730810787,0.72132951,0.687515378,-0.083704136,36.94857025,9.534420967,7.328101158,2
2130.223,213.0223,1478282399,37.35297445,-122.0348312,55.86975,0.18,286.171875,6,10,1478282400,36.25482941,9.793914795,7.67893219,266.8760681,253.4174042,10,20443.74015,0.972473145,0.736923218,-0.261978149,20443.73424,-0.652533856,-0.033981669,0.4706293,20443.72924,0.921826617,1.455271546,-0.758061932,-0.60116148,-0.257101506,0.435086012,0.180129245,0.010406382,-0.130224094,-0.52229896,0.430524946,0.088134333,0.730810787,0.72132951,0.687515378,-0.083704136,36.94857025,9.534420967,7.328101158,2
2139.903,213.9903,1478282399,37.35297445,-122.0348312,55.86975,0.18,286.171875,6,10,1478282400,36.25482941,9.793914795,7.67893219,266.8760681,253.4174042,10,20443.74983,1.006027222,0.771133423,-0.302520752,20443.74423,-0.579647398,0.216543226,0.555335134,20443.74923,0.937552075,1.46738102,-0.748507768,-0.452194571,0.220624015,0.599991858,0.243682474,0.056377064,-0.186340198,-0.523814835,0.433357874,0.093936493,0.727320361,0.728790641,0.680546165,-0.075637944,36.94857025,9.534420967,7.328101158,2
2149.586,214.9586,1478282399,37.35297445,-122.0348312,55.86975,0.18,286.171875,6,10,1478282400,36.25482941,9.793914795,7.67893219,266.8760681,253.4174042,10,20443.75951,1.050003052,0.822052002,-0.328445435,20443.74423,-0.579647398,0.216543226,0.555335134,20443.74923,0.937552075,1.46738102,-0.748507768,-0.452194571,0.220624015,0.599991858,0.243682474,0.056377064,-0.186340198,-0.523814835,0.433357874,0.093936493,0.727320361,0.728790641,0.680546165,-0.075637944,36.94857025,9.534420967,7.328101158,2
2159.269,215.9269,1478282399,37.35297445,-122.0348312,55.86975,0.18,286.171875,6,10,1478282400,36.25482941,9.793914795,7.67893219,266.8760681,253.4174042,10,20443.76919,1.071792603,0.895675659,-0.321380615,20443.75421,-0.470451135,0.357945096,0.628258077,20443.74923,0.937552075,1.46738102,-0.748507768,-0.452194571,0.220624015,0.599991858,0.243682474,0.056377064,-0.186340198,-0.523814835,0.433357874,0.093936493,0.727320361,0.728790641,0.680546165,-0.075637944,36.94857025,9.534420967,7.328101158,2
2168.927,216.8927,1478282399,37.35297445,-122.0348312,55.86975,0.18,286.171875,6,10,1478282400,36.46437073,9.584365845,7.276725769,265.2828674,251.8242035,10,20443.77885,1.073532104,0.970092773,-0.283599854,20443.77421,-0.148923968,0.233336055,0.651477113,20443.7792,0.947934012,1.480989531,-0.72957918,0.027451318,-0.002296097,0.63392508,0.329341769,0.229119673,-0.254523635,-0.521966289,0.440593587,0.100578382,0.723403396,0.742450833,0.666556001,-0.066856965,37.09958267,8.861278534,7.409565449,2
2178.63,217.863,1478282399,37.35297445,-122.0348312,55.86975,0.18,286.171875,6,10,1478282400,36.46437073,9.584365845,7.276725769,265.2828674,251.8242035,10,20443.78855,1.038619995,1.002197266,-0.231155396,20443.77421,-0.148923968,0.233336055,0.651477113,20443.7792,0.947934012,1.480989531,-0.72957918,0.027451318,-0.002296097,0.63392508,0.329341769,0.229119673,-0.254523635,-0.521966289,0.440593587,0.100578382,0.723403396,0.742450833,0.666556001,-0.066856965,37.09958267,8.861278534,7.409565449,2
2188.297,218.8297,1478282399,37.35297445,-122.0348312,55.86975,0.18,286.171875,6,10,1478282400,36.46437073,9.584365845,7.276725769,265.2828674,251.8242035,10,20443.79822,0.964538574,1.001907349,-0.171737671,20443.78418,0.04852173,-0.109980031,0.600999292,20443.7792,0.947934012,1.480989531,-0.72957918,0.027451318,-0.002296097,0.63392508,0.329341769,0.229119673,-0.254523635,-0.521966289,0.440593587,0.100578382,0.723403396,0.742450833,0.666556001,-0.066856965,37.09958267,8.861278534,7.409565449,2
2197.974,219.7974,1478282399,37.35297445,-122.0348312,55.86975,0.18,286.171875,6,10,1478282400,36.81361389,9.374824524,7.61190033,265.4633789,252.0046997,10,20443.8079,0.879837036,0.985031128,-0.110244751,20443.80418,0.443263722,-0.920793806,0.45822616,20443.80918,0.935162545,1.451772856,-0.713005816,0.607753396,-1.169323087,0.414925307,0.213490888,0.347797036,-0.081920832,-0.51338341,0.437640328,0.109110311,0.73007079,0.751047671,0.654110312,-0.089816839,37.37801361,7.717617035,7.288712025,2
2207.684,220.7684,1478282399,37.35297445,-122.0348312,55.86975,0.18,286.171875,6,10,1478282400,36.81361389,9.374824524,7.61190033,265.4633789,252.0046997,10,20443.81761,0.802337646,0.961425781,-0.052963257,20443.80418,0.443263722,-0.920793806,0.45822616,20443.80918,0.935162545,1.451772856,-0.713005816,0.607753396,-1.169323087,0.414925307,0.213490888,0.347797036,-0.081920832,-0.51338341,0.437640328,0.109110311,0.73007079,0.751047671,0.654110312,-0.089816839,37.37801361,7.717617035,7.288712025,2
2217.346,221.7346,1478282399,37.35297445,-122.0348312,55.86975,0.18,286.171875,6,10,1478282400,36.81361389,9.374824524,7.61190033,265.4633789,252.0046997,10,20443.82727,0.723602295,0.916213989,0.015533447,20443.81415,0.603027022,-1.225305504,0.359039389,20443.80918,0.935162545,1.451772856,-0.713005816,0.607753396,-1.169323087,0.414925307,0.213490888,0.347797036,-0.081920832,-0.51338341,0.437640328,0.109110311,0.73007079,0.751047671,0.654110312,-0.089816839,37.37801361,7.717617035,7.288712025,2
2227.031,222.7031,1478282399,37.35297445,-122.0348312,55.86975,0.18,286.171875,6,10,1478282400,36.81361389,9.374824524,7.61190033,265.4633789,252.0046997,10,20443.83695,0.646514893,0.858535767,0.068054199,20443.83416,0.76071066,-1.307415021,0.121169302,20443.83916,0.905691377,1.391385796,-0.703110031,0.857649565,-1.313642383,0.060039096,-0.026988437,0.269620746,0.151661038,-0.50095677,0.425415702,0.116848953,0.744587213,0.750590742,0.646593273,-0.136127591,37.37801361,7.717617035,7.288712025,2
2236.713,223.6713,1478282399,37.35297445,-122.0348312,55.86975,0.18,286.171875,6,10,1478282400,37.30255127,9.02558136,7.008583069,266.491333,253.0326538,10,20443.84664,0.591125488,0.806228638,0.1065979,20443.83416,0.76071066,-1.307415021,0.121169302,20443.83916,0.905691377,1.391385796,-0.703110031,0.857649565,-1.313642383,0.060039096,-0.026988437,0.269620746,0.151661038,-0.50095677,0.425415702,0.116848953,0.744587213,0.750590742,0.646593273,-0.136127591,37.37801361,7.717617035,7.288712025,2
2246.401,224.6401,1478282399,37.35297445,-122.0348312,55.86975,0.18,286.171875,6,10,1478282400,37.30255127,9.02558136,7.008583069,266.491333,253.0326538,10,20443.85632,0.553070068,0.754394531,0.146575928,20443.84415,0.796048145,-1.136855799,-0.014842329,20443.83916,0.905691377,1.391385796,-0.703110031,0.857649565,-1.313642383,0.060039096,-0.026988437,0.269620746,0.151661038,-0.50095677,0.425415702,0.116848953,0.744587213,0.750590742,0.646593273,-0.136127591,37.37801361,7.717617035,7.288712025,2
2256.079,225.6079,1478282399,37.35297445,-122.0348312,55.86975,0.18,286.171875,6,10,1478282400,37.30255127,9.02558136,7.008583069,266.491333,253.0326538,10,20443.866,0.532424927,0.70614624,0.16897583,20443.85414,0.80667975,-0.844615681,-0.160299394,20443.85914,0.882448061,1.356617387,-0.701962599,0.881105423,-0.730149925,-0.221277297,-0.193059534,0.108677007,0.308870435,-0.493697037,0.418468624,0.11716462,0.753272659,0.746129572,0.645717502,-0.162294492,37.78312302,7.491492271,5.110371113,2
2265.778,226.5778,1478282399,37.35297445,-122.0348312,55.86975,0.18,286.171875,6,10,1478282400,37.40731812,8.781105042,6.438781738,266.8336182,253.374939,10,20443.8757,0.511001587,0.665481567,0.184326172,20443.86414,0.797112344,-0.439944358,-0.276863026,20443.86913,0.87046864,1.344815171,-0.702933467,0.868433833,-0.294625908,-0.317245662,-0.211126,0.059687689,0.339924246,-0.490787856,0.416717014,0.115234673,0.75643584,0.743550897,0.646458566,-0.170948416,37.85759735,7.662452698,4.229905605,2
2275.462,227.5462,1478282399,37.35297445,-122.0348312,55.86975,0.18,286.171875,6,10,1478282400,37.47716522,8.711257935,6.036567688,267.1388855,253.6802063,10,20443.88538,0.498580933,0.636657715,0.179046631,20443.88409,0.773249355,0.46975605,-0.394747852,20443.87909,0.858443829,1.337562702,-0.70450522,0.854904294,0.168706223,-0.37450096,-0.230300516,0.017824648,0.360427558,-0.488325365,0.416518471,0.111950125,0.758628941,0.741302133,0.647656918,-0.176101401,37.85759735,7.662452698,4.229905605,2
2285.138,228.5138,1478282399,37.35297445,-122.0348312,55.86975,0.18,286.171875,6,10,1478282400,37.47716522,8.711257935,6.036567688,267.1388855,253.6802063,10,20443.89506,0.502548218,0.634567261,0.165634155,20443.89411,0.766435125,0.877295331,-0.407727566,20443.89911,0.834409071,1.335763703,-0.708327317,0.835936308,0.970001519,-0.402732849,-0.239990413,-0.013906646,0.355903596,-0.484313236,0.420728188,0.102034651,0.760274563,0.738571346,0.650564373,-0.176856965,37.79746246,8.071471214,4.000771523,2
