time(ms),time(ds),locationTimestamp_since1970,locationLatitude,locationLongitude,locationAltitude,locationSpeed,locationCourse,locationVerticalAccuracy,locationHorizontalAccuracy,locationHeadingTimestamp_since1970,locationHeadingX,locationHeadingY,locationHeadingZ,locationTrueHeading,locationMagneticHeading,locationHeadingAccuracy,accelerometerTimestamp_sinceReboot,accelerometerAccelerationX,accelerometerAccelerationY,accelerometerAccelerationZ,gyroTimestamp_sinceReboot,gyroRotationX,gyroRotationY,gyroRotationZ,motionTimestamp_sinceReboot,motionYaw,motionRoll,motionPitch,motionRotationRateX,motionRotationRateY,motionRotationRateZ,motionUserAccelerationX,motionUserAccelerationY,motionUserAccelerationZ,motionQuaternionX,motionQuaternionY,motionQuaternionZ,motionQuaternionW,motionGravityX,motionGravityY,motionGravityZ,motionMagneticFieldX,motionMagneticFieldY,motionMagneticFieldZ,motionMagneticFieldCalibrationAccuracy,activityTimestamp_sinceReboot
0,0,1478282460,37.35289344,-122.0352152,46.87988,0.82,329.0625,6,10,1478282461,-0.79942131,31.90087128,-24.19644928,44.8418808,31.38320923,10,20504.60903,0.410171509,0.348007202,-0.875213623,20504.60527,-0.193736181,0.034228544,-0.085013162,20504.60027,-2.039704679,0.402855092,-0.411407135,-0.034377515,0.063648403,-0.068860568,0.040873796,-0.052350007,-0.020692075,0.062105994,0.273039762,-0.838597158,0.467276087,0.359333724,0.399899453,-0.843184292,-0.840929985,33.87898254,-26.66231918,2,20501.83445
9.7,0.97,1478282460,37.35289344,-122.0352152,46.87988,0.82,329.0625,6,10,1478282461,-0.79942131,31.90087128,-24.19644928,44.8418808,31.38320923,10,20504.61873,0.398681641,0.353134155,-0.886901855,20504.61526,-0.315392043,-0.205322796,-0.11301417,20504.61027,-2.039947654,0.401720434,-0.413132322,-0.184856474,-0.163202882,-0.095658913,0.05206503,-0.053472884,-0.03225841,0.061200318,0.27345368,-0.838629789,0.46709494,0.358106494,0.401480079,-0.842955232,-0.840929985,33.87898254,-26.66231918,2,20501.83445
19.38,1.938,1478282460,37.35289344,-122.0352152,46.87988,0.82,329.0625,6,10,1478282461,-0.79942131,31.90087128,-24.19644928,44.8418808,31.38320923,10,20504.62841,0.387985229,0.364425659,-0.885131836,20504.61526,-0.315392043,-0.205322796,-0.11301417,20504.62024,-2.039989538,0.398326368,-0.415923099,-0.274453878,-0.392095298,-0.116087757,0.043874238,-0.050900348,-0.043772075,0.059033802,0.273770194,-0.838643786,0.467163237,0.354807407,0.404034495,-0.843129754,-0.840929985,33.87898254,-26.66231918,2,20501.83445
29.058,2.9058,1478282460,37.35289344,-122.0352152,46.87988,0.82,329.0625,6,10,1478282461,-0.79942131,31.90087128,-24.19644928,44.8418808,31.38320923,10,20504.63808,0.365737915,0.385406494,-0.87147522,20504.62524,-0.37723304,-0.397102352,-0.127738788,20504.63023,-2.039930205,0.393279725,-0.419270276,-0.323487818,-0.539357126,-0.125029877,0.037957523,-0.042668384,-0.041476075,0.056011199,0.273924925,-0.838653718,0.467426809,0.35002771,0.407094032,-0.843655765,-0.840929985,33.87898254,-26.66231918,2,20501.83445
38.75,3.875,1478282460,37.35289344,-122.0352152,46.87988,0.82,329.0625,6,10,1478282461,-0.79942131,31.90087128,-24.19644928,44.8418808,31.38320923,10,20504.64778,0.347167969,0.415542603,-0.856262207,20504.64524,-0.417625471,-0.476406762,-0.110377375,20504.65024,-2.039357784,0.382407445,-0.426359645,-0.325438201,-0.512639046,-0.090597861,0.025988674,-0.028152594,-0.026762646,0.049471517,0.274219405,-0.83853433,0.468205579,0.339749247,0.413559079,-0.844712555,-1.192730904,34.06441116,-26.41146088,2,20501.83445
48.424,4.8424,1478282460,37.35289344,-122.0352152,46.87988,0.82,329.0625,6,10,1478282461,-0.79942131,31.90087128,-24.19644928,44.8418808,31.38320923,10,20504.65745,0.329727173,0.43069458,-0.858978271,20504.65523,-0.3822776,-0.377674592,-0.076297967,20504.66023,-2.038850449,0.378366055,-0.429267925,-0.270904392,-0.394853026,-0.058466822,0.011281024,-0.000662657,-0.011304728,0.046927109,0.274443267,-0.83839539,0.468585008,0.335886955,0.416205257,-0.844957471,-1.192730904,34.06441116,-26.41146088,2,20501.83445
58.108,5.8108,1478282460,37.35289344,-122.0352152,46.87988,0.82,329.0625,6,10,1478282461,-0.485105515,31.72625351,-24.43108368,44.34770203,30.88902855,10,20504.66713,0.321060181,0.423187256,-0.846496582,20504.66523,-0.301177154,-0.247300074,-0.062195997,20504.66023,-2.038850449,0.378366055,-0.429267925,-0.270904392,-0.394853026,-0.058466822,0.011281024,-0.000662657,-0.011304728,0.046927109,0.274443267,-0.83839539,0.468585008,0.335886955,0.416205257,-0.844957471,-1.192730904,34.06441116,-26.41146088,2,20501.83445
67.795,6.7795,1478282460,37.35289344,-122.0352152,46.87988,0.82,329.0625,6,10,1478282461,-0.79942131,31.48178482,-24.66570282,45.1084671,31.64979553,10,20504.67682,0.303100586,0.419647217,-0.840011597,20504.67522,-0.19340222,-0.120104304,-0.050267965,20504.67022,-2.038633718,0.375533134,-0.431281333,-0.166383326,-0.259241372,-0.053926434,-0.012123697,0.005152108,-0.001372261,0.045169427,0.274586165,-0.838326548,0.468797141,0.333183885,0.41803515,-0.845124304,-1.693422318,34.31308746,-26.05986404,2,20501.83445
77.475,7.7475,1478282460,37.35289344,-122.0352152,46.87988,0.82,329.0625,6,10,1478282461,-0.79942131,31.48178482,-24.66570282,45.1084671,31.64979553,10,20504.6865,0.302352905,0.417053223,-0.829223633,20504.68521,-0.120737071,-0.008685634,-0.021408353,20504.69021,-2.038600701,0.373212854,-0.432623004,-0.023185577,-0.039581574,0.003761357,-0.027916677,0.00039363,0.005360512,0.043832213,0.27457728,-0.838314017,0.468951665,0.331017256,0.419253588,-0.845372081,-1.693422318,34.31308746,-26.05986404,2,20501.83445
87.156,8.7156,1478282460,37.35289344,-122.0352152,46.87988,0.82,329.0625,6,10,1478282461,-0.79942131,31.48178482,-24.66570282,45.1084671,31.64979553,10,20504.69618,0.305236816,0.415893555,-0.811325073,20504.68521,-0.120737071,-0.008685634,-0.021408353,20504.69021,-2.038600701,0.373212854,-0.432623004,-0.023185577,-0.039581574,0.003761357,-0.027916677,0.00039363,0.005360512,0.043832213,0.27457728,-0.838314017,0.468951665,0.331017256,0.419253588,-0.845372081,-1.693422318,34.31308746,-26.05986404,2,20501.83445
96.838,9.6838,1478282460,37.35289344,-122.0352152,46.87988,0.82,329.0625,6,10,1478282461,-0.79942131,31.48178482,-24.66570282,45.1084671,31.64979553,10,20504.70586,0.303207397,0.405181885,-0.80569458,20504.70517,-0.073498452,0.154883057,0.046415436,20504.70018,-2.038245017,0.373608619,-0.43256649,-0.001689314,0.043276262,0.039819743,-0.026123637,-0.003308724,0.03393802,0.043964424,0.274655387,-0.838224312,0.469053888,0.331360459,0.419202268,-0.845263124,-1.865456581,34.39462662,-25.94034958,2,20501.83445
106.507,10.6507,1478282460,37.35289344,-122.0352152,46.87988,0.82,329.0625,6,10,1478282461,-0.79942131,31.48178482,-24.66570282,45.1084671,31.64979553,10,20504.71553,0.298233032,0.396621704,-0.79850769,20504.71519,-0.070211579,0.203739547,0.067190223,20504.72018,-2.036981835,0.376375894,-0.431960318,0.008032058,0.145164788,0.07286983,-0.030584196,-0.013469977,0.03888448,0.045113216,0.27509138,-0.837891802,0.469283345,0.333791584,0.418651849,-0.844579041,-1.865456581,34.39462662,-25.94034958,2,20501.83445
116.2,11.62,1478282460,37.35289344,-122.0352152,46.87988,0.82,329.0625,6,10,1478282461,-0.939119339,31.83102417,-24.93383026,45.56221771,32.10354614,10,20504.72523,0.29800415,0.404678345,-0.799087524,20504.71519,-0.070211579,0.203739547,0.067190223,20504.72018,-2.036981835,0.376375894,-0.431960318,0.008032058,0.145164788,0.07286983,-0.030584196,-0.013469977,0.03888448,0.045113216,0.27509138,-0.837891802,0.469283345,0.333791584,0.418651849,-0.844579041,-1.865456581,34.39462662,-25.94034958,2,20501.83445
125.879,12.5879,1478282460,37.35289344,-122.0352152,46.87988,0.82,329.0625,6,10,1478282461,-0.939119339,31.83102417,-24.93383026,45.56221771,32.10354614,10,20504.73491,0.294815063,0.408065796,-0.803863525,20504.73516,-0.094791224,0.22594818,0.065284731,20504.73017,-2.036271345,0.378250078,-0.431710398,-0.004812866,0.158893079,0.068740845,-0.037408382,-0.01374654,0.044961672,0.04586771,0.275447915,-0.837692821,0.4693563,0.335412532,0.418424875,-0.844049215,-1.745884895,34.39554214,-25.94746017,2,20501.83445
135.559,13.5559,1478282460,37.35289344,-122.0352152,46.87988,0.82,329.0625,6,10,1478282461,-0.939119339,31.83102417,-24.93383026,45.56221771,32.10354614,10,20504.74459,0.272674561,0.413543701,-0.810165405,20504.74516,-0.131144172,0.205718808,0.05227945,20504.75016,-2.034718132,0.381559977,-0.432055311,-0.064710028,0.126919433,0.043879975,-0.043335583,-0.010672332,0.038936879,0.04694656,0.276397935,-0.837237287,0.469503916,0.33815065,0.418738127,-0.842800379,-1.745884895,34.39554214,-25.94746017,2,20501.83445
145.245,14.5245,1478282460,37.35289344,-122.0352152,46.87988,0.82,329.0625,6,10,1478282461,-1.218509674,31.69132996,-24.93383026,46.29592514,32.83725357,10,20504.75427,0.262405396,0.42137146,-0.813827515,20504.74516,-0.131144172,0.205718808,0.05227945,20504.75016,-2.034718132,0.381559977,-0.432055311,-0.064710028,0.126919433,0.043879975,-0.043335583,-0.010672332,0.038936879,0.04694656,0.276397935,-0.837237287,0.469503916,0.33815065,0.418738127,-0.842800379,-1.745884895,34.39554214,-25.94746017,2,20501.83445
154.927,15.4927,1478282460,37.35289344,-122.0352152,46.87988,0.82,329.0625,6,10,1478282461,-0.939119339,31.69132996,-24.66570282,46.0032959,32.54462433,10,20504.76395,0.254241943,0.429901123,-0.8253479,20504.75514,-0.151555704,0.20131101,0.029821013,20504.75016,-2.034718132,0.381559977,-0.432055311,-0.064710028,0.126919433,0.043879975,-0.043335583,-0.010672332,0.038936879,0.04694656,0.276397935,-0.837237287,0.469503916,0.33815065,0.418738127,-0.842800379,-1.745884895,34.39554214,-25.94746017,2,20501.83445
164.582,16.4582,1478282460,37.35289344,-122.0352152,46.87988,0.82,329.0625,6,10,1478282461,-0.939119339,31.69132996,-24.66570282,46.0032959,32.54462433,10,20504.77361,0.261260986,0.43977356,-0.846801758,20504.77514,-0.128409372,0.214694193,-0.024497087,20504.78013,-2.033866343,0.385579669,-0.433739741,-0.036341514,0.122150533,-0.031973809,-0.087028004,0.009633947,0.015431694,0.048056951,0.278030093,-0.836873352,0.469076529,0.34126994,0.420267165,-0.840779603,-1.571791649,34.42071152,-25.92520332,2,20501.83445
174.286,17.4286,1478282460,37.35289344,-122.0352152,46.87988,0.82,329.0625,6,10,1478282461,-0.939119339,31.69132996,-24.66570282,46.0032959,32.54462433,10,20504.78331,0.283462524,0.437713623,-0.865463257,20504.77514,-0.128409372,0.214694193,-0.024497087,20504.78013,-2.033866343,0.385579669,-0.433739741,-0.036341514,0.122150533,-0.031973809,-0.087028004,0.009633947,0.015431694,0.048056951,0.278030093,-0.836873352,0.469076529,0.34126994,0.420267165,-0.840779603,-1.571791649,34.42071152,-25.92520332,2,20501.83445
183.976,18.3976,1478282460,37.35289344,-122.0352152,46.87988,0.82,329.0625,6,10,1478282461,-0.939119339,31.69132996,-24.66570282,46.0032959,32.54462433,10,20504.793,0.301773071,0.419754028,-0.84727478,20504.78513,-0.096499376,0.184899546,-0.047224238,20504.78013,-2.033866343,0.385579669,-0.433739741,-0.036341514,0.122150533,-0.031973809,-0.087028004,0.009633947,0.015431694,0.048056951,0.278030093,-0.836873352,0.469076529,0.34126994,0.420267165,-0.840779603,-1.571791649,34.42071152,-25.92520332,2,20501.83445
193.653,19.3653,1478282460,37.35289344,-122.0352152,46.87988,0.82,329.0625,6,10,1478282461,-0.939119339,31.69132996,-24.66570282,46.0032959,32.54462433,10,20504.80268,0.313140869,0.407409668,-0.82484436,20504.79512,-0.045405831,0.194292782,-0.069562034,20504.80009,-2.035268761,0.387310401,-0.433784124,0.066922158,0.139848486,-0.077734448,-0.040944479,-0.00055342,-0.007104364,0.048964409,0.27841925,-0.837158202,0.468242836,0.342717558,0.420307457,-0.840170443,-1.474253654,34.46883392,-25.86693001,2,20501.83445
203.335,20.3335,1478282460,37.35289344,-122.0352152,46.87988,0.82,329.0625,6,10,1478282461,-0.834344864,31.79610062,-24.8332901,45.92633057,32.467659,10,20504.81236,0.316665649,0.398834229,-0.815994263,20504.80509,0.01424445,0.239746017,-0.084066142,20504.81008,-2.036427852,0.388501463,-0.433128752,0.108594269,0.174897254,-0.065649033,-0.030681405,-0.012303018,0.015172011,0.049800857,0.278409211,-0.83742645,0.467680583,0.343822271,0.419712692,-0.840016365,-1.474253654,34.46883392,-25.86693001,2,20501.83445
213.023,21.3023,1478282460,37.35289344,-122.0352152,46.87988,0.82,329.0625,6,10,1478282461,-0.834344864,31.79610062,-24.8332901,45.92633057,32.467659,10,20504.82205,0.324157715,0.389984131,-0.801773071,20504.81511,0.031530496,0.261202307,-0.046489205,20504.81008,-2.036427852,0.388501463,-0.433128752,0.108594269,0.174897254,-0.065649033,-0.030681405,-0.012303018,0.015172011,0.049800857,0.278409211,-0.83742645,0.467680583,0.343822271,0.419712692,-0.840016365,-1.474253654,34.46883392,-25.86693001,2,20501.83445
222.682,22.2682,1478282460,37.35289344,-122.0352152,46.87988,0.82,329.0625,6,10,1478282461,-0.834344864,32.07549286,-25.03440094,46.12338638,32.66471481,10,20504.83171,0.332992554,0.381118774,-0.814697266,20504.83507,-0.059844425,0.262725103,0.024009995,20504.84006,-2.036989127,0.393860514,-0.431499331,-0.011449549,0.154331759,0.027054524,-0.024423275,-0.028249044,0.0370191,0.052561589,0.279000348,-0.837485203,0.466920358,0.348580986,0.418233186,-0.838792145,-1.437224388,34.42871094,-25.92238998,2,20501.83445
232.682,23.2682,1478282460,37.35289344,-122.0352152,46.87988,0.82,329.0625,6,10,1478282461,-0.624803543,32.14533997,-24.8332901,45.73756409,32.27889252,10,20504.84171,0.330108643,0.375549316,-0.832901001,20504.83507,-0.059844425,0.262725103,0.024009995,20504.84006,-2.036989127,0.393860514,-0.431499331,-0.011449549,0.154331759,0.027054524,-0.024423275,-0.028249044,0.0370191,0.052561589,0.279000348,-0.837485203,0.466920358,0.348580986,0.418233186,-0.838792145,-1.437224388,34.42871094,-25.92238998,2,20501.83445
242.331,24.2331,1478282460,37.35289344,-122.0352152,46.87988,0.82,329.0625,6,10,1478282461,-0.624803543,32.14533997,-24.8332901,45.73756409,32.27889252,10,20504.85136,0.3228302,0.374160767,-0.831298828,20504.83507,-0.059844425,0.262725103,0.024009995,20504.84006,-2.036989127,0.393860514,-0.431499331,-0.011449549,0.154331759,0.027054524,-0.024423275,-0.028249044,0.0370191,0.052561589,0.279000348,-0.837485203,0.466920358,0.348580986,0.418233186,-0.838792145,-1.437224388,34.42871094,-25.92238998,2,20501.83445
252.017,25.2017,1478282460,37.35289344,-122.0352152,46.87988,0.82,329.0625,6,10,1478282461,-0.624803543,32.14533997,-24.8332901,45.73756409,32.27889252,10,20504.86104,0.319702148,0.384719849,-0.839736938,20504.84509,-0.128158502,0.212877651,0.017120397,20504.84006,-2.036989127,0.393860514,-0.431499331,-0.011449549,0.154331759,0.027054524,-0.024423275,-0.028249044,0.0370191,0.052561589,0.279000348,-0.837485203,0.466920358,0.348580986,0.418233186,-0.838792145,-1.437224388,34.42871094,-25.92238998,2,20501.83445
261.69,26.169,1478282460,37.35289344,-122.0352152,46.87988,0.82,329.0625,6,10,1478282461,-0.624803543,32.14533997,-24.8332901,45.73756409,32.27889252,10,20504.87072,0.330062866,0.402740479,-0.865386963,20504.85508,-0.184863061,0.176654666,-0.00991921,20504.86007,-2.036199581,0.396365866,-0.433137741,-0.118427612,0.088281304,-0.02162409,-0.030714195,-0.035000995,-0.002453953,0.053058986,0.280255689,-0.837170538,0.46667653,0.350416332,0.419720858,-0.837283015,-1.287135124,34.38481903,-25.988451,2,20501.83445
271.367,27.1367,1478282460,37.35289344,-122.0352152,46.87988,0.82,329.0625,6,10,1478282461,-0.624803543,32.14533997,-24.8332901,45.73756409,32.27889252,10,20504.88039,0.341659546,0.40713501,-0.884277344,20504.86507,-0.205300159,0.155258563,-0.038954057,20504.87006,-2.036049066,0.397103406,-0.434497233,-0.134557009,0.05845521,-0.04540693,-0.020749906,-0.018213926,-0.02888963,0.052980354,0.280970488,-0.83706249,0.466449412,0.350812763,0.420954406,-0.836497307,-1.229802132,34.43130875,-25.9296093,2,20501.83445
281.061,28.1061,1478282460,37.35289344,-122.0352152,46.87988,0.82,329.0625,6,10,1478282461,-0.624803543,32.14533997,-24.8332901,45.73756409,32.27889252,10,20504.89009,0.349243164,0.406005859,-0.876663208,20504.86507,-0.205300159,0.155258563,-0.038954057,20504.87006,-2.036049066,0.397103406,-0.434497233,-0.134557009,0.05845521,-0.04540693,-0.020749906,-0.018213926,-0.02888963,0.052980354,0.280970488,-0.83706249,0.466449412,0.350812763,0.420954406,-0.836497307,-1.229802132,34.43130875,-25.9296093,2,20501.83445
290.744,29.0744,1478282460,37.35289344,-122.0352152,46.87988,0.82,329.0625,6,10,1478282461,-0.624803543,32.14533997,-24.8332901,45.73756409,32.27889252,10,20504.89977,0.358413696,0.410705566,-0.85736084,20504.88505,-0.20543598,0.030033533,-0.078646875,20504.89005,-2.036349595,0.396422147,-0.437383496,-0.109030761,-0.075181529,-0.078785405,-0.000529066,-0.017564865,-0.041051321,0.051959989,0.281947185,-0.837035802,0.466022543,0.349772245,0.423570722,-0.83561188,-1.229802132,34.43130875,-25.9296093,2,20501.83445
300.422,30.0422,1478282460,37.35289344,-122.0352152,46.87988,0.82,329.0625,6,10,1478282461,-0.520029068,32.45965576,-24.59867096,45.70948792,32.25081635,10,20504.90945,0.349502563,0.40083313,-0.849212646,20504.89504,-0.171276944,-0.007040865,-0.083298885,20504.90004,-2.036803732,0.395404483,-0.438470129,-0.07595142,-0.079415634,-0.080971606,0.009669511,-0.013849247,-0.021818679,0.05130544,0.28212882,-0.837124114,0.465826468,0.348744184,0.424554825,-0.835542142,-1.287834167,34.52906799,-25.79645538,2,20501.83445
310.094,31.0094,1478282460,37.35289344,-122.0352152,46.87988,0.82,329.0625,6,10,1478282461,-0.520029068,32.45965576,-24.59867096,45.70948792,32.25081635,10,20504.91912,0.341751099,0.398254395,-0.839996338,20504.89504,-0.171276944,-0.007040865,-0.083298885,20504.90004,-2.036803732,0.395404483,-0.438470129,-0.07595142,-0.079415634,-0.080971606,0.009669511,-0.013849247,-0.021818679,0.05130544,0.28212882,-0.837124114,0.465826468,0.348744184,0.424554825,-0.835542142,-1.287834167,34.52906799,-25.79645538,2,20501.83445
319.798,31.9798,1478282460,37.35289344,-122.0352152,46.87988,0.82,329.0625,6,10,1478282461,-0.904193878,32.42473221,-24.36405182,45.69820023,32.23952866,10,20504.92882,0.351959229,0.411514282,-0.822723389,20504.91503,-0.130701555,0.033270605,-0.075430576,20504.91003,-2.037525936,0.394525589,-0.439317286,-0.048284799,-0.050889298,-0.091367535,-0.00612023,-0.027067285,-0.004480325,0.050811375,0.282241382,-0.837280282,0.46553167,0.347871333,0.425321668,-0.835516036,-1.287834167,34.52906799,-25.79645538,2,20501.83445
329.487,32.9487,1478282460,37.35289344,-122.0352152,46.87988,0.82,329.0625,6,10,1478282461,-0.904193878,32.42473221,-24.36405182,45.69820023,32.23952866,10,20504.93851,0.349075317,0.411697388,-0.831634521,20504.92502,-0.159331868,0.062100656,-0.039902942,20504.93001,-2.037876786,0.393926158,-0.441043352,-0.099238761,0.008776133,-0.036307491,0.004871086,-0.015368925,0.012321848,0.050145505,0.282776961,-0.837306205,0.465232133,0.347088128,0.426883221,-0.835045218,-1.287834167,34.52906799,-25.79645538,2,20501.83445
339.167,33.9167,1478282460,37.35289344,-122.0352152,46.87988,0.82,329.0625,6,10,1478282461,-0.904193878,32.42473221,-24.36405182,45.69820023,32.23952866,10,20504.94819,0.341751099,0.412750244,-0.836883545,20504.93501,-0.186130193,0.093745401,-0.054523962,20504.93001,-2.037876786,0.393926158,-0.441043352,-0.099238761,0.008776133,-0.036307491,0.004871086,-0.015368925,0.012321848,0.050145505,0.282776961,-0.837306205,0.465232133,0.347088128,0.426883221,-0.835045218,-1.287834167,34.52906799,-25.79645538,2,20501.83445
348.836,34.8836,1478282460,37.35289344,-122.0352152,46.87988,0.82,329.0625,6,10,1478282461,-0.904193878,32.42473221,-24.36405182,45.69820023,32.23952866,10,20504.95786,0.34463501,0.417892456,-0.826568604,20504.945,-0.193712212,0.0618133,-0.077262564,20504.94001,-2.03797962,0.39398425,-0.442278192,-0.113266207,0.005407549,-0.061959874,-0.005182938,-0.015249312,-0.002345856,0.049852125,0.28327711,-0.837277538,0.465010934,0.34693405,0.427999556,-0.834537685,-1.428537369,34.59874725,-25.69548416,2,20501.83445
358.519,35.8519,1478282460,37.35289344,-122.0352152,46.87988,0.82,329.0625,6,10,1478282461,-0.904193878,32.42473221,-24.36405182,45.69820023,32.23952866,10,20504.96755,0.343002319,0.417648315,-0.812515259,20504.945,-0.193712212,0.0618133,-0.077262564,20504.94999,-2.038297312,0.393541226,-0.443640864,-0.114430428,-0.044522036,-0.084881179,-0.001705307,-0.011338256,0.007583289,0.049345079,0.283706039,-0.837305521,0.464753065,0.346340328,0.42923072,-0.834151864,-1.428537369,34.59874725,-25.69548416,2,20501.83445
368.199,36.8199,1478282460,37.35289344,-122.0352152,46.87988,0.82,329.0625,6,10,1478282461,-0.974042892,32.49458313,-24.56516266,45.7028656,32.24419403,10,20504.97723,0.341567993,0.411865234,-0.793945313,20504.96499,-0.204589095,-0.05078009,-0.126433839,20504.95998,-2.038879015,0.392427097,-0.445114364,-0.118810348,-0.101888575,-0.111079231,-0.002166178,-0.012912788,0.021436686,0.048564885,0.28401669,-0.837405814,0.464464718,0.345168501,0.430561095,-0.83395195,-1.480635643,34.65462112,-25.61712456,2,20501.83445
377.887,37.7887,1478282460,37.35289344,-122.0352152,46.87988,0.82,329.0625,6,10,1478282461,-0.974042892,32.49458313,-24.56516266,45.7028656,32.24419403,10,20504.98691,0.334014893,0.405960083,-0.775360107,20504.97498,-0.235630634,-0.096473809,-0.147169744,20504.96999,-2.039636082,0.39067941,-0.446825466,-0.138124347,-0.155011475,-0.135095626,-0.001861427,-0.020239612,0.03992616,0.047480666,0.284270733,-0.837550433,0.464160542,0.343429416,0.432104856,-0.833871484,-1.480635643,34.65462112,-25.61712456,2,20501.83445
387.57,38.757,1478282460,37.35289344,-122.0352152,46.87988,0.82,329.0625,6,10,1478282461,-0.974042892,32.49458313,-24.56516266,45.7028656,32.24419403,10,20504.9966,0.327056885,0.411895752,-0.773300171,20504.97498,-0.235630634,-0.096473809,-0.147169744,20504.97996,-2.040443514,0.388489218,-0.448950793,-0.180900201,-0.193283349,-0.153618723,-0.007238728,-0.028060457,0.058409728,0.046107291,0.284586015,-0.837696672,0.463841788,0.341253608,0.434020549,-0.833769858,-1.480635643,34.65462112,-25.61712456,2,20501.83445
397.252,39.7252,1478282461,37.35289344,-122.0352152,47.53253,0,322.734375,4,10,1478282461,-0.79942131,32.59934998,-24.26351166,45.25358963,31.79491806,10,20505.00628,0.326797485,0.406860352,-0.768707275,20504.99497,-0.36194037,-0.191293796,-0.21961971,20504.98995,-2.041107335,0.386351057,-0.452021016,-0.244042769,-0.236967012,-0.187137157,-0.011909508,-0.024888711,0.059959162,0.044482013,0.285292277,-0.837762887,0.463446883,0.338966399,0.436784476,-0.833259344,-1.71863842,34.75510406,-25.46568298,2,20501.83445
406.953,40.6953,1478282461,37.35289344,-122.0352152,47.53253,0,322.734375,4,10,1478282461,-1.218507767,32.66919708,-24.1964798,45.63345718,32.17478561,10,20505.01598,0.336761475,0.406219482,-0.760528564,20505.00496,-0.471269258,-0.26714595,-0.305761786,20504.99996,-2.04223979,0.382959828,-0.455767565,-0.335119933,-0.309501976,-0.255101562,-0.00872735,-0.033291306,0.064173028,0.042218017,0.285967632,-0.837928293,0.462943116,0.335524827,0.440151662,-0.832880318,-1.71863842,34.75510406,-25.46568298,2,20501.83445
416.626,41.6626,1478282461,37.35289344,-122.0352152,47.53253,0,322.734375,4,10,1478282461,-1.218507767,32.66919708,-24.1964798,45.63345718,32.17478561,10,20505.02565,0.362045288,0.410919189,-0.753952026,20505.00496,-0.471269258,-0.26714595,-0.305761786,20505.00995,-2.043868302,0.378628722,-0.460898545,-0.451991051,-0.376963943,-0.351833165,0.005686247,-0.038533587,0.071687691,0.03926162,0.286967588,-0.838151919,0.462179066,0.331075221,0.444753081,-0.832216263,-1.71863842,34.75510406,-25.46568298,2,20501.83445
426.312,42.6312,1478282461,37.35289344,-122.0352152,47.53253,0,322.734375,4,10,1478282461,-1.218507767,32.66919708,-24.1964798,45.63345718,32.17478561,10,20505.03534,0.359802246,0.423065186,-0.736206055,20505.02494,-0.672129661,-0.381107939,-0.531050034,20505.01994,-2.046240549,0.373365742,-0.467432347,-0.555102587,-0.43396163,-0.466611952,0.03642147,-0.039676368,0.077271633,0.035649026,0.288300741,-0.838477743,0.461049786,0.32562381,0.450595558,-0.831223667,-2.185225487,34.99178314,-25.10322571,2,20501.83445
435.985,43.5985,1478282461,37.35289344,-122.0352152,47.53253,0,322.734375,4,10,1478282461,-1.218507767,32.66919708,-24.1964798,45.63345718,32.17478561,10,20505.04501,0.325302124,0.42980957,-0.712203979,20505.03493,-0.726176918,-0.373474521,-0.643055932,20505.02994,-2.04953739,0.367280573,-0.475135676,-0.627299786,-0.471914738,-0.585477352,0.040498454,-0.034393914,0.0937194,0.031518096,0.289903229,-0.838942227,0.459498279,0.319303781,0.457459092,-0.829925478,-2.185225487,34.99178314,-25.10322571,2,20501.83445
445.69,44.569,1478282461,37.35289344,-122.0352152,47.53253,0,322.734375,4,10,1478282461,-1.218507767,32.66919708,-24.1964798,45.63345718,32.17478561,10,20505.05472,0.289855957,0.432525635,-0.690872192,20505.03493,-0.726176918,-0.373474521,-0.643055932,20505.03993,-2.053893061,0.361101316,-0.483559656,-0.652518749,-0.382648617,-0.684925914,0.012505353,-0.035124071,0.116044104,0.027317771,0.291769938,-0.839574744,0.457425723,0.312796772,0.464933634,-0.828248084,-2.185225487,34.99178314,-25.10322571,2,20501.83445
455.374,45.5374,1478282461,37.35289344,-122.0352152,47.53253,0,322.734375,4,10,1478282461,-1.742368698,32.98351288,-23.8948288,46.22229767,32.7636261,10,20505.0644,0.245895386,0.528793335,-0.696899414,20505.05492,-0.686027367,0.221448236,-0.808962345,20505.04992,-2.059203125,0.35693239,-0.492132302,-0.628675044,-0.074016944,-0.760828376,-0.018081237,-0.039980583,0.134907782,0.024073435,0.294160644,-0.840350213,0.454644371,0.307937205,0.472506225,-0.825779974,-3.087965965,35.39173126,-24.43894196,2,20501.83445
465.057,46.5057,1478282461,37.35289344,-122.0352152,47.53253,0,322.734375,4,10,1478282461,-1.742368698,32.98351288,-23.8948288,46.22229767,32.7636261,10,20505.07408,0.274902344,0.566421509,-0.691268921,20505.06491,-0.725000866,0.565215195,-0.853535406,20505.05991,-2.065522146,0.356309936,-0.500675693,-0.607035756,0.335214466,-0.834650695,-0.060108423,0.048774928,0.125258714,0.022492676,0.29734662,-0.841279383,0.450919135,0.306003809,0.480018407,-0.822158158,-3.087965965,35.39173126,-24.43894196,2,20501.83445
474.74,47.474,1478282461,37.35289344,-122.0352152,47.53253,0,322.734375,4,10,1478282461,-2.126533508,33.4375267,-23.72722626,47.1757431,33.71707153,10,20505.08377,0.321380615,0.561569214,-0.656707764,20505.06491,-0.725000866,0.565215195,-0.853535406,20505.06991,-2.071936235,0.358725924,-0.510073017,-0.722707689,0.618718803,-0.861661494,-0.031489629,0.078180537,0.125887558,0.02200222,0.301558721,-0.842111475,0.446571946,0.306391984,0.488240957,-0.817156494,-3.087965965,35.39173126,-24.43894196,2,20501.83445
484.419,48.4419,1478282461,37.35289344,-122.0352152,47.53253,0,322.734375,4,10,1478282461,-2.825014114,34.1360054,-22.8557663,50.93588638,37.47721481,10,20505.09345,0.307937622,0.551742554,-0.634338379,20505.0749,-0.895220801,0.868694918,-0.896345188,20505.0799,-2.078320056,0.364494067,-0.521304745,-0.893219292,0.99497509,-0.943239748,0.012254713,0.063557215,0.153492972,0.022466423,0.307237519,-0.842747847,0.441448108,0.3091259,0.498012006,-0.810200751,-3.798727989,35.77204132,-23.77609444,2,20501.83445
494.108,49.4108,1478282461,37.35289344,-122.0352152,47.53253,0,322.734375,4,10,1478282461,-2.825014114,34.1360054,-22.8557663,50.93588638,37.47721481,10,20505.10313,0.259368896,0.551040649,-0.632049561,20505.09488,-0.947905851,1.771789622,-1.193643448,20505.09988,-2.095411501,0.387274163,-0.546008786,-0.809269965,1.929942727,-1.234914184,-0.014817084,0.032462087,0.15697521,0.028347014,0.321775779,-0.844525565,0.427122189,0.322754711,0.519280493,-0.791313589,-3.798727989,35.77204132,-23.77609444,2,20501.83445
503.789,50.3789,1478282461,37.35289344,-122.0352152,47.53253,0,322.734375,4,10,1478282461,-2.825014114,34.1360054,-22.8557663,50.93588638,37.47721481,10,20505.11282,0.274749756,0.555801392,-0.638916016,20505.10488,-0.831221845,2.246834177,-1.25081406,20505.10987,-2.105471653,0.404808575,-0.557526155,-0.713525891,2.3980515,-1.224891424,-0.074832954,0.021952052,0.14793402,0.034425045,0.329883508,-0.845584671,0.418304138,0.334201843,0.529088616,-0.77998358,-3.798727989,35.77204132,-23.77609444,2,20501.83445
513.476,51.3476,1478282461,37.35289344,-122.0352152,47.53253,0,322.734375,4,10,1478282461,-2.825014114,34.1360054,-22.8557663,50.93588638,37.47721481,10,20505.1225,0.322402954,0.553848267,-0.638717651,20505.10488,-0.831221845,2.246834177,-1.25081406,20505.10987,-2.105471653,0.404808575,-0.557526155,-0.713525891,2.3980515,-1.224891424,-0.074832954,0.021952052,0.14793402,0.034425045,0.329883508,-0.845584671,0.418304138,0.334201843,0.529088616,-0.77998358,-3.798727989,35.77204132,-23.77609444,2,20501.83445
523.16,52.316,1478282461,37.35289344,-122.0352152,47.53253,0,322.734375,4,10,1478282461,-2.825014114,34.1360054,-22.8557663,50.93588638,37.47721481,10,20505.13219,0.383529663,0.527038574,-0.66633606,20505.11485,-0.762918154,2.691988744,-1.191906268,20505.10987,-2.105471653,0.404808575,-0.557526155,-0.713525891,2.3980515,-1.224891424,-0.074832954,0.021952052,0.14793402,0.034425045,0.329883508,-0.845584671,0.418304138,0.334201843,0.529088616,-0.77998358,-3.798727989,35.77204132,-23.77609444,2,20501.83445
532.841,53.2841,1478282461,37.35289344,-122.0352152,47.53253,0,322.734375,4,10,1478282461,-2.825014114,34.1360054,-22.8557663,50.93588638,37.47721481,10,20505.14187,0.43661499,0.500656128,-0.695648193,20505.12484,-0.726482915,3.035568216,-1.121201205,20505.12986,-2.123475654,0.452194112,-0.578924302,-0.64598465,3.04918313,-1.087045193,0.017788164,-0.020085264,0.086584032,0.05203863,0.347608884,-0.846761654,0.399317852,0.365741491,0.547123849,-0.752920091,-3.932794571,36.37585449,-22.81890869,2,20501.83445
542.528,54.2528,1478282461,37.35289344,-122.0352152,47.53253,0,322.734375,4,10,1478282461,-3.244102478,34.76464081,-22.18540955,53.62754822,40.16887665,10,20505.15155,0.473007202,0.502182007,-0.752868652,20505.13486,-0.72415398,3.185241065,-1.068451974,20505.13985,-2.13125528,0.479118486,-0.589512266,-0.665044606,3.142625093,-1.048734903,0.053428698,-0.05529955,0.041970644,0.062105276,0.35683822,-0.846799075,0.389539144,0.383186281,0.555955708,-0.737618864,-3.46625042,36.59048462,-22.54980469,2,20501.83445
552.213,55.2213,1478282461,37.35289344,-122.0352152,47.53253,0,322.734375,4,10,1478282461,-3.244102478,34.76464081,-22.18540955,53.62754822,40.16887665,10,20505.16124,0.485656738,0.536804199,-0.749191284,20505.13486,-0.72415398,3.185241065,-1.068451974,20505.13985,-2.13125528,0.479118486,-0.589512266,-0.665044606,3.142625093,-1.048734903,0.053428698,-0.05529955,0.041970644,0.062105276,0.35683822,-0.846799075,0.389539144,0.383186281,0.555955708,-0.737618864,-3.46625042,36.59048462,-22.54980469,2,20501.83445
561.881,56.1881,1478282461,37.35289344,-122.0352152,47.53253,0,322.734375,4,10,1478282461,-2.859941483,35.35835266,-21.54856873,58.68224716,45.22357559,10,20505.17091,0.459564209,0.533874512,-0.75239563,20505.15484,-0.925605605,3.204563098,-1.018029812,20505.15984,-2.143340147,0.535088235,-0.613402598,-0.890146613,3.138416529,-1.029503107,0.068700694,-0.038848873,-0.04579154,0.081907018,0.376286286,-0.845454366,0.37000917,0.416956037,0.575653076,-0.703399718,-3.46625042,36.59048462,-22.54980469,2,20501.83445
571.583,57.1583,1478282461,37.35289344,-122.0352152,47.53253,0,322.734375,4,10,1478282461,-2.859941483,35.35835266,-21.54856873,58.68224716,45.22357559,10,20505.18061,0.447494507,0.504943848,-0.778961182,20505.16483,-0.983593275,3.267703718,-1.067556352,20505.16983,-2.148897843,0.564095917,-0.626743947,-0.899235725,3.264929056,-1.104026675,0.026527347,-0.052636147,-0.067936487,0.091816614,0.386445515,-0.844310298,0.359679989,0.433036864,0.586510658,-0.68445915,-2.505234718,37.00179291,-21.99916458,2,20501.83445
581.268,58.1268,1478282461,37.35289344,-122.0352152,47.53253,0,322.734375,4,10,1478282461,-2.859941483,35.35835266,-21.54856873,58.68224716,45.22357559,10,20505.19029,0.444747925,0.497711182,-0.81262207,20505.16483,-0.983593275,3.267703718,-1.067556352,20505.16983,-2.148897843,0.564095917,-0.626743947,-0.899235725,3.264929056,-1.104026675,0.026527347,-0.052636147,-0.067936487,0.091816614,0.386445515,-0.844310298,0.359679989,0.433036864,0.586510658,-0.68445915,-2.505234718,37.00179291,-21.99916458,2,20501.83445
590.938,59.0938,1478282461,37.35289344,-122.0352152,47.53253,0,322.734375,4,10,1478282461,-2.859941483,35.35835266,-21.54856873,58.68224716,45.22357559,10,20505.19996,0.481384277,0.489089966,-0.796783447,20505.18481,-0.916400123,3.548301294,-1.216347695,20505.18981,-2.161691317,0.624945729,-0.654123988,-0.843710363,3.490497828,-1.248030663,-0.019539375,-0.110753112,-0.169031739,0.113009118,0.40673551,-0.841595376,0.336915994,0.464287311,0.608464301,-0.643590331,-2.505234718,37.00179291,-21.99916458,2,20501.83445
600.636,60.0636,1478282461,37.35289344,-122.0352152,47.53253,0,322.734375,4,10,1478282461,-2.336078644,35.67266846,-21.04581451,61.4675293,48.00885773,10,20505.20966,0.524871826,0.473068237,-0.760101318,20505.19481,-0.922225255,3.567845701,-1.295150898,20505.1998,-2.168757434,0.655465318,-0.668635095,-0.818642855,3.489846706,-1.339855909,0.003106687,-0.130825594,-0.174726188,0.123584703,0.416771148,-0.839996869,0.324705853,0.478277594,0.619915545,-0.622057259,-1.619832993,37.49211121,-21.23887253,2,20501.83445
610.32,61.032,1478282461,37.35289344,-122.0352152,47.53253,0,322.734375,4,10,1478282461,-2.336078644,35.67266846,-21.04581451,61.4675293,48.00885773,10,20505.21935,0.535797119,0.493560791,-0.757400513,20505.19481,-0.922225255,3.567845701,-1.295150898,20505.1998,-2.168757434,0.655465318,-0.668635095,-0.818642855,3.489846706,-1.339855909,0.003106687,-0.130825594,-0.174726188,0.123584703,0.416771148,-0.839996869,0.324705853,0.478277594,0.619915545,-0.622057259,-1.619832993,37.49211121,-21.23887253,2,20501.83445
620.003,62.0003,1478282461,37.35289344,-122.0352152,47.53253,0,322.734375,4,10,1478282461,-2.336078644,35.67266846,-21.04581451,61.4675293,48.00885773,10,20505.22903,0.509963989,0.524719238,-0.733428955,20505.21479,-0.827025768,3.562607796,-1.440419411,20505.20979,-2.176782081,0.685515523,-0.683267845,-0.742270708,3.515801191,-1.416480422,0.044840943,-0.137769863,-0.157080889,0.134143677,0.426433659,-0.838368156,0.311927304,0.490956187,0.631330669,-0.600319624,-1.619832993,37.49211121,-21.23887253,2,20501.83445
629.686,62.9686,1478282461,37.35289344,-122.0352152,47.53253,0,322.734375,4,10,1478282461,-1.637598038,36.30130005,-20.30841827,66.99417877,53.5355072,10,20505.23871,0.475875854,0.480575562,-0.701675415,20505.22476,-0.911461823,3.380138384,-1.483869417,20505.22975,-2.191841375,0.742603876,-0.714721356,-0.870603621,3.170993567,-1.504255772,-0.000759994,-0.130687743,-0.177009434,0.153255171,0.44531235,-0.834418873,0.286277677,0.510724008,0.655407012,-0.556419551,-1.011142731,37.93063354,-20.48455238,2,20501.83445
639.367,63.9367,1478282461,37.35289344,-122.0352152,47.53253,0,322.734375,4,10,1478282461,-0.869270325,36.6505394,-19.23584747,72.16867065,58.70999908,10,20505.24839,0.437942505,0.510101318,-0.687530518,20505.24477,-0.929122576,2.890010217,-1.469579161,20505.23977,-2.198371036,0.7680465,-0.731585358,-0.891752064,2.914743662,-1.505760789,-0.041085117,-0.187474608,-0.166455522,0.161004471,0.454387076,-0.832192216,0.273981863,0.516960979,0.66805017,-0.535219908,-1.011142731,37.93063354,-20.48455238,2,20501.83445
649.052,64.9052,1478282461,37.35289344,-122.0352152,47.53253,0,322.734375,4,10,1478282461,-0.869270325,36.6505394,-19.23584747,72.16867065,58.70999908,10,20505.25808,0.499313354,0.615890503,-0.716064453,20505.24477,-0.929122576,2.890010217,-1.469579161,20505.23977,-2.198371036,0.7680465,-0.731585358,-0.891752064,2.914743662,-1.505760789,-0.041085117,-0.187474608,-0.166455522,0.161004471,0.454387076,-0.832192216,0.273981863,0.516960979,0.66805017,-0.535219908,-1.011142731,37.93063354,-20.48455238,2,20501.83445
658.735,65.8735,1478282461,37.35289344,-122.0352152,47.53253,0,322.734375,4,10,1478282461,-0.869270325,36.6505394,-19.23584747,72.16867065,58.70999908,10,20505.26776,0.586242676,0.669036865,-0.745925903,20505.25473,-0.848425599,2.632225811,-1.39746209,20505.25973,-2.210194204,0.812317454,-0.762769944,-0.7283234,2.412833452,-1.376335859,-0.025445662,-0.075036049,-0.218823597,0.174105542,0.470177447,-0.827874625,0.251483667,0.524758995,0.690926552,-0.497240871,-1.011142731,37.93063354,-20.48455238,2,20501.83445
668.401,66.8401,1478282461,37.35289344,-122.0352152,47.53253,0,322.734375,4,10,1478282461,-0.869270325,36.6505394,-19.23584747,72.16867065,58.70999908,10,20505.27743,0.6615448,0.702529907,-0.724349976,20505.26475,-0.774383862,2.308425103,-1.376183966,20505.25973,-2.210194204,0.812317454,-0.762769944,-0.7283234,2.412833452,-1.376335859,-0.025445662,-0.075036049,-0.218823597,0.174105542,0.470177447,-0.827874625,0.251483667,0.524758995,0.690926552,-0.497240871,-1.011142731,37.93063354,-20.48455238,2,20501.83445
678.101,67.8101,1478282461,37.35289344,-122.0352152,47.53253,0,322.734375,4,10,1478282461,-0.869270325,36.6505394,-19.23584747,72.16867065,58.70999908,10,20505.28713,0.681655884,0.732131958,-0.679336548,20505.27474,-0.6994489,1.825438735,-1.405616423,20505.26975,-2.216309338,0.829186698,-0.777453534,-0.663955629,1.999920726,-1.378371239,0.136010915,0.001063083,-0.242937028,0.178751676,0.476803274,-0.826094179,0.241401914,0.525533855,0.701466799,-0.481412947,-0.961490631,38.53759384,-19.32100868,2,20501.83445
687.781,68.7781,1478282461,37.35289344,-122.0352152,47.53253,0,322.734375,4,10,1478282461,-0.415260315,37.17439651,-18.33087921,73.49205017,60.0333786,10,20505.29681,0.660888672,0.730651855,-0.625076294,20505.28473,-0.589534383,1.310379386,-1.480219022,20505.28973,-2.23258363,0.844816403,-0.806356837,-0.463324726,0.983588815,-1.523162484,0.164045081,0.01036154,-0.219851479,0.181698708,0.487076018,-0.824410659,0.223807052,0.517610788,0.721770406,-0.459485054,-0.961490631,38.53759384,-19.32100868,2,20501.83445
697.453,69.7453,1478282461,37.35289344,-122.0352152,47.53253,0,322.734375,4,10,1478282461,-0.415260315,37.17439651,-18.33087921,73.49205017,60.0333786,10,20505.30648,0.62512207,0.720504761,-0.558044434,20505.29473,-0.495777797,0.829049238,-1.574762306,20505.28973,-2.23258363,0.844816403,-0.806356837,-0.463324726,0.983588815,-1.523162484,0.164045081,0.01036154,-0.219851479,0.181698708,0.487076018,-0.824410659,0.223807052,0.517610788,0.721770406,-0.459485054,-0.961490631,38.53759384,-19.32100868,2,20501.83445
707.152,70.7152,1478282461,37.35289344,-122.0352152,47.53253,0,322.734375,4,10,1478282461,-0.415260315,37.17439651,-18.33087921,73.49205017,60.0333786,10,20505.31618,0.577545166,0.704406738,-0.509933472,20505.30472,-0.420202878,0.480146373,-1.65729287,20505.29973,-2.24366309,0.843278867,-0.820880411,-0.374931782,0.554156542,-1.615047097,0.116101354,-0.01124142,-0.104783535,0.180058893,0.490864897,-0.824602112,0.216013437,0.509020686,0.731746197,-0.453260899,-1.700458527,38.81877899,-18.69713783,2,20501.83445
716.836,71.6836,1478282461,37.35289344,-122.0352152,47.53253,0,322.734375,4,10,1478282461,-1.567750931,38.0474968,-16.7555542,77.09739685,63.63872528,10,20505.32586,0.557403564,0.693435669,-0.424575806,20505.31469,-0.402280869,0.28487488,-1.721181838,20505.31969,-2.270285062,0.828790893,-0.850564241,-0.337007463,0.15930979,-1.752477169,0.091374338,-0.047245938,-0.064224839,0.173139703,0.497160263,-0.826040853,0.201273013,0.486170828,0.751652658,-0.445708632,-1.700458527,38.81877899,-18.69713783,2,20501.83445
726.513,72.6513,1478282461,37.35289344,-122.0352152,47.53253,0,322.734375,4,10,1478282461,-1.567750931,38.0474968,-16.7555542,77.09739685,63.63872528,10,20505.33554,0.531417847,0.684997559,-0.340667725,20505.32471,-0.435816725,0.223907932,-1.803990701,20505.31969,-2.270285062,0.828790893,-0.850564241,-0.337007463,0.15930979,-1.752477169,0.091374338,-0.047245938,-0.064224839,0.173139703,0.497160263,-0.826040853,0.201273013,0.486170828,0.751652658,-0.445708632,-1.700458527,38.81877899,-18.69713783,2,20501.83445
736.205,73.6205,1478282461,37.35289344,-122.0352152,47.53253,0,322.734375,4,10,1478282461,-1.567750931,38.0474968,-16.7555542,77.09739685,63.63872528,10,20505.34523,0.512283325,0.638931274,-0.256561279,20505.3347,-0.496388992,0.247289954,-1.933985453,20505.3297,-2.285102392,0.819071801,-0.8664976,-0.386737496,0.15428552,-1.858206034,0.05841146,-0.077068254,0.101509452,0.168834338,0.500406214,-0.82678974,0.19366805,0.473006397,0.762065828,-0.442177176,-3.421985626,38.88871002,-18.31202698,2,20501.83445
745.889,74.5889,1478282461,37.35289344,-122.0352152,47.53253,0,322.734375,4,10,1478282461,-1.567750931,38.0474968,-16.7555542,77.09739685,63.63872528,10,20505.35492,0.506271362,0.533889771,-0.178741455,20505.34467,-0.501727565,0.29050933,-2.106498104,20505.34966,-2.320420597,0.795683092,-0.901722631,-0.359710842,0.224202707,-2.147892714,0.069205925,-0.14546527,0.177494556,0.15939075,0.507510269,-0.828194318,0.176414535,0.443077415,0.784396529,-0.434055835,-3.421985626,38.88871002,-18.31202698,2,20501.83445
755.565,75.5565,1478282461,37.35289344,-122.0352152,47.53253,0,322.734375,4,10,1478282461,-1.567750931,38.0474968,-16.7555542,77.09739685,63.63872528,10,20505.36459,0.425704956,0.589202881,-0.143920898,20505.35468,-0.339867825,0.342058008,-2.163670314,20505.34966,-2.320420597,0.795683092,-0.901722631,-0.359710842,0.224202707,-2.147892714,0.069205925,-0.14546527,0.177494556,0.15939075,0.507510269,-0.828194318,0.176414535,0.443077415,0.784396529,-0.434055835,-3.421985626,38.88871002,-18.31202698,2,20501.83445
765.256,76.5256,1478282461,37.35289344,-122.0352152,47.53253,0,322.734375,4,10,1478282461,-1.567750931,38.0474968,-16.7555542,77.09739685,63.63872528,10,20505.37428,0.310943604,0.545974731,-0.241714478,20505.36467,-0.107071859,0.509754066,-2.123609447,20505.35968,-2.34278448,0.781034161,-0.918424338,-0.147399426,0.339710712,-2.148920059,-0.001683084,-0.205443189,0.287213773,0.154986618,0.510305613,-0.829285492,0.166891886,0.427388042,0.794646084,-0.431134671,-5.625411034,38.83596802,-17.87441063,2,20501.83445
774.939,77.4939,1478282461,37.35289344,-122.0352152,47.53253,0,322.734375,4,10,1478282461,-2.859937668,37.94272232,-16.18575287,78.73023987,65.2715683,10,20505.38397,0.155685425,0.568206787,-0.338256836,20505.36467,-0.107071859,0.509754066,-2.123609447,20505.36967,-2.36785828,0.765649317,-0.932825363,0.073986605,0.500382841,-2.054480076,-0.101787277,-0.257331103,0.187648952,0.151605383,0.512185604,-0.830675658,0.157033967,0.412730873,0.803305864,-0.42936343,-5.625411034,38.83596802,-17.87441063,2,20501.83445
784.622,78.4622,1478282461,37.35289344,-122.0352152,47.53253,0,322.734375,4,10,1478282461,-2.859937668,37.94272232,-16.18575287,78.73023987,65.2715683,10,20505.39365,0.101638794,0.650375366,-0.431243896,20505.37467,0.063630642,0.660468211,-1.938512028,20505.37966,-2.392108762,0.753002409,-0.944493643,0.13744539,0.803280711,-1.75466013,-0.245145202,-0.241993442,0.089423411,0.14986293,0.513518236,-0.831916502,0.14749596,0.400830626,0.810200214,-0.427680254,-7.129991531,38.59774017,-17.85356331,2,20501.83445
794.305,79.4305,1478282461,37.35289344,-122.0352152,47.53253,0,322.734375,4,10,1478282461,-4.25689888,38.08242035,-15.85058594,82.6765213,69.21784973,10,20505.40333,0.148086548,0.728759766,-0.525100708,20505.39463,-0.288269345,2.249258985,-0.953071585,20505.39965,-2.415998904,0.771776708,-0.961590197,-0.397699922,2.712470293,-0.66773206,-0.297430575,-0.169727176,-0.021151885,0.159927194,0.519015691,-0.829736401,0.128776977,0.399069369,0.820102513,-0.410091996,-7.129991531,38.59774017,-17.85356331,2,20501.83445
803.983,80.3983,1478282461,37.35289344,-122.0352152,47.53253,0,322.734375,4,10,1478282461,-4.25689888,38.08242035,-15.85058594,82.6765213,69.21784973,10,20505.41301,0.259429932,0.770645142,-0.511352539,20505.40464,-0.659490299,3.223804703,-0.425394178,20505.40964,-2.411869443,0.808053931,-0.96853839,-0.734071851,3.437519073,-0.236521006,-0.261464536,-0.095298819,-0.133698925,0.172271981,0.52404339,-0.825498031,0.119389662,0.409551084,0.824058592,-0.391401768,-7.862756729,38.31658173,-18.14906883,2,20501.83445
813.673,81.3673,1478282461,37.35289344,-122.0352152,47.53253,0,322.734375,4,10,1478282461,-5.060148239,38.18719482,-15.68299103,85.82423401,72.36556244,10,20505.4227,0.38041687,0.816650391,-0.446731567,20505.40464,-0.659490299,3.223804703,-0.425394178,20505.40964,-2.411869443,0.808053931,-0.96853839,-0.734071851,3.437519073,-0.236521006,-0.261464536,-0.095298819,-0.133698925,0.172271981,0.52404339,-0.825498031,0.119389662,0.409551084,0.824058592,-0.391401768,-7.862756729,38.31658173,-18.14906883,2,20501.83445
823.338,82.3338,1478282461,37.35289344,-122.0352152,47.53253,0,322.734375,4,10,1478282461,-5.060148239,38.18719482,-15.68299103,85.82423401,72.36556244,10,20505.43236,0.454071045,0.867904663,-0.378326416,20505.41463,-0.921681171,3.643008363,-0.125389081,20505.40964,-2.411869443,0.808053931,-0.96853839,-0.734071851,3.437519073,-0.236521006,-0.261464536,-0.095298819,-0.133698925,0.172271981,0.52404339,-0.825498031,0.119389662,0.409551084,0.824058592,-0.391401768,-7.862756729,38.31658173,-18.14906883,2,20501.83445
833.035,83.3035,1478282461,37.35289344,-122.0352152,47.53253,0,322.734375,4,10,1478282461,-5.060148239,38.18719482,-15.68299103,85.82423401,72.36556244,10,20505.44206,0.491744995,0.928100586,-0.371444702,20505.42462,-0.998132537,3.586223377,-0.066156117,20505.42962,-2.390029395,0.896264705,-0.98151489,-0.896491945,3.391882181,-0.093882382,0.020019768,0.036564417,-0.031234374,0.199593729,0.535365597,-0.81436422,0.101769048,0.434051275,0.831340253,-0.347092032,-7.862756729,38.31658173,-18.14906883,2,20501.83445
842.712,84.2712,1478282461,37.35289344,-122.0352152,47.53253,0,322.734375,4,10,1478282461,-5.060148239,38.18719482,-15.68299103,85.82423401,72.36556244,10,20505.45174,0.494369507,1.015090942,-0.414993286,20505.43462,-0.927991265,3.348484051,-0.149702144,20505.43961,-2.380214852,0.936278739,-0.987891387,-0.789120674,3.104193926,-0.205697611,0.048434611,0.093233436,-0.045143072,0.211643502,0.540422255,-0.808974121,0.093336414,0.44331038,0.83486712,-0.326301634,-6.191656113,38.71988678,-17.93894005,2,20501.83445
852.391,85.2391,1478282461,37.35289344,-122.0352152,47.53253,0,322.734375,4,10,1478282461,-5.060148239,38.18719482,-15.68299103,85.82423401,72.36556244,10,20505.46142,0.421051025,1.076934814,-0.402252197,20505.43462,-0.927991265,3.348484051,-0.149702144,20505.43961,-2.380214852,0.936278739,-0.987891387,-0.789120674,3.104193926,-0.205697611,0.048434611,0.093233436,-0.045143072,0.211643502,0.540422255,-0.808974121,0.093336414,0.44331038,0.83486712,-0.326301634,-6.191656113,38.71988678,-17.93894005,2,20501.83445
862.065,86.2065,1478282461,37.35289344,-122.0352152,47.53253,0,322.734375,4,10,1478282462,-5.269693375,38.53643417,-15.34781647,89.67947388,76.22080231,10,20505.47109,0.38394165,1.093521118,-0.420974731,20505.4546,-0.611616516,2.316644417,-0.397167067,20505.4596,-2.370318996,0.992470123,-1.000283206,-0.416822106,1.9234519,-0.40343067,-0.031187074,0.235310853,-0.107040755,0.228492118,0.547891987,-0.800881152,0.07870898,0.452238113,0.841623962,-0.295211434,-6.191656113,38.71988678,-17.93894005,2,20501.83445
871.754,87.1754,1478282461,37.35289344,-122.0352152,47.53253,0,322.734375,4,10,1478282462,-5.269693375,38.60628128,-15.34781647,90.70763397,77.2489624,10,20505.48078,0.375747681,1.035598755,-0.442703247,20505.4646,-0.374077993,1.73030929,-0.380706867,20505.46959,-2.370068351,1.007897763,-1.004492726,-0.182120144,1.394788861,-0.318064123,-0.069796614,0.249631211,-0.134668246,0.233533724,0.549826118,-0.79860036,0.073421424,0.453738272,0.843889892,-0.286306471,-5.118974686,39.02116394,-17.62149048,2,20501.83445
881.438,88.1438,1478282461,37.35289344,-122.0352152,47.53253,0,322.734375,4,10,1478282462,-5.269693375,38.60628128,-15.34781647,90.70763397,77.2489624,10,20505.49046,0.389953613,0.944488525,-0.367706299,20505.4646,-0.374077993,1.73030929,-0.380706867,20505.46959,-2.370068351,1.007897763,-1.004492726,-0.182120144,1.394788861,-0.318064123,-0.069796614,0.249631211,-0.134668246,0.233533724,0.549826118,-0.79860036,0.073421424,0.453738272,0.843889892,-0.286306471,-5.118974686,39.02116394,-17.62149048,2,20501.83445
891.125,89.1125,1478282461,37.35289344,-122.0352152,47.53253,0,322.734375,4,10,1478282462,-5.269693375,38.60628128,-15.34781647,90.70763397,77.2489624,10,20505.50015,0.483139038,0.813751221,-0.253189087,20505.48458,0.009183911,0.839945828,0.043677972,20505.48957,-2.371774016,1.024084155,-1.004394806,0.132155597,0.701997757,0.199070618,-0.068429865,0.100651152,-0.088738434,0.240483297,0.550167111,-0.796753869,0.068316956,0.458383471,0.84383738,-0.278967857,-5.118974686,39.02116394,-17.62149048,2,20501.83445
900.823,90.0823,1478282461,37.35289344,-122.0352152,47.53253,0,322.734375,4,10,1478282462,-5.269693375,38.60628128,-15.34781647,90.70763397,77.2489624,10,20505.50985,0.545471191,0.769378662,-0.106140137,20505.49457,0.069653114,0.82726705,0.336053379,20505.49956,-2.370090089,1.033868849,-1.000212811,0.128261209,0.926304996,0.470359623,0.019019622,-0.027834726,0.023082988,0.244974664,0.549410025,-0.795980417,0.067462679,0.464119405,0.841585934,-0.276272088,-4.690898895,39.02910614,-17.72276497,2,20501.83445
910.506,91.0506,1478282461,37.35289344,-122.0352152,47.53253,0,322.734375,4,10,1478282462,-5.269693375,38.60628128,-15.34781647,90.70763397,77.2489624,10,20505.51953,0.525756836,0.777420044,-0.123733521,20505.49457,0.069653114,0.82726705,0.336053379,20505.49956,-2.370090089,1.033868849,-1.000212811,0.128261209,0.926304996,0.470359623,0.019019622,-0.027834726,0.023082988,0.244974664,0.549410025,-0.795980417,0.067462679,0.464119405,0.841585934,-0.276272088,-4.690898895,39.02910614,-17.72276497,2,20501.83445
920.175,92.0175,1478282461,37.35289344,-122.0352152,47.53253,0,322.734375,4,10,1478282462,-5.269693375,38.60628128,-15.34781647,90.70763397,77.2489624,10,20505.5292,0.592727661,0.692474365,-0.408554077,20505.51455,-0.182528534,2.135936953,0.646071695,20505.51955,-2.356689187,1.081665187,-0.989932984,-0.218941927,2.391526222,0.619704068,0.041356105,-0.058569163,0.134099722,0.262876297,0.549526553,-0.790571296,0.062559143,0.484400719,0.835989177,-0.257833242,-4.690898895,39.02910614,-17.72276497,2,20501.83445
929.869,92.9869,1478282461,37.35289344,-122.0352152,47.53253,0,322.734375,4,10,1478282462,-4.466440201,38.92059708,-15.11319733,91.09911346,77.64044189,10,20505.5389,0.664199829,0.566772461,-0.676483154,20505.52455,-0.434230813,2.586258319,0.563124081,20505.52954,-2.345005284,1.115693058,-0.987142824,-0.535494328,2.351425886,0.513690293,0.097742319,-0.141980499,-0.166325703,0.273794593,0.551291512,-0.785925705,0.058608672,0.494985342,0.834454894,-0.242228374,-3.241779327,39.09421539,-17.90266037,2,20501.83445
939.554,93.9554,1478282461,37.35289344,-122.0352152,47.53253,0,322.734375,4,10,1478282462,-4.466440201,38.92059708,-15.11319733,91.09911346,77.64044189,10,20505.54858,0.707366943,0.554641724,-0.848358154,20505.52455,-0.434230813,2.586258319,0.563124081,20505.52954,-2.345005284,1.115693058,-0.987142824,-0.535494328,2.351425886,0.513690293,0.097742319,-0.141980499,-0.166325703,0.273794593,0.551291512,-0.785925705,0.058608672,0.494985342,0.834454894,-0.242228374,-3.241779327,39.09421539,-17.90266037,2,20501.83445
949.236,94.9236,1478282461,37.35289344,-122.0352152,47.53253,0,322.734375,4,10,1478282462,-4.466440201,38.92059708,-15.11319733,91.09911346,77.64044189,10,20505.55826,0.677658081,0.686462402,-0.621200562,20505.54453,-1.303145441,0.608329376,0.463378045,20505.53954,-2.327168643,1.146358363,-0.986594493,-0.984310925,1.265540719,0.459109336,0.204770595,-0.279510856,-0.621231735,0.281021945,0.554493887,-0.781205489,0.057281592,0.502596378,0.834152579,-0.22712639,-3.241779327,39.09421539,-17.90266037,2,20501.83445
958.917,95.8917,1478282461,37.35289344,-122.0352152,47.53253,0,322.734375,4,10,1478282462,-2.266227722,39.30475998,-13.80600739,90.72372437,77.2650528,10,20505.56794,0.57472229,0.801940918,-0.284698486,20505.55451,-1.699935938,-0.940784026,0.477787079,20505.5595,-2.270283968,1.183163903,-0.989568934,-1.701502204,-1.346740723,0.476782858,0.169343799,-0.14932698,-0.413660944,0.278618944,0.564448109,-0.774027005,0.068205661,0.508314312,0.835789382,-0.207539633,-1.996604919,39.46466446,-17.26053238,2,20501.83445
968.572,96.8572,1478282461,37.35289344,-122.0352152,47.53253,0,322.734375,4,10,1478282462,-2.266227722,39.30475998,-13.80600739,90.72372437,77.2650528,10,20505.5776,0.518218994,0.911895752,-0.235931396,20505.56452,-1.771278028,-1.179073826,0.474340415,20505.5595,-2.270283968,1.183163903,-0.989568934,-1.701502204,-1.346740723,0.476782858,0.169343799,-0.14932698,-0.413660944,0.278618944,0.564448109,-0.774027005,0.068205661,0.508314312,0.835789382,-0.207539633,-1.996604919,39.46466446,-17.26053238,2,20501.83445
978.28,97.828,1478282461,37.35289344,-122.0352152,47.53253,0,322.734375,4,10,1478282462,-2.266227722,39.30475998,-13.80600739,90.72372437,77.2650528,10,20505.58731,0.503067017,0.952514648,-0.313354492,20505.57451,-1.631081772,-0.327739256,0.473261036,20505.56951,-2.238945577,1.198668338,-0.991261907,-1.627120495,-0.885019183,0.483544081,0.008067001,0.075178042,-0.036812287,0.27525147,0.569804416,-0.770633361,0.075390835,0.510151982,0.836717725,-0.199119106,-1.996604919,39.46466446,-17.26053238,2,20501.83445
987.963,98.7963,1478282461,37.35289344,-122.0352152,47.53253,0,322.734375,4,10,1478282462,-2.266227722,39.30475998,-13.80600739,90.72372437,77.2650528,10,20505.59699,0.50819397,0.933868408,-0.368026733,20505.58447,-1.536373638,0.4030167,0.346072724,20505.58947,-2.183294289,1.247380366,-0.994345434,-1.422605038,0.480243325,0.242073923,-0.013726751,0.114112273,-0.140133068,0.277036354,0.580206987,-0.761531072,0.081738231,0.516793787,0.83840239,-0.173221424,-1.848051071,40.2767868,-15.28846073,2,20501.83445
997.624,99.7624,1478282461,37.35289344,-122.0352152,47.53253,0,322.734375,4,10,1478282462,-2.266227722,39.30475998,-13.80600739,90.72372437,77.2650528,10,20505.60665,0.623260498,0.828277588,-0.339248657,20505.59449,-1.453554655,0.575053445,0.118251543,20505.58947,-2.183294289,1.247380366,-0.994345434,-1.422605038,0.480243325,0.242073923,-0.013726751,0.114112273,-0.140133068,0.277036354,0.580206987,-0.761531072,0.081738231,0.516793787,0.83840239,-0.173221424,-1.848051071,40.2767868,-15.28846073,2,20501.83445
1007.328,100.7328,1478282461,37.35289344,-122.0352152,47.53253,0,322.734375,4,10,1478282462,-2.266227722,39.30475998,-13.80600739,90.72372437,77.2650528,10,20505.61635,0.825408936,0.715698242,-0.288665771,20505.60448,-1.245633146,0.331958503,-0.129791553,20505.59949,-2.159536327,1.271814273,-0.997860336,-1.301249146,0.403371751,-0.001072178,0.105208315,-0.012035406,-0.179573968,0.278369958,0.585382628,-0.756986356,0.082516682,0.518052161,0.840313017,-0.159674689,-1.848051071,40.2767868,-15.28846073,2,20501.83445
1017.003,101.7003,1478282461,37.35289344,-122.0352152,47.53253,0,322.734375,4,10,1478282462,-1.672519684,39.82862091,-12.69992828,90.84648895,77.38781738,10,20505.62603,0.979125977,0.585388184,-0.219116211,20505.61447,-0.693881828,-0.039049931,-0.373871065,20505.61947,-2.136322078,1.291011109,-1.007944262,-0.2500498,-0.278261214,-0.481137335,0.312557638,-0.130038455,-0.14131242,0.275821252,0.591815816,-0.752921079,0.082380373,0.512851298,0.845736682,-0.147353351,-1.49993515,40.8795929,-13.63748932,2,20501.83445
1026.677,102.6677,1478282461,37.35289344,-122.0352152,47.53253,0,322.734375,4,10,1478282462,-1.672519684,39.82862091,-12.69992828,90.84648895,77.38781738,10,20505.6357,0.984832764,0.447662354,-0.188369751,20505.62447,0.033129191,-0.277241195,-0.565414932,20505.61947,-2.136322078,1.291011109,-1.007944262,-0.2500498,-0.278261214,-0.481137335,0.312557638,-0.130038455,-0.14131242,0.275821252,0.591815816,-0.752921079,0.082380373,0.512851298,0.845736682,-0.147353351,-1.49993515,40.8795929,-13.63748932,2,20501.83445
1036.374,103.6374,1478282461,37.35289344,-122.0352152,47.53253,0,322.734375,4,10,1478282462,-1.113737106,39.89846802,-11.69439697,90.20973206,76.75106049,10,20505.6454,0.964752197,0.497817993,-0.134231567,20505.63446,0.49409681,-0.133050729,-0.570487189,20505.62947,-2.143982427,1.281085771,-1.0127732,0.399349451,-0.331706554,-0.596071959,0.477389008,-0.400641203,-0.037101988,0.272920895,0.591506808,-0.75438318,0.080869643,0.507443726,0.848303556,-0.151267767,-1.49993515,40.8795929,-13.63748932,2,20501.83445
1046.025,104.6025,1478282461,37.35289344,-122.0352152,47.53253,0,322.734375,4,10,1478282462,-1.113737106,39.89846802,-11.69439697,90.20973206,76.75106049,10,20505.65505,0.931518555,0.642379761,-0.112106323,20505.64445,0.595073492,0.347881276,-0.398063753,20505.64945,-2.172208472,1.260374574,-1.017381664,0.679895163,0.602164328,-0.320919722,0.464277864,-0.352916747,0.026316896,0.27206131,0.587969737,-0.758073537,0.074824755,0.500474334,0.85073477,-0.160548463,-2.159044266,40.90272141,-13.4787941,2,20501.83445
1055.729,105.5729,1478282461,37.35289344,-122.0352152,47.53253,0,322.734375,4,10,1478282462,-1.113737106,39.89846802,-11.69439697,90.20973206,76.75106049,10,20505.66476,0.876937866,0.722167969,-0.239395142,20505.65445,0.580335292,1.033837271,-0.270522039,20505.64945,-2.172208472,1.260374574,-1.017381664,0.679895163,0.602164328,-0.320919722,0.464277864,-0.352916747,0.026316896,0.27206131,0.587969737,-0.758073537,0.074824755,0.500474334,0.85073477,-0.160548463,-2.159044266,40.90272141,-13.4787941,2,20501.83445
1065.42,106.542,1478282461,37.35289344,-122.0352152,47.53253,0,322.734375,4,10,1478282462,-1.078813553,40.49217606,-11.05755615,89.47286224,76.01419067,10,20505.67445,0.864837646,0.743652344,-0.314102173,20505.66444,0.503847175,1.492089264,-0.14739052,20505.65944,-2.185213093,1.26028154,-1.017660719,0.626695275,1.24142611,-0.205581427,0.376704544,-0.128713429,-0.078872658,0.275762547,0.586254021,-0.758541166,0.069832227,0.500233352,0.850881398,-0.160522476,-2.159044266,40.90272141,-13.4787941,2,20501.83445
1075.103,107.5103,1478282461,37.35289344,-122.0352152,47.53253,0,322.734375,4,10,1478282462,-1.078813553,40.49217606,-11.05755615,89.47286224,76.01419067,10,20505.68413,0.822372437,0.661865234,-0.215545654,20505.66444,0.503847175,1.492089264,-0.14739052,20505.66943,-2.195863878,1.265579527,-1.017123667,0.518307447,1.461346269,-0.094447725,0.363325119,-0.106946781,-0.156094864,0.28104499,0.584816262,-0.758191597,0.064413935,0.501512527,0.85059911,-0.158007309,-2.159044266,40.90272141,-13.4787941,2,20501.83445
1084.787,108.4787,1478282461,37.35289344,-122.0352152,47.53253,0,322.734375,4,10,1478282462,-1.078813553,40.49217606,-11.05755615,89.47286224,76.01419067,10,20505.69381,0.729873657,0.571884155,0.048690796,20505.6844,0.452365342,1.574662171,0.00078004,20505.67942,-2.204869714,1.272300525,-1.016225358,0.482346714,1.438411593,-0.042357631,0.319079161,-0.188261196,-0.060687911,0.286481123,0.583523516,-0.757568073,0.059325261,0.503293276,0.850126445,-0.15485774,-2.128915787,40.57555008,-14.43829918,2,20501.83445
1094.457,109.4457,1478282461,37.35289344,-122.0352152,47.53253,0,322.734375,4,10,1478282462,-1.078813553,40.49217606,-11.05755615,89.47286224,76.01419067,10,20505.70348,0.682846069,0.745437622,-0.004241943,20505.69439,0.617686925,2.2668979,0.252178985,20505.68939,-2.214892567,1.279827513,-1.014114515,0.604607105,1.715788245,0.091714673,0.223711103,-0.277128875,0.20027037,0.29285664,0.581760432,-0.756883293,0.054013602,0.506162524,0.849013031,-0.151579574,-2.128915787,40.57555008,-14.43829918,2,20501.83445
1104.15,110.415,1478282461,37.35289344,-122.0352152,47.53253,0,322.734375,4,10,1478282462,-0.69465065,40.80649185,-10.82292175,89.67584991,76.21717834,10,20505.71318,0.666641235,0.939559937,-0.133331299,20505.69439,0.617686925,2.2668979,0.252178985,20505.69939,-2.225936806,1.295076233,-1.008816893,0.726433814,2.738996267,0.432928711,0.170110345,-0.100764379,0.140824422,0.303340219,0.579181775,-0.755190951,0.047114865,0.512735724,0.846202016,-0.145066366,-1.469680786,40.37158585,-15.07803535,2,20501.83445
1113.833,111.3833,1478282461,37.35289344,-122.0352152,47.53253,0,322.734375,4,10,1478282462,-0.170789719,40.91126633,-11.12458038,93.3947525,79.93608093,10,20505.72286,0.674621582,0.860305786,-0.231719971,20505.70438,0.588726646,3.293926267,0.546496102,20505.70938,-2.23405097,1.322216916,-1.00183019,0.536581993,3.590126276,0.572852492,0.144439846,0.097101502,-0.000781308,0.317897693,0.576772105,-0.751528196,0.038475536,0.522201419,0.842458427,-0.132549986,-1.469680786,40.37158585,-15.07803535,2,20501.83445
1123.516,112.3516,1478282461,37.35289344,-122.0352152,47.53253,0,322.734375,4,10,1478282462,-0.170789719,40.91126633,-11.12458038,93.3947525,79.93608093,10,20505.73254,0.673400879,0.701034546,-0.297714233,20505.70438,0.588726646,3.293926267,0.546496102,20505.70938,-2.23405097,1.322216916,-1.00183019,0.536581993,3.590126276,0.572852492,0.144439846,0.097101502,-0.000781308,0.317897693,0.576772105,-0.751528196,0.038475536,0.522201419,0.842458427,-0.132549986,-1.469680786,40.37158585,-15.07803535,2,20501.83445
1133.199,113.3199,1478282461,37.35289344,-122.0352152,47.53253,0,322.734375,4,10,1478282462,-0.170789719,40.91126633,-11.12458038,93.3947525,79.93608093,10,20505.74223,0.655593872,0.632659912,-0.404541016,20505.72439,-0.154330451,4.150095007,0.103709884,20505.72939,-2.233841996,1.402241395,-0.997774022,-0.238749549,4.041946411,-0.145159945,0.138910383,-0.139231652,-0.206760228,0.348805109,0.576938468,-0.738372874,0.016807709,0.534490466,0.840266228,-0.090953998,0.689289093,40.19996643,-15.58395195,2,20501.83445
1142.882,114.2882,1478282461,37.35289344,-122.0352152,47.53253,0,322.734375,4,10,1478282462,-0.170789719,40.91126633,-11.12458038,93.3947525,79.93608093,10,20505.75191,0.565856934,0.692169189,-0.645797729,20505.73438,-0.417718948,4.007568751,-0.406895062,20505.73938,-2.233784559,1.438844198,-1.000326073,-0.388587713,3.75263381,-0.609229088,0.12026047,-0.208987206,-0.333489776,0.361511209,0.577740453,-0.731776212,0.005402769,0.535333395,0.841647089,-0.071051225,0.689289093,40.19996643,-15.58395195,2,20501.83445
1152.565,115.2565,1478282461,37.35289344,-122.0352152,47.53253,0,322.734375,4,10,1478282462,-0.170789719,40.91126633,-11.12458038,93.3947525,79.93608093,10,20505.76159,0.512649536,0.774429321,-0.847869873,20505.75434,-0.328080141,2.686569211,-0.946526866,20505.74935,-2.228975002,1.476011259,-1.008940472,-0.353489012,3.146042347,-0.890777588,0.03549068,-0.15409866,-0.595375836,0.371173437,0.580533663,-0.724684818,-0.006546784,0.530366242,0.846267819,-0.050421894,0.689289093,40.19996643,-15.58395195,2,20501.83445
1162.236,116.2236,1478282461,37.35289344,-122.0352152,47.53253,0,322.734375,4,10,1478282462,0.457845688,40.70172119,-11.52679443,98.43275452,84.97408295,10,20505.77126,0.54460144,0.856628418,-0.809509277,20505.76435,0.145175303,1.25143644,-0.897029887,20505.76935,-2.236447141,1.500278646,-1.02684864,0.588191211,0.417115688,-0.866159081,-0.003582197,-0.081243031,-0.811405957,0.376928403,0.582831893,-0.719532523,-0.02247025,0.516231716,0.855672359,-0.036463927,1.623552322,40.32211685,-15.19417763,2,20501.83445
1171.933,117.1933,1478282461,37.35289344,-122.0352152,47.53253,0,322.734375,4,10,1478282462,0.457845688,40.70172119,-11.52679443,98.43275452,84.97408295,10,20505.78096,0.649887085,0.912399292,-0.620437622,20505.76435,0.145175303,1.25143644,-0.897029887,20505.76935,-2.236447141,1.500278646,-1.02684864,0.588191211,0.417115688,-0.866159081,-0.003582197,-0.081243031,-0.811405957,0.376928403,0.582831893,-0.719532523,-0.02247025,0.516231716,0.855672359,-0.036463927,1.623552322,40.32211685,-15.19417763,2,20501.83445
1181.615,118.1615,1478282461,37.35289344,-122.0352152,47.53253,0,322.734375,4,10,1478282462,0.457845688,40.70172119,-11.52679443,98.43275452,84.97408295,10,20505.79064,0.682006836,1.047744751,-0.498687744,20505.77435,0.924697201,-0.04903572,-0.841985809,20505.76935,-2.236447141,1.500278646,-1.02684864,0.588191211,0.417115688,-0.866159081,-0.003582197,-0.081243031,-0.811405957,0.376928403,0.582831893,-0.719532523,-0.02247025,0.516231716,0.855672359,-0.036463927,1.623552322,40.32211685,-15.19417763,2,20501.83445
1191.29,119.129,1478282461,37.35289344,-122.0352152,47.53253,0,322.734375,4,10,1478282462,1.226173401,40.98111343,-12.06308746,102.7449417,89.28627014,10,20505.80032,0.635604858,1.15763855,-0.404876709,20505.78434,1.463035774,-0.269824557,-0.810181274,20505.78932,-2.292803491,1.446982849,-1.040298617,1.577538967,-0.0910367,-0.778643131,0.179917321,0.185189396,-0.436202675,0.370103889,0.576003973,-0.728159701,-0.032030998,0.5020895,0.862555325,-0.062485069,1.172590256,40.2132988,-15.52055264,2,20501.83445
1200.981,120.0981,1478282461,37.35289344,-122.0352152,47.53253,0,322.734375,4,10,1478282462,2.099271774,40.59695053,-12.49881744,104.8995361,91.44086456,10,20505.81001,0.579910278,1.221817017,-0.282623291,20505.79431,1.440634062,0.2548006,-0.736572301,20505.79931,-2.323405097,1.423373064,-1.045174626,1.407131433,0.389397651,-0.6531353,0.139296547,0.292626381,-0.331174612,0.368893857,0.57189708,-0.731711717,-0.038065938,0.496308327,0.865012169,-0.073702104,1.172590256,40.2132988,-15.52055264,2,20501.83445
1210.664,121.0664,1478282461,37.35289344,-122.0352152,47.53253,0,322.734375,4,10,1478282462,2.099271774,40.59695053,-12.49881744,104.8995361,91.44086456,10,20505.81969,0.51385498,1.189880371,-0.25177002,20505.80433,1.199098401,0.617006488,-0.559918168,20505.79931,-2.323405097,1.423373064,-1.045174626,1.407131433,0.389397651,-0.6531353,0.139296547,0.292626381,-0.331174612,0.368893857,0.57189708,-0.731711717,-0.038065938,0.496308327,0.865012169,-0.073702104,1.172590256,40.2132988,-15.52055264,2,20501.83445
1220.336,122.0336,1478282461,37.35289344,-122.0352152,47.53253,0,322.734375,4,10,1478282462,2.099271774,40.59695053,-12.49881744,104.8995361,91.44086456,10,20505.82936,0.450012207,1.049865723,-0.209411621,20505.81432,0.946101027,0.718824196,-0.372002059,20505.81932,-2.368968502,1.395809365,-1.049911753,0.891451597,0.578096151,-0.292397052,0.023807058,0.322501063,-0.165131912,0.370422823,0.565214896,-0.735503252,-0.048518236,0.490047932,0.867379308,-0.086638108,0.28204155,39.32885742,-17.67860794,2,20501.83445
1230.033,123.0033,1478282461,37.35289344,-122.0352152,47.53253,0,322.734375,4,10,1478282462,2.099271774,40.59695053,-12.49881744,104.8995361,91.44086456,10,20505.83906,0.407440186,0.945465088,-0.182922363,20505.82431,0.668435324,0.544928832,-0.241300238,20505.82931,-2.383202453,1.387578765,-1.050835186,0.614676476,0.358415157,-0.197386414,-0.038518272,0.182027236,-0.118889078,0.371156338,0.563011279,-0.73660324,-0.051739145,0.488530487,0.867838502,-0.090522543,0.28204155,39.32885742,-17.67860794,2,20501.83445
1239.716,123.9716,1478282461,37.35289344,-122.0352152,47.53253,0,322.734375,4,10,1478282462,2.099271774,40.59695053,-12.49881744,104.8995361,91.44086456,10,20505.84874,0.442550659,0.86378479,-0.210357666,20505.82431,0.668435324,0.544928832,-0.241300238,20505.82931,-2.383202453,1.387578765,-1.050835186,0.614676476,0.358415157,-0.197386414,-0.038518272,0.182027236,-0.118889078,0.371156338,0.563011279,-0.73660324,-0.051739145,0.488530487,0.867838502,-0.090522543,0.28204155,39.32885742,-17.67860794,2,20501.83445
1249.394,124.9394,1478282461,37.35289344,-122.0352152,47.53253,0,322.734375,4,10,1478282462,2.064352036,40.28263474,-13.00158691,106.2381516,92.77947998,10,20505.85842,0.565124512,0.813323975,-0.228134155,20505.8443,0.229673676,0.196177234,-0.12085718,20505.8393,-2.392729946,1.381722657,-1.051544641,0.40163362,0.204099521,-0.145505369,-0.044836495,-0.004405969,-0.117091544,0.37148445,0.561574789,-0.737383708,-0.053836115,0.487387151,0.868190765,-0.093266122,0.28204155,39.32885742,-17.67860794,2,20501.83445
1259.084,125.9084,1478282461,37.35289344,-122.0352152,47.53253,0,322.734375,4,10,1478282462,2.064352036,40.28263474,-13.00158691,106.2381516,92.77947998,10,20505.86811,0.691085815,0.810256958,-0.231292725,20505.85428,0.087335438,-0.02668301,-0.035520976,20505.85928,-2.401220068,1.373336455,-1.051753733,0.122271493,-0.22044833,0.024311081,0.078714654,-0.054970521,-0.130819649,0.370714486,0.560279856,-0.738692603,-0.054685382,0.486409873,0.868294477,-0.097314507,0.235261917,39.01858902,-18.35391998,2,20501.83445
1268.766,126.8766,1478282461,37.35289344,-122.0352152,47.53253,0,322.734375,4,10,1478282462,2.064352036,40.28263474,-13.00158691,106.2381516,92.77947998,10,20505.87779,0.781677246,0.839569092,-0.23840332,20505.86428,0.023176692,-0.246011104,0.093601857,20505.85928,-2.401220068,1.373336455,-1.051753733,0.122271493,-0.22044833,0.024311081,0.078714654,-0.054970521,-0.130819649,0.370714486,0.560279856,-0.738692603,-0.054685382,0.486409873,0.868294477,-0.097314507,0.235261917,39.01858902,-18.35391998,2,20501.83445
1278.442,127.8442,1478282461,37.35289344,-122.0352152,47.53253,0,322.734375,4,10,1478282462,1.680183411,40.17786407,-13.77248383,103.9874954,90.52882385,10,20505.88747,0.765213013,0.921386719,-0.23274231,20505.87427,0.012655342,-0.387620966,0.277939742,20505.86928,-2.40260375,1.368497768,-1.05016272,0.096709624,-0.403515846,0.186884001,0.294391274,-0.027935088,-0.138458937,0.369741675,0.559748964,-0.739681509,-0.053324071,0.487285972,0.867504179,-0.099944383,0.235261917,39.01858902,-18.35391998,2,20501.83445
1288.127,128.8127,1478282461,37.35289344,-122.0352152,47.53253,0,322.734375,4,10,1478282462,1.680183411,40.17786407,-13.77248383,103.9874954,90.52882385,10,20505.89715,0.682067871,1.047409058,-0.184020996,20505.88425,-0.041498974,-0.464445174,0.492832873,20505.88924,-2.400758431,1.359660509,-1.041190495,-0.01362369,-0.567630291,0.633646846,0.271238357,0.058380451,-0.12686865,0.368359843,0.558009136,-0.742094014,-0.047257851,0.493974656,0.863006294,-0.105873659,0.188804626,38.94447327,-18.51119232,2,20501.83445
1297.793,129.7793,1478282461,37.35289344,-122.0352152,47.53253,0,322.734375,4,10,1478282462,1.680183411,40.17786407,-13.77248383,103.9874954,90.52882385,10,20505.90682,0.617355347,1.165023804,-0.134994507,20505.89426,-0.141177365,-0.511165009,0.77423073,20505.88924,-2.400758431,1.359660509,-1.041190495,-0.01362369,-0.567630291,0.633646846,0.271238357,0.058380451,-0.12686865,0.368359843,0.558009136,-0.742094014,-0.047257851,0.493974656,0.863006294,-0.105873659,0.188804626,38.94447327,-18.51119232,2,20501.83445
1307.493,130.7493,1478282461,37.35289344,-122.0352152,47.53253,0,322.734375,4,10,1478282462,1.680183411,40.17786407,-13.77248383,103.9874954,90.52882385,10,20505.91652,0.578842163,1.204925537,-0.089385986,20505.90425,-0.255114587,-0.533977913,0.995020366,20505.89925,-2.395594642,1.358153921,-1.033145447,-0.112295717,-0.601704597,0.906630933,0.116770275,0.306109726,-0.026914958,0.368515498,0.556917008,-0.743134901,-0.042311857,0.500585079,0.858914077,-0.108079545,0.188804626,38.94447327,-18.51119232,2,20501.83445
1317.161,131.7161,1478282461,37.35289344,-122.0352152,47.53253,0,322.734375,4,10,1478282462,1.680183411,40.17786407,-13.77248383,103.9874954,90.52882385,10,20505.92619,0.560974121,1.17578125,-0.071334839,20505.90425,-0.255114587,-0.533977913,0.995020366,20505.90924,-2.387371471,1.359002488,-1.023596988,-0.251254559,-0.627218902,1.048398495,0.070170455,0.350940496,0.01998784,0.369100504,0.555947754,-0.743883429,-0.036391719,0.508671701,0.853985071,-0.109373823,0.688360214,38.95929337,-18.4681282,2,20501.83445
1326.848,132.6848,1478282461,37.35289344,-122.0352152,47.53253,0,322.734375,4,10,1478282462,1.680183411,40.17786407,-13.77248383,103.9874954,90.52882385,10,20505.93587,0.538192749,1.092605591,-0.056838989,20505.92423,-0.592226839,-0.61765044,1.014548528,20505.91923,-2.376056668,1.362105293,-1.014102102,-0.427353203,-0.664374948,1.047001958,0.044055998,0.326774776,0.038135182,0.369658151,0.555533834,-0.744202696,-0.029955929,0.516918123,0.849006474,-0.109470025,0.688360214,38.95929337,-18.4681282,2,20501.83445
1336.529,133.6529,1478282461,37.35289344,-122.0352152,47.53253,0,322.734375,4,10,1478282462,1.680183411,40.17786407,-13.77248383,103.9874954,90.52882385,10,20505.94556,0.523635864,0.995864868,-0.038955688,20505.93422,-0.752570176,-0.722937182,0.961218461,20505.92923,-2.362008945,1.366796919,-1.005432836,-0.595231712,-0.745365143,0.986445069,0.013578618,0.248211667,0.051691703,0.369834764,0.555838916,-0.74412831,-0.023203579,0.524614155,0.844393909,-0.108530693,0.688360214,38.95929337,-18.4681282,2,20501.83445
1346.218,134.6218,1478282461,37.35289344,-122.0352152,47.53253,0,322.734375,4,10,1478282462,1.889726639,39.89846802,-13.90655518,102.4708862,89.01221466,10,20505.95524,0.512313843,0.926345825,-0.015686035,20505.94422,-0.906136034,-0.788555874,0.975543604,20505.94921,-2.32655281,1.379617875,-0.989342205,-0.884268224,-0.886192739,1.005385995,-0.015597209,0.1602,0.06540864,0.369096154,0.558198767,-0.743043157,-0.008308572,0.539233088,0.835664868,-0.104364328,1.502326965,39.18009186,-17.94534111,2,20501.83445
1355.902,135.5902,1478282461,37.35289344,-122.0352152,47.53253,0,322.734375,4,10,1478282462,2.448513031,40.17786026,-13.83952332,99.4262619,85.96759033,10,20505.96493,0.486724854,0.887145996,-0.000701904,20505.95421,-1.002901459,-0.817835732,1.032923274,20505.94921,-2.32655281,1.379617875,-0.989342205,-0.884268224,-0.886192739,1.005385995,-0.015597209,0.1602,0.06540864,0.369096154,0.558198767,-0.743043157,-0.008308572,0.539233088,0.835664868,-0.104364328,1.502326965,39.18009186,-17.94534111,2,20501.83445
1365.503333,136.5503333,1478282461,37.35289344,-122.0352152,47.53253,0,322.734375,4,10,1478282462,2.448513031,40.17786026,-13.83952332,99.4262619,85.96759033,10,20505.97453,0.461227417,0.861328125,0.035583496,20505.9642,-1.063422594,-0.8100601,1.087463748,20505.95921,-2.30627819,1.387551888,-0.98074462,-0.95964843,-0.897398949,1.071482658,-0.060363632,0.056234084,0.100686394,0.368732947,0.559769477,-0.742087678,-0.000157089,0.547088504,0.830911934,-0.101388298,1.502326965,39.18009186,-17.94534111,2,20501.83445
1375.203333,137.5203333,1478282461,37.35289344,-122.0352152,47.53253,0,322.734375,4,10,1478282462,2.448513031,40.17786026,-13.83952332,99.4262619,85.96759033,10,20505.98423,0.435287476,0.841049194,0.087524414,20505.9642,-1.063422594,-0.8100601,1.087463748,20505.96911,-2.285381634,1.396079001,-0.971749376,-1.000077009,-0.869703054,1.097393632,-0.094043918,0.035454754,0.133598387,0.36852146,0.561412936,-0.740905138,0.008186885,0.555271327,0.825873375,-0.098014899,2.251647949,39.58791733,-16.94399261,2,20501.83445
1384.878333,138.4878333,1478282461,37.35289344,-122.0352152,47.53253,0,322.734375,4,10,1478282462,2.448513031,40.17786026,-13.83952332,99.4262619,85.96759033,10,20505.99391,0.414733887,0.806350708,0.089736938,20505.98411,-1.045844133,-0.56697368,1.025849652,20505.9791,-2.264946407,1.405029241,-0.96279544,-0.985389173,-0.751302481,1.070823789,-0.128109917,0.020257588,0.181782112,0.368579323,0.56304568,-0.739503711,0.016220569,0.563397408,0.820791602,-0.09425769,2.251647949,39.58791733,-16.94399261,2,20501.83445
1394.570333,139.4570333,1478282461,37.35289344,-122.0352152,47.53253,0,322.734375,4,10,1478282462,2.448513031,40.17786026,-13.83952332,99.4262619,85.96759033,10,20506.0036,0.435409546,0.753494263,0.112960815,20505.9941,-0.997602035,-0.370856101,0.909308391,20505.9891,-2.245737372,1.414810159,-0.954436441,-0.945567429,-0.543386877,0.975755036,-0.15631637,-0.009637387,0.179542437,0.369115614,0.564668853,-0.737805633,0.02335803,0.571050286,0.815988123,-0.089805499,2.251647949,39.58791733,-16.94399261,2,20501.83445
1404.253333,140.4253333,1478282461,37.35289344,-122.0352152,47.53253,0,322.734375,4,10,1478282462,3.25176239,40.49217606,-13.53786469,97.46868896,84.0100174,10,20506.01328,0.43687439,0.733200073,0.140533447,20506.00409,-0.941924924,-0.176898878,0.786337993,20506.00909,-2.211845653,1.43636307,-0.94065791,-0.842644691,-0.128850281,0.751435935,-0.148530453,-0.054451689,0.191938117,0.371337061,0.567996601,-0.733694312,0.034370118,0.583940029,0.807945967,-0.078977294,3.143215179,39.98166656,-15.84166431,2,20501.83445
1413.912333,141.3912333,1478282461,37.35289344,-122.0352152,47.53253,0,322.734375,4,10,1478282462,3.25176239,40.49217606,-13.53786469,97.46868896,84.0100174,10,20506.02294,0.371673584,0.789123535,0.107772827,20506.00409,-0.941924924,-0.176898878,0.786337993,20506.00909,-2.211845653,1.43636307,-0.94065791,-0.842644691,-0.128850281,0.751435935,-0.148530453,-0.054451689,0.191938117,0.371337061,0.567996601,-0.733694312,0.034370118,0.583940029,0.807945967,-0.078977294,3.143215179,39.98166656,-15.84166431,2,20501.83445
1423.624333,142.3624333,1478282462,37.35289344,-122.0352152,48.10693,0,325.546875,6,10,1478282462,3.25176239,40.49217606,-13.53786469,97.46868896,84.0100174,10,20506.03265,0.416091919,0.816192627,0.07472229,20506.02405,-0.8194046,0.193368931,0.441998987,20506.01906,-2.197010662,1.448589795,-0.935437108,-0.787281811,0.065787628,0.576160789,-0.217367053,-0.015735028,0.18011795,0.373080172,0.569770679,-0.731246293,0.038097481,0.589040637,0.804858565,-0.072345115,3.143215179,39.98166656,-15.84166431,2,20501.83445
1433.306333,143.3306333,1478282462,37.35289344,-122.0352152,48.10693,0,325.546875,6,10,1478282462,3.810544968,40.63187408,-13.00158691,95.46366882,82.00499725,10,20506.04233,0.487762451,0.845123291,0.052062988,20506.03407,-0.677764644,0.180101329,0.208028301,20506.03906,-2.17491833,1.468246339,-0.931340028,-0.500657737,0.037306413,0.131685838,-0.177532166,0.013772292,0.13581273,0.375106217,0.573367337,-0.727177283,0.041933548,0.593624115,0.802420318,-0.061090447,3.918737411,40.28934479,-14.85881615,2,20501.83445
1442.992333,144.2992333,1478282462,37.35289344,-122.0352152,48.10693,0,325.546875,6,10,1478282462,4.75349617,41.01603699,-12.29771423,94.71092224,81.25225067,10,20506.05202,0.550567627,0.882522583,0.0415802,20506.03407,-0.677764644,0.180101329,0.208028301,20506.03906,-2.17491833,1.468246339,-0.931340028,-0.500657737,0.037306413,0.131685838,-0.177532166,0.013772292,0.13581273,0.375106217,0.573367337,-0.727177283,0.041933548,0.593624115,0.802420318,-0.061090447,3.918737411,40.28934479,-14.85881615,2,20501.83445
1452.676333,145.2676333,1478282462,37.35289344,-122.0352152,48.10693,0,325.546875,6,10,1478282462,4.75349617,41.01603699,-12.29771423,94.71092224,81.25225067,10,20506.0617,0.594055176,0.897979736,0.042129517,20506.05405,-0.206777414,-0.241387323,0.016840765,20506.04906,-2.169412796,1.47143993,-0.931100819,-0.260864854,-0.183467805,0.039726619,-0.043439519,0.080245018,0.100793585,0.374755816,0.574413951,-0.726463413,0.043099899,0.594007134,0.802277565,-0.059213385,3.918737411,40.28934479,-14.85881615,2,20501.83445
1462.358333,146.2358333,1478282462,37.35289344,-122.0352152,48.10693,0,325.546875,6,10,1478282462,4.75349617,41.01603699,-12.29771423,94.71092224,81.25225067,10,20506.07139,0.617828369,0.884735107,0.051605225,20506.05405,-0.206777414,-0.241387323,0.016840765,20506.05905,-2.168368891,1.468376276,-0.93096254,0.007151741,-0.460889846,0.018718524,0.000121876,0.095784724,0.103173792,0.373382556,0.574511382,-0.727014576,0.044406586,0.593933284,0.802195013,-0.061044276,4.058494568,40.4601059,-14.34854317,2,20501.83445
1472.044333,147.2044333,1478282462,37.35289344,-122.0352152,48.10693,0,325.546875,6,10,1478282462,4.75349617,41.01603699,-12.29771423,94.71092224,81.25225067,10,20506.08107,0.619354248,0.855651855,0.05821228,20506.06405,0.060348562,-0.515417278,0.025759426,20506.06904,-2.17159864,1.459264371,-0.930355885,0.258376956,-0.711478055,0.049228758,0.023992425,0.082902454,0.118112907,0.371167863,0.573568283,-0.72878864,0.046053889,0.59383595,0.801832676,-0.066507682,4.058494568,40.4601059,-14.34854317,2,20501.83445
1481.728333,148.1728333,1478282462,37.35289344,-122.0352152,48.10693,0,325.546875,6,10,1478282462,4.75349617,41.01603699,-12.29771423,94.71092224,81.25225067,10,20506.09076,0.62336731,0.824539185,0.06199646,20506.06405,0.060348562,-0.515417278,0.025759426,20506.06904,-2.17159864,1.459264371,-0.930355885,0.258376956,-0.711478055,0.049228758,0.023992425,0.082902454,0.118112907,0.371167863,0.573568283,-0.72878864,0.046053889,0.59383595,0.801832676,-0.066507682,4.058494568,40.4601059,-14.34854317,2,20501.83445
1491.411333,149.1411333,1478282462,37.35289344,-122.0352152,48.10693,0,325.546875,6,10,1478282462,4.963041306,41.64466858,-11.69439697,92.67166901,79.21299744,10,20506.10044,0.627044678,0.795333862,0.065490723,20506.08401,0.445391322,-0.80361818,0.116709573,20506.08903,-2.186976951,1.429856277,-0.926972645,0.575060725,-0.880006194,0.148873329,0.029061211,0.02473277,0.14631705,0.365771671,0.569254592,-0.73461716,0.049979224,0.594306111,0.799806416,-0.08432059,3.823871613,40.32559204,-14.78501511,2,20501.83445
1501.095333,150.1095333,1478282462,37.35289344,-122.0352152,48.10693,0,325.546875,6,10,1478282462,4.963041306,41.64466858,-11.69439697,92.67166901,79.21299744,10,20506.11012,0.623733521,0.763137817,0.061813354,20506.09402,0.533222907,-0.767171223,0.172568311,20506.09902,-2.196709441,1.413910952,-0.924163212,0.630829453,-0.789572418,0.205283299,0.031941529,-0.002783013,0.159627303,0.363464708,0.566414262,-0.737819585,0.051870505,0.595103145,0.798116863,-0.094136581,3.823871613,40.32559204,-14.78501511,2,20501.83445
1510.779333,151.0779333,1478282462,37.35289344,-122.0352152,48.10693,0,325.546875,6,10,1478282462,4.963041306,41.64466858,-11.69439697,92.67166901,79.21299744,10,20506.11981,0.61541748,0.728469849,0.059585571,20506.09402,0.533222907,-0.767171223,0.172568311,20506.09902,-2.196709441,1.413910952,-0.924163212,0.630829453,-0.789572418,0.205283299,0.031941529,-0.002783013,0.159627303,0.363464708,0.566414262,-0.737819585,0.051870505,0.595103145,0.798116863,-0.094136581,3.823871613,40.32559204,-14.78501511,2,20501.83445
1520.454333,152.0454333,1478282462,37.35289344,-122.0352152,48.10693,0,325.546875,6,10,1478282462,5.417051315,41.60974503,-11.45976257,89.18100739,75.72233582,10,20506.12948,0.599868774,0.678771973,0.064453125,20506.11399,0.521842687,-0.448789249,0.276127194,20506.119,-2.214876517,1.388013401,-0.916826383,0.567097127,-0.431002349,0.306057036,0.017209414,-0.065205127,0.170161977,0.361065999,0.560663125,-0.743151961,0.054894155,0.59820807,0.793674946,-0.110576414,3.753137589,40.02266693,-15.60359955,2,20501.83445
1530.147333,153.0147333,1478282462,37.35289344,-122.0352152,48.10693,0,325.546875,6,10,1478282462,5.417051315,41.60974503,-11.45976257,89.18100739,75.72233582,10,20506.13917,0.580947876,0.646072388,0.056930542,20506.124,0.444076253,-0.245153832,0.329439685,20506.12899,-2.221742734,1.379882648,-0.91247139,0.463748068,-0.214618877,0.366977394,-0.000808434,-0.112246156,0.180544496,0.361181004,0.558124178,-0.744918104,0.05605981,0.600677192,0.791018128,-0.116091371,3.753137589,40.02266693,-15.60359955,2,20501.83445
1539.829333,153.9829333,1478282462,37.35289344,-122.0352152,48.10693,0,325.546875,6,10,1478282462,5.417051315,41.60974503,-11.45976257,89.18100739,75.72233582,10,20506.14886,0.559844971,0.628540039,0.043289185,20506.124,0.444076253,-0.245153832,0.329439685,20506.12899,-2.221742734,1.379882648,-0.91247139,0.463748068,-0.214618877,0.366977394,-0.000808434,-0.112246156,0.180544496,0.361181004,0.558124178,-0.744918104,0.05605981,0.600677192,0.791018128,-0.116091371,3.753137589,40.02266693,-15.60359955,2,20501.83445
1549.507333,154.9507333,1478282462,37.35289344,-122.0352152,48.10693,0,325.546875,6,10,1478282462,5.417051315,41.60974503,-11.45976257,89.18100739,75.72233582,10,20506.15853,0.547332764,0.614273071,0.026306152,20506.15395,0.047384027,0.244750896,0.459376646,20506.15894,-2.228603835,1.376492406,-0.898098615,0.057321325,0.190339699,0.464034677,-0.051528011,-0.153603539,0.163599238,0.365822171,0.553189942,-0.746089861,0.05920259,0.611373007,0.782143593,-0.120310053,4.125099182,39.77509308,-16.13373947,2,20501.83445
1559.133333,155.9133333,1478282462,37.35289344,-122.0352152,48.10693,0,325.546875,6,10,1478282462,5.417051315,41.60974503,-11.45976257,89.18100739,75.72233582,10,20506.16816,0.544631958,0.605941772,-7.63E-05,20506.15395,0.047384027,0.244750896,0.459376646,20506.15894,-2.228603835,1.376492406,-0.898098615,0.057321325,0.190339699,0.464034677,-0.051528011,-0.153603539,0.163599238,0.365822171,0.553189942,-0.746089861,0.05920259,0.611373007,0.782143593,-0.120310053,4.125099182,39.77509308,-16.13373947,2,20501.83445
1568.816333,156.8816333,1478282462,37.35289344,-122.0352152,48.10693,0,325.546875,6,10,1478282462,5.417051315,41.60974503,-11.45976257,89.18100739,75.72233582,10,20506.17784,0.550460815,0.597824097,-0.0209198,20506.16397,-0.085019287,0.272184651,0.455415993,20506.15894,-2.228603835,1.376492406,-0.898098615,0.057321325,0.190339699,0.464034677,-0.051528011,-0.153603539,0.163599238,0.365822171,0.553189942,-0.746089861,0.05920259,0.611373007,0.782143593,-0.120310053,4.125099182,39.77509308,-16.13373947,2,20501.83445
1578.485333,157.8485333,1478282462,37.35289344,-122.0352152,48.10693,0,325.546875,6,10,1478282462,6.080606461,41.36527634,-11.56032562,88.88220978,75.42353821,10,20506.18751,0.57244873,0.59286499,-0.037185669,20506.17396,-0.201419667,0.23390677,0.441181929,20506.17895,-2.222964217,1.384097595,-0.88964009,-0.176536173,0.115917139,0.437723428,-0.068288289,-0.179021075,0.095961057,0.36944196,0.552333424,-0.744712008,0.062003651,0.618749082,0.776845157,-0.116880856,4.750694275,39.69976044,-16.14719582,2,20501.83445
1588.183333,158.8183333,1478282462,37.35289344,-122.0352152,48.10693,0,325.546875,6,10,1478282462,6.429849625,41.22558212,-11.7614212,88.44315338,74.98448181,10,20506.19721,0.567184448,0.591812134,-0.042999268,20506.18395,-0.30391515,0.140558979,0.424255144,20506.18894,-2.217821046,1.388413319,-0.885897951,-0.275776982,0.003557812,0.42701003,-0.049653541,-0.181618348,0.077550218,0.370665094,0.552484791,-0.74382532,0.063967468,0.622102261,0.774483323,-0.114735886,4.750694275,39.69976044,-16.14719582,2,20501.83445
1597.860333,159.7860333,1478282462,37.35289344,-122.0352152,48.10693,0,325.546875,6,10,1478282462,7.023553848,40.63187027,-11.92901611,88.5151825,75.05651093,10,20506.20689,0.559753418,0.599639893,-0.05758667,20506.18395,-0.30391515,0.140558979,0.424255144,20506.18894,-2.217821046,1.388413319,-0.885897951,-0.275776982,0.003557812,0.42701003,-0.049653541,-0.181618348,0.077550218,0.370665094,0.552484791,-0.74382532,0.063967468,0.622102261,0.774483323,-0.114735886,4.750694275,39.69976044,-16.14719582,2,20501.83445
1607.543333,160.7543333,1478282462,37.35289344,-122.0352152,48.10693,0,325.546875,6,10,1478282462,7.023553848,40.63187027,-11.92901611,88.5151825,75.05651093,10,20506.21657,0.566650391,0.60887146,-0.07043457,20506.20393,-0.501521436,-0.100289853,0.368503198,20506.20893,-2.203366983,1.396524808,-0.879708487,-0.468188673,-0.252297789,0.34548375,-0.067968123,-0.170913219,0.052928388,0.371401497,0.553898365,-0.741940414,0.069151655,0.627721548,0.770553112,-0.110515058,5.231250763,39.78098297,-15.79492188,2,20501.83445
1617.235333,161.7235333,1478282462,37.35289344,-122.0352152,48.10693,0,325.546875,6,10,1478282462,7.023553848,40.63187027,-11.92901611,88.5151825,75.05651093,10,20506.22626,0.576934814,0.630981445,-0.07572937,20506.21393,-0.589249159,-0.257432869,0.31356538,20506.21892,-2.194339461,1.399697497,-0.877628143,-0.55377394,-0.42002812,0.290438831,-0.062996864,-0.160354018,0.038361073,0.370655608,0.555172584,-0.741059197,0.072312434,0.629647255,0.769225478,-0.108795643,5.231250763,39.78098297,-15.79492188,2,20501.83445
1626.920333,162.6920333,1478282462,37.35289344,-122.0352152,48.10693,0,325.546875,6,10,1478282462,7.023553848,40.63187027,-11.92901611,88.5151825,75.05651093,10,20506.23595,0.588134766,0.664932251,-0.099487305,20506.21393,-0.589249159,-0.257432869,0.31356538,20506.21892,-2.194339461,1.399697497,-0.877628143,-0.55377394,-0.42002812,0.290438831,-0.062996864,-0.160354018,0.038361073,0.370655608,0.555172584,-0.741059197,0.072312434,0.629647255,0.769225478,-0.108795643,5.231250763,39.78098297,-15.79492188,2,20501.83445
1636.602333,163.6602333,1478282462,37.35289344,-122.0352152,48.10693,0,325.546875,6,10,1478282462,7.023553848,40.63187027,-11.92901611,88.5151825,75.05651093,10,20506.24563,0.593017578,0.693435669,-0.13432312,20506.23391,-0.786268218,-0.565631181,0.168526165,20506.22892,-2.184091541,1.402180424,-0.876317811,-0.650123239,-0.57833451,0.2216129,-0.042773787,-0.103455298,0.007913696,0.369093382,0.556838913,-0.740234146,0.075854525,0.630908549,0.768387556,-0.107400998,5.231250763,39.78098297,-15.79492188,2,20501.83445
1646.285333,164.6285333,1478282462,37.35289344,-122.0352152,48.10693,0,325.546875,6,10,1478282462,7.023553848,40.63187027,-11.92901611,88.5151825,75.05651093,10,20506.25531,0.584182739,0.708831787,-0.141311646,20506.23391,-0.786268218,-0.565631181,0.168526165,20506.23889,-2.172325884,1.404425756,-0.87616158,-0.773435533,-0.715793312,0.109232552,-0.038248915,-0.074851885,-0.028319109,0.366685616,0.559052461,-0.73936505,0.079632451,0.631266475,0.768287539,-0.106004007,5.340063095,40.00822067,-15.17227554,2,20501.83445
1655.947333,165.5947333,1478282462,37.35289344,-122.0352152,48.10693,0,325.546875,6,10,1478282462,7.023553848,40.63187027,-11.92901611,88.5151825,75.05651093,10,20506.26497,0.572280884,0.71987915,-0.138549805,20506.2539,-0.974341453,-0.829050037,-0.080688188,20506.24888,-2.1591898,1.406269707,-0.877479887,-0.871246934,-0.859739542,-0.023503659,-0.046278436,-0.060298953,-0.036637817,0.363312599,0.561842541,-0.738484899,0.083528242,0.630461156,0.769130766,-0.104673825,5.340063095,40.00822067,-15.17227554,2,20501.83445
1665.652333,166.5652333,1478282462,37.35289344,-122.0352152,48.10693,0,325.546875,6,10,1478282462,6.674314499,40.70172119,-11.79494476,87.91601563,74.45734406,10,20506.27468,0.558776855,0.7396698,-0.143203735,20506.26389,-0.99286507,-0.81997718,-0.142512142,20506.25889,-2.145488643,1.407663022,-0.87990405,-0.910180688,-0.925021589,-0.117030434,-0.056483928,-0.050798591,-0.03505763,0.359276514,0.56495513,-0.737638596,0.087380715,0.628764808,0.770677745,-0.103492178,5.106389999,40.25746155,-14.58196449,2,20501.83445
1675.336333,167.5336333,1478282462,37.35289344,-122.0352152,48.10693,0,325.546875,6,10,1478282462,6.674314499,40.70172119,-11.79494476,87.91601563,74.45734406,10,20506.28436,0.547210693,0.767288208,-0.162124634,20506.27388,-0.978145246,-0.616751091,-0.152214836,20506.27887,-2.118208386,1.414006104,-0.885625928,-0.880754769,-0.534483314,-0.140866265,-0.066265851,-0.03464143,-0.04439212,0.352215746,0.571435263,-0.735272043,0.093706086,0.625042677,0.774311244,-0.098811619,5.106389999,40.25746155,-14.58196449,2,20501.83445
1684.998333,168.4998333,1478282462,37.35289344,-122.0352152,48.10693,0,325.546875,6,10,1478282462,6.988630295,40.80649185,-11.22514343,87.20400238,73.74533081,10,20506.29403,0.544876099,0.784210205,-0.185165405,20506.28387,-0.935641195,-0.26085583,-0.135834265,20506.27887,-2.118208386,1.414006104,-0.885625928,-0.880754769,-0.534483314,-0.140866265,-0.066265851,-0.03464143,-0.04439212,0.352215746,0.571435263,-0.735272043,0.093706086,0.625042677,0.774311244,-0.098811619,5.106389999,40.25746155,-14.58196449,2,20501.83445
1694.702333,169.4702333,1478282462,37.35289344,-122.0352152,48.10693,0,325.546875,6,10,1478282462,6.988630295,40.80649185,-11.22514343,87.20400238,73.74533081,10,20506.30373,0.554138184,0.801879883,-0.217895508,20506.29386,-0.868639791,0.224288231,-0.110686568,20506.28887,-2.10534753,1.42171989,-0.888154665,-0.827608287,-0.111850217,-0.120614275,-0.078971907,0.008301256,-0.091469243,0.350628673,0.574640281,-0.733316474,0.095367871,0.623848021,0.775908947,-0.093696162,4.641159058,40.65597153,-13.59866905,2,20501.83445
1704.386333,170.4386333,1478282462,37.35289344,-122.0352152,48.10693,0,325.546875,6,10,1478282462,6.988630295,40.80649185,-11.22514343,87.20400238,73.74533081,10,20506.31341,0.583389282,0.820556641,-0.276702881,20506.30385,-0.744949806,0.766832735,-0.05828621,20506.30884,-2.083867155,1.449253238,-0.891403282,-0.577068567,0.919137597,-0.030237244,-0.069547474,0.023925658,-0.141715333,0.353530556,0.580453319,-0.727477411,0.094163192,0.623685658,0.777954221,-0.076180182,4.641159058,40.65597153,-13.59866905,2,20501.83445
1714.051333,171.4051333,1478282462,37.35289344,-122.0352152,48.10693,0,325.546875,6,10,1478282462,6.988630295,40.80649185,-11.22514343,87.20400238,73.74533081,10,20506.32308,0.629043579,0.812484741,-0.321334839,20506.31385,-0.550790183,1.153642236,-0.023484287,20506.30884,-2.083867155,1.449253238,-0.891403282,-0.577068567,0.919137597,-0.030237244,-0.069547474,0.023925658,-0.141715333,0.353530556,0.580453319,-0.727477411,0.094163192,0.623685658,0.777954221,-0.076180182,4.641159058,40.65597153,-13.59866905,2,20501.83445
1723.754333,172.3754333,1478282462,37.35289344,-122.0352152,48.10693,0,325.546875,6,10,1478282462,6.779088974,41.01603699,-10.6888504,87.07564545,73.61697388,10,20506.33278,0.702667236,0.745864868,-0.34173584,20506.32384,-0.31297842,1.212849367,-0.051773982,20506.31884,-2.07736626,1.46541011,-0.892091197,-0.35520336,1.146929502,-0.024799354,0.004740885,0.034098469,-0.255297273,0.357302258,0.582508642,-0.724313378,0.091590987,0.624302685,0.778386295,-0.066037558,4.75884819,40.93336487,-12.69585991,2,20501.83445
1733.437333,173.3437333,1478282462,37.35289344,-122.0352152,48.10693,0,325.546875,6,10,1478282462,6.779088974,41.01603699,-10.6888504,87.07564545,73.61697388,10,20506.34246,0.781738281,0.623565674,-0.323989868,20506.33383,-0.065544123,0.971086538,-0.118324247,20506.33883,-2.076110594,1.485270308,-0.894113432,0.138629645,0.714314342,-0.145644024,0.078745835,-0.03378934,-0.28824383,0.363515098,0.584046892,-0.720711786,0.08556006,0.623921394,0.779654205,-0.053492002,4.75884819,40.93336487,-12.69585991,2,20501.83445
1743.111333,174.3111333,1478282462,37.35289344,-122.0352152,48.10693,0,325.546875,6,10,1478282462,6.779088974,41.01603699,-10.6888504,87.07564545,73.61697388,10,20506.35214,0.819885254,0.519470215,-0.270202637,20506.34383,0.188446344,0.621406829,-0.174218406,20506.33883,-2.076110594,1.485270308,-0.894113432,0.138629645,0.714314342,-0.145644024,0.078745835,-0.03378934,-0.28824383,0.363515098,0.584046892,-0.720711786,0.08556006,0.623921394,0.779654205,-0.053492002,4.75884819,40.93336487,-12.69585991,2,20501.83445
1752.778333,175.2778333,1478282462,37.35289344,-122.0352152,48.10693,0,325.546875,6,10,1478282462,6.639390945,41.1557312,-10.21960449,88.16430664,74.70563507,10,20506.36181,0.812744141,0.4662323,-0.247894287,20506.35382,0.436136304,0.388431632,-0.196909337,20506.34882,-2.081606223,1.485711108,-0.895605557,0.393747091,0.403921932,-0.186197072,0.197100163,-0.261117518,-0.217084587,0.364838642,0.583381299,-0.720888544,0.082938124,0.622785091,0.780587733,-0.05311805,4.982229233,40.96578598,-12.50414562,2,20501.83445
1762.490333,176.2490333,1478282462,37.35289344,-122.0352152,48.10693,0,325.546875,6,10,1478282462,6.639390945,41.43512344,-9.817382813,87.33913422,73.88046265,10,20506.37152,0.778747559,0.476821899,-0.249542236,20506.35382,0.436136304,0.388431632,-0.196909337,20506.35881,-2.090883184,1.481257812,-0.897049035,0.6158306,0.249375656,-0.19634904,0.191324666,-0.315256864,-0.192104131,0.365510468,0.581813564,-0.722102519,0.080392948,0.621419489,0.781489134,-0.055790149,4.982229233,40.96578598,-12.50414562,2,20501.83445
1772.174333,177.2174333,1478282462,37.35289344,-122.0352152,48.10693,0,325.546875,6,10,1478282462,6.639390945,41.43512344,-9.817382813,87.33913422,73.88046265,10,20506.3812,0.723571777,0.521972656,-0.258728027,20506.37377,0.682877114,0.278540018,-0.183131473,20506.3688,-2.102539197,1.474207545,-0.898313569,0.736515701,0.199707508,-0.191541493,0.15872097,-0.305455595,-0.189467683,0.36597618,0.579675911,-0.723868452,0.077792924,0.620026588,0.782277465,-0.060074549,4.982229233,40.96578598,-12.50414562,2,20501.83445
1781.858333,178.1858333,1478282462,37.35289344,-122.0352152,48.10693,0,325.546875,6,10,1478282462,6.639390945,41.43512344,-9.817382813,87.33913422,73.88046265,10,20506.39089,0.661422729,0.561691284,-0.282730103,20506.38376,0.645773954,0.312745127,-0.135804171,20506.37877,-2.114904485,1.466606843,-0.899235302,0.75377351,0.215831071,-0.159356147,0.104737103,-0.260878682,-0.194017634,0.366529509,0.577322202,-0.72574165,0.07519476,0.618834674,0.782851338,-0.064710386,4.849477768,40.75560379,-13.22253418,2,20501.83445
1791.543333,179.1543333,1478282462,37.35289344,-122.0352152,48.10693,0,325.546875,6,10,1478282462,6.639390945,41.43512344,-9.817382813,87.33913422,73.88046265,10,20506.40057,0.60295105,0.609649658,-0.302398682,20506.38376,0.645773954,0.312745127,-0.135804171,20506.38879,-2.126222796,1.460152702,-0.899586227,0.669840634,0.248057351,-0.089617558,0.043291673,-0.221378356,-0.214057386,0.367343809,0.575084486,-0.727346692,0.072822732,0.618131042,0.783069611,-0.068672717,4.849477768,40.75560379,-13.22253418,2,20501.83445
1801.224333,180.1224333,1478282462,37.35289344,-122.0352152,48.10693,0,325.546875,6,10,1478282462,6.639390945,41.43512344,-9.817382813,87.33913422,73.88046265,10,20506.41025,0.562957764,0.657150269,-0.315856934,20506.39379,0.518236234,0.338781521,-0.040494696,20506.39878,-2.135013477,1.455896415,-0.89902848,0.503991663,0.265734941,0.023766518,-0.015315895,-0.173072979,-0.231045589,0.368479622,0.573189515,-0.728443904,0.071035385,0.61826694,0.782722652,-0.071353093,4.849477768,40.75560379,-13.22253418,2,20501.83445
1810.910333,181.0910333,1478282462,37.35289344,-122.0352152,48.10693,0,325.546875,6,10,1478282462,7.128328323,41.36527634,-9.884422302,87.04911041,73.59043884,10,20506.41994,0.559783936,0.698226929,-0.320465088,20506.41376,0.080007484,0.301206449,0.211188941,20506.41877,-2.14123646,1.455570754,-0.894879055,0.034860268,0.176275253,0.277071208,-0.058506891,-0.12298315,-0.243929699,0.371337211,0.571091115,-0.728714642,0.070275065,0.62146467,0.780133426,-0.071927227,4.852416992,40.5454483,-13.85253143,2,20501.83445
1820.577333,182.0577333,1478282462,37.35289344,-122.0352152,48.10693,0,325.546875,6,10,1478282462,7.128328323,41.36527634,-9.884422302,87.04911041,73.59043884,10,20506.4296,0.590911865,0.733352661,-0.310379028,20506.42376,-0.168950407,0.182301899,0.330693235,20506.42876,-2.165338714,1.423581997,-0.889064318,-0.208745211,0.007503453,0.387520373,-0.063539028,-0.078255549,-0.228034332,0.368131379,0.564148835,-0.735499175,0.072500648,0.623322964,0.776482463,-0.092430763,4.852416992,40.5454483,-13.85253143,2,20501.83445
1830.277333,183.0277333,1478282462,37.35289344,-122.0352152,48.10693,0,325.546875,6,10,1478282462,7.128328323,41.36527634,-9.884422302,87.04911041,73.59043884,10,20506.4393,0.634414673,0.762557983,-0.280044556,20506.42376,-0.168950407,0.182301899,0.330693235,20506.42876,-2.165338714,1.423581997,-0.889064318,-0.208745211,0.007503453,0.387520373,-0.063539028,-0.078255549,-0.228034332,0.368131379,0.564148835,-0.735499175,0.072500648,0.623322964,0.776482463,-0.092430763,4.852416992,40.5454483,-13.85253143,2,20501.83445
1839.957333,183.9957333,1478282462,37.35289344,-122.0352152,48.10693,0,325.546875,6,10,1478282463,7.268026352,41.43512344,-9.817382813,86.42398834,72.96531677,10,20506.44898,0.671844482,0.810440063,-0.245391846,20506.44373,-0.54422842,-0.330080175,0.513529097,20506.43874,-2.158703756,1.42683713,-0.885063056,-0.400105476,-0.259799719,0.479895025,0.007724368,-0.011396934,-0.189198285,0.368594134,0.564548693,-0.734671805,0.075368938,0.626690328,0.773954928,-0.090846278,5.107656479,40.2332077,-14.64830112,2,20501.83445
1849.636333,184.9636333,1478282462,37.35289344,-122.0352152,48.10693,0,325.546875,6,10,1478282463,7.722040176,41.40019989,-10.32015228,85.03047943,71.57180786,10,20506.45866,0.707366943,0.874923706,-0.220169067,20506.44373,-0.54422842,-0.330080175,0.513529097,20506.44874,-2.149902036,1.428828595,-0.880458403,-0.510432541,-0.553665459,0.553832889,0.04145322,0.039409194,-0.155290484,0.3681521,0.565166659,-0.733972749,0.079590721,0.63039124,0.771030843,-0.090101361,5.107656479,40.2332077,-14.64830112,2,20501.83445
1859.328333,185.9328333,1478282462,37.35289344,-122.0352152,48.10693,0,325.546875,6,10,1478282463,7.722040176,41.40019989,-10.32015228,85.03047943,71.57180786,10,20506.46836,0.734893799,0.938095093,-0.20980835,20506.45374,-0.617269874,-0.602819562,0.578061751,20506.45873,-2.140136785,1.429036512,-0.87538446,-0.553736389,-0.780997336,0.599598229,0.07309217,0.107133821,-0.12964721,0.366917047,0.565783484,-0.733529518,0.084825562,0.634274781,0.7677899,-0.090521857,5.107656479,40.2332077,-14.64830112,2,20501.83445
1869.001333,186.9001333,1478282462,37.35289344,-122.0352152,48.10693,0,325.546875,6,10,1478282463,7.722040176,41.40019989,-10.32015228,85.03047943,71.57180786,10,20506.47803,0.754089355,0.983352661,-0.219497681,20506.4737,-0.623641487,-0.705587487,0.569556414,20506.47871,-2.120783936,1.42820443,-0.865490988,-0.538176954,-0.674490988,0.538745821,0.093206711,0.176681444,-0.117683753,0.363968137,0.566978743,-0.732764657,0.09548957,0.641687095,0.761413634,-0.092124596,5.464380264,40.33886719,-14.22281361,2,20501.83445
1878.675333,187.8675333,1478282462,37.35289344,-122.0352152,48.10693,0,325.546875,6,10,1478282463,7.722040176,41.40019989,-10.32015228,85.03047943,71.57180786,10,20506.4877,0.76965332,1.002227783,-0.230575562,20506.4737,-0.623641487,-0.705587487,0.569556414,20506.47871,-2.120783936,1.42820443,-0.865490988,-0.538176954,-0.674490988,0.538745821,0.093206711,0.176681444,-0.117683753,0.363968137,0.566978743,-0.732764657,0.09548957,0.641687095,0.761413634,-0.092124596,5.464380264,40.33886719,-14.22281361,2,20501.83445
1888.369333,188.8369333,1478282462,37.35289344,-122.0352152,48.10693,0,325.546875,6,10,1478282463,7.722040176,41.40019989,-10.32015228,85.03047943,71.57180786,10,20506.4974,0.786254883,1.002365112,-0.247924805,20506.4837,-0.606151709,-0.438231946,0.496443055,20506.4887,-2.11183393,1.43081416,-0.861465929,-0.511176884,-0.322459131,0.461143911,0.124698453,0.243429601,-0.139699027,0.363542735,0.567801386,-0.731820635,0.099382216,0.64495486,0.758798182,-0.090876535,5.464380264,40.33886719,-14.22281361,2,20501.83445
1898.046333,189.8046333,1478282462,37.35289344,-122.0352152,48.10693,0,325.546875,6,10,1478282463,7.722040176,41.40019989,-10.32015228,85.03047943,71.57180786,10,20506.50707,0.815551758,1.013656616,-0.267105103,20506.49371,-0.567403514,-0.035314581,0.42682323,20506.4887,-2.11183393,1.43081416,-0.861465929,-0.511176884,-0.322459131,0.461143911,0.124698453,0.243429601,-0.139699027,0.363542735,0.567801386,-0.731820635,0.099382216,0.64495486,0.758798182,-0.090876535,5.464380264,40.33886719,-14.22281361,2,20501.83445
1907.723333,190.7723333,1478282462,37.35289344,-122.0352152,48.10693,0,325.546875,6,10,1478282463,8.071279526,41.26050568,-10.1190567,83.75668335,70.29801178,10,20506.51675,0.848510742,1.033416748,-0.27796936,20506.5037,-0.483481183,0.336245127,0.410255705,20506.50869,-2.097315622,1.444844822,-0.854236586,-0.341162473,0.382549882,0.42869249,0.163960129,0.2595869,-0.184599414,0.3666228,0.569504061,-0.72843408,0.103134072,0.651591659,0.754069746,-0.082505696,5.927391052,40.49243927,-13.58677292,2,20501.83445
1917.415333,191.7415333,1478282462,37.35289344,-122.0352152,48.10693,0,325.546875,6,10,1478282463,8.699911118,41.33035278,-9.917945862,83.06763458,69.60896301,10,20506.52644,0.882324219,1.070602417,-0.284805298,20506.51369,-0.336093593,0.526134904,0.450561583,20506.51868,-2.093339168,1.452324946,-0.84979163,-0.154042631,0.450866878,0.492319643,0.192998335,0.282273889,-0.199944526,0.369496127,0.569614073,-0.726777546,0.10395585,0.655512393,0.751142859,-0.078024842,5.927391052,40.49243927,-13.58677292,2,20501.83445
1927.104333,192.7104333,1478282462,37.35289344,-122.0352152,48.10693,0,325.546875,6,10,1478282463,9.153924942,41.36528015,-9.616279602,81.63135529,68.17268372,10,20506.53613,0.891082764,1.117614746,-0.279144287,20506.52368,-0.117856064,0.471722794,0.524689606,20506.51868,-2.093339168,1.452324946,-0.84979163,-0.154042631,0.450866878,0.492319643,0.192998335,0.282273889,-0.199944526,0.369496127,0.569614073,-0.726777546,0.10395585,0.655512393,0.751142859,-0.078024842,5.927391052,40.49243927,-13.58677292,2,20501.83445
1936.781333,193.6781333,1478282462,37.35289344,-122.0352152,48.10693,0,325.546875,6,10,1478282463,9.153924942,41.36528015,-9.616279602,81.63135529,68.17268372,10,20506.54581,0.868392944,1.149414063,-0.242935181,20506.53367,0.136740805,0.217101425,0.582915629,20506.52868,-2.092728384,1.456165892,-0.844351857,0.085608065,0.28420195,0.562110186,0.231225997,0.370073974,-0.203171566,0.372287824,0.56869624,-0.725931235,0.10492952,0.659856796,0.747540772,-0.075972721,6.614370346,40.51766205,-13.18867874,2,20501.83445
1946.482333,194.6482333,1478282462,37.35289344,-122.0352152,48.10693,0,325.546875,6,10,1478282463,9.153924942,41.36528015,-9.616279602,81.63135529,68.17268372,10,20506.55551,0.81703186,1.142166138,-0.188156128,20506.53367,0.136740805,0.217101425,0.582915629,20506.53866,-2.095878399,1.45433351,-0.8381952,0.344337761,-0.035232343,0.588723123,0.204117849,0.405976802,-0.165220156,0.374289896,0.566612353,-0.726318024,0.106393813,0.66427511,0.74343729,-0.077715032,6.614370346,40.51766205,-13.18867874,2,20501.83445
1956.147333,195.6147333,1478282462,37.35289344,-122.0352152,48.10693,0,325.546875,6,10,1478282463,9.153924942,41.36528015,-9.616279602,81.63135529,68.17268372,10,20506.56517,0.769577026,1.131408691,-0.121871948,20506.55366,0.606422553,-0.387798066,0.505182484,20506.54865,-2.10264875,1.446423482,-0.832005744,0.583452523,-0.364700437,0.546914697,0.148839086,0.402882636,-0.10461992,0.375102647,0.563497913,-0.728043601,0.108261814,0.668192804,0.739283502,-0.083536208,6.614370346,40.51766205,-13.18867874,2,20501.83445
1965.848333,196.5848333,1478282462,37.35289344,-122.0352152,48.10693,0,325.546875,6,10,1478282463,9.153924942,41.36528015,-9.616279602,81.63135529,68.17268372,10,20506.57488,0.731430054,1.101425171,-0.079284668,20506.56365,0.743438995,-0.422462836,0.387364504,20506.55866,-2.112319134,1.43443562,-0.826264472,0.761302173,-0.50605917,0.46004051,0.098239645,0.396003485,-0.029756259,0.375085418,0.559690169,-0.730718572,0.110037324,0.671337366,0.735405207,-0.092115685,7.248962402,40.24082184,-13.69309235,2,20501.83445
1975.532333,197.5532333,1478282462,37.35289344,-122.0352152,48.10693,0,325.546875,6,10,1478282463,9.153924942,41.36528015,-9.616279602,81.63135529,68.17268372,10,20506.58456,0.717178345,1.025039673,-0.047805786,20506.56365,0.743438995,-0.422462836,0.387364504,20506.56863,-2.123843032,1.421075417,-0.82162868,0.861745,-0.480671942,0.303335309,0.058019403,0.369169205,0.02229917,0.374723284,0.555689249,-0.733790702,0.111099619,0.673410654,0.732255995,-0.101583838,7.248962402,40.24082184,-13.69309235,2,20501.83445
1985.205333,198.5205333,1478282462,37.35289344,-122.0352152,48.10693,0,325.546875,6,10,1478282463,9.153924942,41.36528015,-9.616279602,81.63135529,68.17268372,10,20506.59423,0.710083008,0.913284302,-0.021240234,20506.58364,0.812976262,-0.403620705,0.0597877,20506.57862,-2.136368343,1.40724884,-0.818575912,0.896969795,-0.466044962,0.127321929,0.043034133,0.294866115,0.063442461,0.373968569,0.551836376,-0.737039413,0.111341939,0.674144208,0.730173528,-0.111248247,7.248962402,40.24082184,-13.69309235,2,20501.83445
1994.899333,199.4899333,1478282462,37.35289344,-122.0352152,48.10693,0,325.546875,6,10,1478282463,9.747629166,41.05096436,-9.783874512,73.27436066,59.81568909,10,20506.60393,0.69744873,0.814605713,0.000274658,20506.59363,0.761659811,-0.473694066,0.036676522,20506.58863,-2.148936206,1.393102004,-0.816597871,0.871899307,-0.51437819,0.033962145,0.036159758,0.18446371,0.099788629,0.372754522,0.548214952,-0.740363663,0.111247828,0.673923254,0.728820622,-0.121028863,7.353752136,39.81910706,-14.82339096,2,20501.83445
2004.579333,200.4579333,1478282462,37.35289344,-122.0352152,48.10693,0,325.546875,6,10,1478282463,9.747629166,41.05096436,-9.783874512,73.27436066,59.81568909,10,20506.61361,0.681152344,0.734237671,0.000671387,20506.60362,0.659722793,-0.535631736,0.11721584,20506.60861,-2.170110264,1.365792285,-0.811663121,0.673277378,-0.627754629,0.182334036,0.023568571,0.089172818,0.140391216,0.369743169,0.541508737,-0.746602157,0.112443307,0.67388016,0.725432873,-0.140116557,7.353752136,39.81910706,-14.82339096,2,20501.83445
2014.253333,201.4253333,1478282462,37.35289344,-122.0352152,48.10693,0,325.546875,6,10,1478282463,9.747629166,41.05096436,-9.783874512,73.27436066,59.81568909,10,20506.62328,0.664855957,0.67755127,0.007400513,20506.61361,0.522766271,-0.563425018,0.236540636,20506.60861,-2.170110264,1.365792285,-0.811663121,0.673277378,-0.627754629,0.182334036,0.023568571,0.089172818,0.140391216,0.369743169,0.541508737,-0.746602157,0.112443307,0.67388016,0.725432873,-0.140116557,7.353752136,39.81910706,-14.82339096,2,20501.83445
2023.948333,202.3948333,1478282462,37.35289344,-122.0352152,48.10693,0,325.546875,6,10,1478282463,9.747629166,41.05096436,-9.783874512,73.27436066,59.81568909,10,20506.63298,0.657012939,0.636947632,0.039474487,20506.6236,0.373946966,-0.599849605,0.334429916,20506.61861,-2.177284149,1.354072058,-0.807866422,0.526682079,-0.664069712,0.295170009,-0.01002073,-0.04526316,0.155996472,0.368344967,0.538538767,-0.749175473,0.11416695,0.67487669,0.722814441,-0.148595959,7.218242645,39.44815826,-15.8465023,2,20501.83445
2033.631333,203.3631333,1478282462,37.35289344,-122.0352152,48.10693,0,325.546875,6,10,1478282463,9.747629166,41.05096436,-9.783874512,73.27436066,59.81568909,10,20506.64266,0.663711548,0.61416626,0.066177368,20506.6336,0.264415145,-0.608947762,0.401624133,20506.63859,-2.185209831,1.334701123,-0.798639121,0.301217884,-0.679084718,0.430659652,-0.021314779,-0.07945966,0.202667922,0.365724436,0.533524994,-0.75322332,0.119379009,0.678327739,0.716407299,-0.163193434,7.218242645,39.44815826,-15.8465023,2,20501.83445
2043.307333,204.3307333,1478282462,37.35289344,-122.0352152,48.10693,0,325.546875,6,10,1478282463,9.747629166,41.05096436,-9.783874512,73.27436066,59.81568909,10,20506.65233,0.682022095,0.610595703,0.109558105,20506.64359,0.180335421,-0.585377988,0.445653643,20506.63859,-2.185209831,1.334701123,-0.798639121,0.301217884,-0.679084718,0.430659652,-0.021314779,-0.07945966,0.202667922,0.365724436,0.533524994,-0.75322332,0.119379009,0.678327739,0.716407299,-0.163193434,7.218242645,39.44815826,-15.8465023,2,20501.83445
2052.998333,205.2998333,1478282462,37.35289344,-122.0352152,48.10693,0,325.546875,6,10,1478282463,9.88732338,41.19065857,-10.7223587,71.27711487,57.81844711,10,20506.66203,0.703720093,0.634384155,0.173995972,20506.65358,0.089598859,-0.507004885,0.455005866,20506.64859,-2.18695183,1.32695897,-0.793645402,0.215985775,-0.636540413,0.463136882,0.00151491,-0.102318645,0.278859913,0.364632587,0.531405839,-0.754765037,0.122395464,0.680507183,0.712914348,-0.169301823,7.34091568,39.18150711,-16.44057274,2,20501.83445
2062.682333,206.2682333,1478282462,37.35289344,-122.0352152,48.10693,0,325.546875,6,10,1478282463,9.88732338,41.19065857,-10.7223587,71.27711487,57.81844711,10,20506.67171,0.724212646,0.663925171,0.237487793,20506.66356,-0.015514778,-0.307362612,0.397256283,20506.66855,-2.186454384,1.318723957,-0.785225201,-0.002748865,-0.245700076,0.351825267,0.018841134,-0.072600313,0.350386947,0.363682365,0.528715094,-0.756271165,0.127473177,0.684878945,0.70698446,-0.176390976,7.34091568,39.18150711,-16.44057274,2,20501.83445
2072.360333,207.2360333,1478282462,37.35289344,-122.0352152,48.10693,0,325.546875,6,10,1478282463,10.20163918,41.01603699,-11.96252441,73.90640259,60.44773102,10,20506.68139,0.727111816,0.687057495,0.29083252,20506.67357,-0.152005512,-0.00544217,0.28289402,20506.66855,-2.186454384,1.318723957,-0.785225201,-0.002748865,-0.245700076,0.351825267,0.018841134,-0.072600313,0.350386947,0.363682365,0.528715094,-0.756271165,0.127473177,0.684878945,0.70698446,-0.176390976,7.34091568,39.18150711,-16.44057274,2,20501.83445
2082.051333,208.2051333,1478282462,37.35289344,-122.0352152,48.10693,0,325.546875,6,10,1478282463,10.20163918,41.01603699,-11.96252441,73.90640259,60.44773102,10,20506.69108,0.712310791,0.699249268,0.307540894,20506.68356,-0.323967155,0.352333815,0.134939976,20506.67856,-2.184008162,1.320500916,-0.783082998,-0.155420214,0.094162196,0.214361936,0.040454764,-0.018410323,0.466380924,0.364290036,0.528695148,-0.755799067,0.128615626,0.686657071,0.70546782,-0.175548419,7.608131409,39.05179977,-16.62664795,2,20501.83445
2091.736333,209.1736333,1478282462,37.35289344,-122.0352152,48.10693,0,325.546875,6,10,1478282463,10.20163918,41.01603699,-11.96252441,73.90640259,60.44773102,10,20506.70076,0.694366455,0.709274292,0.29586792,20506.68356,-0.323967155,0.352333815,0.134939976,20506.68855,-2.179604955,1.327172412,-0.78276136,-0.344393998,0.440351754,0.075903915,0.024277687,-0.005990556,0.478559136,0.365731043,0.529841187,-0.754299071,0.128615834,0.688033104,0.705239832,-0.171018243,7.608131409,39.05179977,-16.62664795,2,20501.83445
2101.420333,210.1420333,1478282462,37.35289344,-122.0352152,48.10693,0,325.546875,6,10,1478282463,10.20163918,41.01603699,-11.96252441,73.90640259,60.44773102,10,20506.71045,0.676971436,0.704498291,0.242874146,20506.69355,-0.522337236,0.665917305,0.027116306,20506.69854,-2.172744762,1.33849577,-0.783785641,-0.550017834,0.710741758,-0.001392477,0.005144323,0.003308655,0.458918124,0.367893493,0.53209893,-0.751782135,0.127862145,0.689222157,0.705965638,-0.163050219,7.608131409,39.05179977,-16.62664795,2,20501.83445
2111.102333,211.1102333,1478282462,37.35289344,-122.0352152,48.10693,0,325.546875,6,10,1478282463,10.20163918,41.01603699,-11.96252441,73.90640259,60.44773102,10,20506.72013,0.660980225,0.702789307,0.200180054,20506.71353,-0.945658409,0.919302968,-0.043890226,20506.71853,-2.150502065,1.370677936,-0.787947172,-0.965538144,0.807672977,-0.038744651,-0.014254952,-0.004408612,0.38307786,0.37282793,0.539349119,-0.74442846,0.126206698,0.691226363,0.708906889,-0.140203729,7.870191574,39.17690277,-16.20500946,2,20501.83445
2120.764333,212.0764333,1478282462,37.35289344,-122.0352152,48.10693,0,325.546875,6,10,1478282463,10.20163918,41.01603699,-11.96252441,73.90640259,60.44773102,10,20506.72979,0.648620605,0.708328247,0.179885864,20506.72353,-1.130272198,0.841897659,-0.046757119,20506.72852,-2.135444802,1.388740276,-0.790474658,-1.128849149,0.713267207,-0.051396281,-0.030901324,-0.007897972,0.327551603,0.374751409,0.543944484,-0.740129453,0.126072092,0.691881537,0.71068728,-0.127371565,7.870191574,39.17690277,-16.20500946,2,20501.83445
2130.464333,213.0464333,1478282462,37.35289344,-122.0352152,48.10693,0,325.546875,6,10,1478282463,10.20163918,41.01603699,-11.96252441,73.90640259,60.44773102,10,20506.73949,0.644805908,0.694152832,0.149108887,20506.72353,-1.130272198,0.841897659,-0.046757119,20506.72852,-2.135444802,1.388740276,-0.790474658,-1.128849149,0.713267207,-0.051396281,-0.030901324,-0.007897972,0.327551603,0.374751409,0.543944484,-0.740129453,0.126072092,0.691881537,0.71068728,-0.127371565,7.870191574,39.17690277,-16.20500946,2,20501.83445
2140.152333,214.0152333,1478282462,37.35289344,-122.0352152,48.10693,0,325.546875,6,10,1478282463,10.655653,40.91126633,-11.72790527,75.46855927,62.0098877,10,20506.74918,0.649993896,0.656585693,0.106674194,20506.7435,-1.352044275,0.549568857,-0.04537121,20506.73851,-2.118536927,1.406924137,-0.793117365,-1.241903663,0.577659667,-0.054866921,-0.047421839,-0.018391129,0.263572216,0.376100946,0.548922963,-0.735688612,0.126467091,0.692227721,0.712543964,-0.114463322,8.233455658,39.69937134,-14.6813488,2,20501.83445
2149.808333,214.9808333,1478282462,37.35289344,-122.0352152,48.10693,0,325.546875,6,10,1478282463,10.655653,40.91126633,-11.72790527,75.46855927,62.0098877,10,20506.75884,0.655670166,0.618484497,0.071426392,20506.7535,-1.355685082,0.25039227,0.018877817,20506.74851,-2.100587683,1.423745306,-0.795373154,-1.284165859,0.333340198,-0.015678253,-0.042469468,-0.057539176,0.209242016,0.376685191,0.553917283,-0.731427754,0.127661082,0.692463338,0.714124858,-0.102567822,8.233455658,39.69937134,-14.6813488,2,20501.83445
2159.518333,215.9518333,1478282462,37.35289344,-122.0352152,48.10693,0,325.546875,6,10,1478282463,11.00489235,40.98110962,-10.78940582,76.49981689,63.04114914,10,20506.76855,0.65447998,0.591629028,0.040313721,20506.7535,-1.355685082,0.25039227,0.018877817,20506.7585,-2.082625431,1.437383041,-0.796687082,-1.250298619,-0.011210099,0.067321278,-0.037196986,-0.096559532,0.164416447,0.376291151,0.558488983,-0.727736218,0.129980858,0.69286716,0.715044022,-0.092990056,8.233455658,39.69937134,-14.6813488,2,20501.83445
2169.203333,216.9203333,1478282462,37.35289344,-122.0352152,48.10693,0,325.546875,6,10,1478282463,11.00489235,40.98110962,-10.78940582,76.49981689,63.04114914,10,20506.77823,0.647171021,0.571105957,0.026382446,20506.77347,-1.182240591,-0.522337769,0.17973834,20506.77848,-2.050004325,1.450817403,-0.796294631,-1.049275279,-0.766118467,0.201664448,-0.039852422,-0.123140588,0.124021016,0.372110766,0.56540245,-0.723023386,0.138169573,0.694332421,0.714769602,-0.083707295,8.339075089,40.14299011,-13.35560799,2,20501.83445
2178.864333,217.8864333,1478282462,37.35289344,-122.0352152,48.10693,0,325.546875,6,10,1478282463,11.00489235,40.98110962,-10.78940582,76.49981689,63.04114914,10,20506.78789,0.639144897,0.558609009,0.022323608,20506.77347,-1.182240591,-0.522337769,0.17973834,20506.77848,-2.050004325,1.450817403,-0.796294631,-1.049275279,-0.766118467,0.201664448,-0.039852422,-0.123140588,0.124021016,0.372110766,0.56540245,-0.723023386,0.138169573,0.694332421,0.714769602,-0.083707295,8.339075089,40.14299011,-13.35560799,2,20501.83445
2188.570333,218.8570333,1478282462,37.35289344,-122.0352152,48.10693,0,325.546875,6,10,1478282463,11.00489235,40.98110962,-10.78940582,76.49981689,63.04114914,10,20506.7976,0.630905151,0.542327881,0.01461792,20506.78348,-1.074039019,-0.824920806,0.204423979,20506.78847,-2.035868122,1.451365836,-0.795392153,-0.948712766,-1.008495927,0.206673563,-0.055873495,-0.155529156,0.10572692,0.368565322,0.567853809,-0.721894115,0.143424342,0.695018411,0.71413815,-0.083403312,8.339075089,40.14299011,-13.35560799,2,20501.83445
2198.251333,219.8251333,1478282462,37.35289344,-122.0352152,48.10693,0,325.546875,6,10,1478282463,11.17951393,41.1557312,-10.01850128,75.18675995,61.72808838,10,20506.80728,0.627029419,0.523834229,0.011016846,20506.80346,-0.917172706,-1.076073408,0.163424348,20506.79847,-2.022952435,1.44954185,-0.794565562,-0.870814919,-1.130402207,0.184070557,-0.064545684,-0.171231419,0.099360168,0.364474178,0.569901264,-0.721252806,0.148880869,0.695450842,0.71355933,-0.084742248,8.282838821,40.55770874,-12.07636833,2,20501.83445
2207.917333,220.7917333,1478282462,37.35289344,-122.0352152,48.10693,0,325.546875,6,10,1478282463,11.17951393,41.1557312,-10.01850128,75.18675995,61.72808838,10,20506.81694,0.629486084,0.50579834,0,20506.81343,-0.871463274,-1.063560279,0.133646212,20506.81843,-1.999671956,1.443343533,-0.79365753,-0.774041712,-1.111710906,0.126584351,-0.068525195,-0.189088628,0.100150384,0.355851838,0.573413202,-0.72053785,0.159348596,0.695554614,0.712922871,-0.089133538,8.282838821,40.55770874,-12.07636833,2,20501.83445
2217.619333,221.7619333,1478282462,37.35289344,-122.0352152,48.10693,0,325.546875,6,10,1478282463,11.17951393,41.1557312,-10.01850128,75.18675995,61.72808838,10,20506.82665,0.635452271,0.486328125,-0.003356934,20506.81343,-0.871463274,-1.063560279,0.133646212,20506.81843,-1.999671956,1.443343533,-0.79365753,-0.774041712,-1.111710906,0.126584351,-0.068525195,-0.189088628,0.100150384,0.355851838,0.573413202,-0.72053785,0.159348596,0.695554614,0.712922871,-0.089133538,8.282838821,40.55770874,-12.07636833,2,20501.83445
