time (ms),time (ds),locationTimestamp_since1970,accelerometerAccelerationX,accelerometerAccelerationY,accelerometerAccelerationZ,gyroRotationX,gyroRotationY,gyroRotationZ,motionYaw,motionRoll,motionPitch,motionRotationRateX,motionRotationRateY,motionRotationRateZ,motionUserAccelerationX,motionUserAccelerationY,motionUserAccelerationZ,motionQuaternionY,motionQuaternionZ,motionQuaternionW,motionGravityX,motionGravityY,motionGravityZ,motionMagneticFieldX,motionMagneticFieldY,motionMagneticFieldZ,altimeterRelativeAltitude,altimeterPressure
0,0,1478109661,0.177780151,-0.259429932,-0.953521729,-0.865575824,-0.608680647,-0.068890651,-0.056958373,0.206425319,0.310350335,-0.790405512,-0.680557787,-0.062222447,-0.006877226,0.019350994,0.026767796,0.097372742,-0.012066395,0.982781644,0.195170686,-0.305392265,-0.93201071,27.0194912,-17.03863144,-26.24793625,-0.344614,101.4225
9.688,0.9688,1478109661,0.197601318,-0.258666992,-0.991012573,-0.865575824,-0.608680647,-0.068890651,-0.056958373,0.206425319,0.310350335,-0.790405512,-0.680557787,-0.062222447,-0.006877226,0.019350994,0.026767796,0.097372742,-0.012066395,0.982781644,0.195170686,-0.305392265,-0.93201071,27.0194912,-17.03863144,-26.24793625,-0.344614,101.4225
19.382,1.9382,1478109661,0.191009521,-0.260604858,-1.027603149,-0.874116581,-0.682875516,-0.079243157,-0.055979921,0.198770119,0.302323103,-0.798946559,-0.754752457,-0.072574966,0.009093003,0.039071761,-0.055162024,0.093858104,-0.012595072,0.983751309,0.188508317,-0.297738761,-0.935850561,27.0194912,-17.03863144,-26.24793625,-0.344614,101.4225
29.047,2.9047,1478109661,0.144699097,-0.327865601,-0.99798584,-0.76700877,-0.772463456,-0.029995183,-0.054277225,0.181866266,0.287787777,-0.691838861,-0.844340205,-0.02332701,0.017582394,0.02322682,-0.084542915,0.085961222,-0.013727032,0.985566683,0.17342712,-0.283831686,-0.943060219,26.56771088,-16.47508621,-27.056427,-0.344614,101.4225
38.723,3.8723,1478109661,0.113265991,-0.319259644,-1.004333496,-0.632205414,-0.659676986,0.037295441,-0.052898749,0.173830999,0.28195882,-0.557035506,-0.731553733,0.043963615,-0.021428101,-0.049627949,-0.051949073,0.082212816,-0.013891965,0.986319115,0.16612719,-0.278237641,-0.946036756,26.56771088,-16.47508621,-27.056427,-0.344614,101.4225
48.402,4.8402,1478109661,0.105865479,-0.301208496,-1.019042969,-0.632205414,-0.659676986,0.037295441,-0.052898749,0.173830999,0.28195882,-0.557035506,-0.731553733,0.043963615,-0.021428101,-0.049627949,-0.051949073,0.082212816,-0.013891965,0.986319115,0.16612719,-0.278237641,-0.946036756,26.56771088,-16.47508621,-27.056427,-0.344614,101.4225
58.101,5.8101,1478109661,0.107833862,-0.296569824,-1.031524658,-0.268273266,-0.490811534,0.22999938,-0.048508688,0.160371008,0.275984786,-0.19310376,-0.562688231,0.236667633,-0.047776099,-0.028713908,-0.06923195,0.075989596,-0.012929396,0.987288377,0.153641582,-0.272494584,-0.949811041,25.9214859,-15.94787216,-27.98328209,-0.344614,101.4225
67.775,6.7775,1478109661,0.114334106,-0.294372559,-1.05632019,-0.131921549,-0.532179747,0.356591145,-0.044979238,0.153579356,0.275643527,-0.056752272,-0.60405618,0.363259375,-0.03936765,-0.024403596,-0.080600232,0.072887192,-0.01167206,0.987585933,0.147201508,-0.272166222,-0.950924397,25.9214859,-15.94787216,-27.98328209,-0.344614,101.4225
77.459,7.7459,1478109661,0.115219116,-0.282043457,-1.062347412,-0.131921549,-0.532179747,0.356591145,-0.044979238,0.153579356,0.275643527,-0.056752272,-0.60405618,0.363259375,-0.03936765,-0.024403596,-0.080600232,0.072887192,-0.01167206,0.987585933,0.147201508,-0.272166222,-0.950924397,25.9214859,-15.94787216,-27.98328209,-0.344614,101.4225
87.124,8.7124,1478109661,0.113601685,-0.269195557,-1.044128418,-0.057418019,-0.687968013,0.477777225,-0.040302088,0.145150925,0.276357794,0.017751029,-0.759844244,0.484445423,-0.023934308,-0.009189996,-0.110408701,0.069037936,-0.009919372,0.987861813,0.139153421,-0.272853464,-0.951938689,25.27963448,-16.011446,-28.52885818,-0.344614,101.4225
96.815,9.6815,1478109661,0.098968506,-0.222564697,-1.00920105,-0.032311068,-0.883352957,0.544130682,-0.034814588,0.134583045,0.277489497,0.042857904,-0.955229104,0.550798893,-0.015442668,0.004746491,-0.091078937,0.064182643,-0.007902141,0.988161068,0.129044354,-0.273942053,-0.953049481,25.27963448,-16.011446,-28.52885818,-0.344614,101.4225
106.494,10.6494,1478109661,0.064880371,-0.185836792,-0.998046875,-0.039714922,-1.024233113,0.536309777,-0.029203872,0.122351446,0.278504293,0.03545332,-1.09610939,0.542978048,-0.018375177,0.052353185,-0.054920893,0.058516388,-0.005947881,0.988486065,0.117343679,-0.274917871,-0.954280138,25.27963448,-16.011446,-28.52885818,-0.344614,101.4225
116.156,11.6156,1478109661,0.04826355,-0.184844971,-1.000320435,-0.174480727,-1.15416102,0.294830308,-0.020726407,0.096357033,0.278687112,-0.099312633,-1.226037145,0.301498532,-0.027615672,0.08925686,-0.041089214,0.046252843,-0.003561951,0.989174475,0.092496045,-0.275093645,-0.956957638,24.1803894,-16.42772293,-29.23628998,-0.344614,101.4225
125.852,12.5852,1478109661,0.061752319,-0.199203491,-1.032669067,-0.174480727,-1.15416102,0.294830308,-0.020726407,0.096357033,0.278687112,-0.099312633,-1.226037145,0.301498532,-0.027615672,0.08925686,-0.041089214,0.046252843,-0.003561951,0.989174475,0.092496045,-0.275093645,-0.956957638,24.1803894,-16.42772293,-29.23628998,-0.344614,101.4225
135.53,13.553,1478109661,-0.001937866,-0.220001221,-1.017791748,-0.239608598,-1.056938063,0.127146501,-0.018757169,0.084304057,0.277352541,-0.164384216,-1.12893784,0.133747622,-0.019233938,0.074606836,-0.074301116,0.040437913,-0.003455375,0.98953122,0.080986261,-0.273810327,-0.958367944,24.1803894,-16.42772293,-29.23628998,-0.344614,101.4225
145.19,14.519,1478109661,-0.00352478,-0.227783203,-0.957260132,-0.324912311,-1.089958864,-0.040774861,-0.01853002,0.072853677,0.275138311,-0.249688074,-1.161958575,-0.034173753,-0.071989335,0.051678829,-0.057957001,0.034803458,-0.004177159,0.989898947,0.070051469,-0.271680057,-0.959834754,23.01274872,-16.51030731,-30.11885071,-0.344614,101.4225
154.887,15.4887,1478109661,-0.017807007,-0.253234863,-0.91267395,-0.690980847,-1.222792811,-0.228845432,-0.021408502,0.048041854,0.265627785,-0.615756691,-1.294792295,-0.222244337,-0.049863875,0.034731884,0.006554434,0.022388665,-0.007426263,0.990884521,0.046339095,-0.262515098,-0.963814557,23.01274872,-16.51030731,-30.11885071,-0.344614,101.4225
164.566,16.4566,1478109661,-0.061584473,-0.284515381,-0.897201538,-0.690980847,-1.222792811,-0.228845432,-0.021408502,0.048041854,0.265627785,-0.615756691,-1.294792295,-0.222244337,-0.049863875,0.034731884,0.006554434,0.022388665,-0.007426263,0.990884521,0.046339095,-0.262515098,-0.963814557,23.01274872,-16.51030731,-30.11885071,-0.344614,101.4225
174.231,17.4231,1478109661,-0.084243774,-0.305038452,-0.881744385,-0.904622825,-1.201899514,-0.253135326,-0.023582922,0.035841874,0.257775389,-0.82939899,-1.273898721,-0.246534258,-0.096234694,-0.029585306,0.069136925,0.016254813,-0.009388393,0.991504457,0.034650221,-0.254930079,-0.966338456,21.93117905,-15.96913719,-31.19827271,-0.344614,101.4225
183.925,18.3925,1478109661,-0.110397339,-0.300506592,-0.8253479,-1.098687374,-1.19751382,-0.218879085,-0.025600862,0.023648218,0.247951346,-1.023463726,-1.269513011,-0.212278023,-0.107166626,-0.059619978,0.087401792,0.010149397,-0.011238955,0.992192912,0.022922853,-0.245418474,-0.969146192,21.93117905,-15.96913719,-31.19827271,-0.344614,101.4225
193.603,19.3603,1478109661,-0.132247925,-0.278442383,-0.746170044,-1.098687374,-1.19751382,-0.218879085,-0.025600862,0.023648218,0.247951346,-1.023463726,-1.269513011,-0.212278023,-0.107166626,-0.059619978,0.087401792,0.010149397,-0.011238955,0.992192912,0.022922853,-0.245418474,-0.969146192,21.93117905,-15.96913719,-31.19827271,-0.344614,101.4225
203.281,20.3281,1478109661,-0.125305176,-0.234008789,-0.695861816,-1.351131876,-0.871631586,-0.086358591,-0.027967952,0.001855818,0.223994624,-1.27590847,-0.943630517,-0.079757556,-0.134057373,-0.056316167,0.228846192,-0.000640839,-0.013792209,0.993638715,0.001809454,-0.222126216,-0.975016236,21.1998806,-15.26000118,-32.04714966,-0.344614,101.4225
212.958,21.2958,1478109661,-0.123123169,-0.195022583,-0.703216553,-1.382999528,-0.507936725,-0.011163439,-0.028233136,-0.004828036,0.210951024,-1.307776332,-0.579935431,-0.00456242,-0.120584182,-0.024618853,0.281958997,-0.0038865,-0.014291732,0.994337045,-0.004720991,-0.20938994,-0.977820814,21.1998806,-15.26000118,-32.04714966,-0.344614,101.4225
222.632,22.2632,1478109661,-0.094345093,-0.16468811,-0.723632813,-1.382999528,-0.507936725,-0.011163439,-0.028233136,-0.004828036,0.210951024,-1.307776332,-0.579935431,-0.00456242,-0.120584182,-0.024618853,0.281958997,-0.0038865,-0.014291732,0.994337045,-0.004720991,-0.20938994,-0.977820814,21.1998806,-15.26000118,-32.04714966,-0.344614,101.4225
232.314,23.2314,1478109661,-0.061355591,-0.132232666,-0.752685547,-1.120593738,0.111990185,0.044115263,-0.027436055,-0.008349328,0.18744836,-1.045370698,0.039991669,0.050716262,-0.086142115,0.021664452,0.258815885,-0.005439717,-0.014047929,0.995503391,-0.008202977,-0.186352566,-0.982448697,20.4180851,-13.9872551,-33.11767578,-0.344614,101.4225
241.992,24.1992,1478109661,-0.040908813,-0.129745483,-0.772171021,-0.888318687,0.274817452,-0.003414705,-0.027317583,-0.006693287,0.178723045,-0.813095868,0.202819139,0.003186274,-0.054768968,0.045540437,0.231363907,-0.004551875,-0.013902428,0.995907351,-0.006586624,-0.177773103,-0.984049439,20.4180851,-13.9872551,-33.11767578,-0.344614,101.4225
251.642,25.1642,1478109661,-0.021697998,-0.133911133,-0.773361206,-0.637043845,0.364267707,-0.096526274,-0.028006071,-0.003853173,0.17248102,-0.561821163,0.292269558,-0.089925304,-0.037112825,0.041881599,0.212983653,-0.003125328,-0.01411644,0.996181742,-0.003795991,-0.171627074,-0.985154688,20.4180851,-13.9872551,-33.11767578,-0.344614,101.4225
261.348,26.1348,1478109661,-0.024078369,-0.149429321,-0.762954712,-0.394361693,0.473785945,-0.195839279,-0.029691954,0.000130539,0.168711014,-0.319139272,0.401787996,-0.189238325,-0.021826684,0.034000672,0.212440804,-0.001185779,-0.014787145,0.996334455,0.000128686,-0.167911798,-0.985801995,20.58032799,-12.83773804,-33.48080826,-0.344614,101.4225
271.021,27.1021,1478109661,-0.024276733,-0.171844482,-0.758041382,-0.204853547,0.637565825,-0.255092217,-0.032085156,0.00575761,0.166978331,-0.129631191,0.565567911,-0.248491257,-0.029755868,0.01677415,0.223120421,0.001530641,-0.015745908,0.996388295,0.005677499,-0.166203469,-0.986075163,20.58032799,-12.83773804,-33.48080826,-0.344614,101.4225
280.696,28.0696,1478109661,-0.008804321,-0.183532715,-0.756286621,-0.092962432,0.823929311,-0.260718943,-0.034671441,0.013232938,0.166548222,-0.017740218,0.751931608,-0.254118025,-0.037326183,-0.006065154,0.228035152,0.005150657,-0.016724147,0.996372706,0.013049451,-0.165779322,-0.986076534,20.58032799,-12.83773804,-33.48080826,-0.344614,101.4225
290.383,29.0383,1478109661,0.016998291,-0.178665161,-0.764312744,-0.077859911,0.986284133,-0.212115721,-0.036908111,0.022350236,0.166498563,-0.002637698,0.914286435,-0.205514789,-0.030843643,-0.017802358,0.229638189,0.009599958,-0.017458884,0.996322031,0.022039322,-0.165730357,-0.98592478,21.28478241,-12.56602859,-33.14174271,-0.344614,101.4225
300.056,30.0056,1478109661,0.027542114,-0.176467896,-0.776168823,-0.135126131,1.102228579,-0.134068589,-0.038378504,0.032625257,0.166035684,-0.059904218,1.030231118,-0.127467692,-0.015172587,-0.013391301,0.221410125,0.014661822,-0.017767072,0.996265913,0.032170877,-0.16527386,-0.985722899,21.28478241,-12.56602859,-33.14174271,-0.344614,101.4225
309.722,30.9722,1478109661,0.047897339,-0.158691406,-0.793731689,-0.217053488,1.187291276,-0.078745146,-0.039182285,0.043703038,0.164795385,-0.141831726,1.11529398,-0.072144262,-0.01555511,-0.012417404,0.209341228,0.020159519,-0.017720774,0.996213331,0.043097224,-0.16405049,-0.985510051,21.28478241,-12.56602859,-33.14174271,-0.344614,101.4225
319.415,31.9415,1478109661,0.066421509,-0.125823975,-0.815750122,-0.297998139,1.215020908,-0.045350438,-0.03955345,0.055166083,0.162751634,-0.222776368,1.14302361,-0.03874955,-0.006512126,0.003342682,0.191552311,0.025876047,-0.017461104,0.996161187,0.054409467,-0.162034094,-0.98528403,22.35485458,-12.40435791,-32.49176025,-0.344614,101.4225
329.092,32.9092,1478109661,0.068069458,-0.098266602,-0.831222534,-0.371535739,1.158948851,-0.034152378,-0.039664052,0.066217114,0.159960818,-0.296314299,1.086951852,-0.027551517,0.001097516,0.033455551,0.169319823,0.031406689,-0.017112289,0.99611352,0.065323994,-0.159279525,-0.985069931,22.35485458,-12.40435791,-32.49176025,-0.344614,101.4225
338.761,33.8761,1478109661,0.053131104,-0.063430786,-0.844421387,-0.371535739,1.158948851,-0.034152378,-0.039664052,0.066217114,0.159960818,-0.296314299,1.086951852,-0.027551517,0.001097516,0.033455551,0.169319823,0.031406689,-0.017112289,0.99611352,0.065323994,-0.159279525,-0.985069931,22.35485458,-12.40435791,-32.49176025,-0.344614,101.4225
348.425,34.8425,1478109661,0.101501465,-0.063919067,-0.848800659,-0.394201904,1.228583855,-0.06654121,-0.039916822,0.077436549,0.156738063,-0.318980664,1.156587005,-0.059940368,-0.023279788,0.092666306,0.140360355,0.037020862,-0.016851073,0.996045637,0.07641089,-0.156097084,-0.984781742,23.07757378,-12.21229935,-32.05631638,-0.344614,101.4225
358.125,35.8125,1478109661,0.076843262,-0.03137207,-0.806167603,-0.537133759,1.138316543,-0.24036174,-0.042640865,0.10109605,0.148985508,-0.461912662,1.066319823,-0.233760908,0.001695552,0.084515885,0.135072216,0.048790323,-0.017473016,0.995806775,0.099805914,-0.148434952,-0.98387289,23.07757378,-12.21229935,-32.05631638,-0.344614,101.4225
367.802,36.7802,1478109661,0.074691772,-0.005264282,-0.768127441,-0.769984852,0.992810475,-0.286604869,-0.044680414,0.110877975,0.142412864,-0.69476378,0.920813859,-0.280004054,-0.032687481,0.110559896,0.177630305,0.053669537,-0.018306235,0.995772985,0.109530739,-0.141931966,-0.983797908,23.07757378,-12.21229935,-32.05631638,-0.344614,101.4225
377.481,37.7481,1478109661,0.082077026,-0.003875732,-0.741363525,-0.769984852,0.992810475,-0.286604869,-0.044680414,0.110877975,0.142412864,-0.69476378,0.920813859,-0.280004054,-0.032687481,0.110559896,0.177630305,0.053669537,-0.018306235,0.995772985,0.109530739,-0.141931966,-0.983797908,23.07757378,-12.21229935,-32.05631638,-0.344614,101.4225
387.153,38.7153,1478109661,0.102478027,-0.024856567,-0.72366333,-1.03707168,1.011466718,-0.323714687,-0.046710273,0.120406064,0.133188117,-0.96185106,0.93947053,-0.317113876,-0.036974519,0.128918961,0.242604107,0.058465729,-0.019256346,0.995797674,0.119051546,-0.132794693,-0.983967602,24.53281021,-11.40805721,-31.26210976,-0.344614,101.4225
396.838,39.6838,1478109661,0.08895874,-0.066696167,-0.688217163,-1.30053288,1.729670664,-0.551291124,-0.05231804,0.145945007,0.108231834,-1.225312233,1.657674551,-0.544690311,-0.042098481,0.083164081,0.259916455,0.071365118,-0.022106044,0.995641105,0.144576505,-0.108020648,-0.983579755,24.53281021,-11.40805721,-31.26210976,-0.344614,101.4225
406.514,40.6514,1478109661,0.059082031,-0.0756073,-0.736282349,-1.30053288,1.729670664,-0.551291124,-0.05231804,0.145945007,0.108231834,-1.225312233,1.657674551,-0.544690311,-0.042098481,0.083164081,0.259916455,0.071365118,-0.022106044,0.995641105,0.144576505,-0.108020648,-0.983579755,24.53281021,-11.40805721,-31.26210976,-0.344614,101.4225
416.17,41.617,1478109662,0.12487793,-0.099411011,-0.833770752,-0.813453234,2.716584102,-0.715502968,-0.063027888,0.195246801,0.088423511,-0.738233089,2.644588232,-0.70890224,-0.13416867,0.01270103,0.240884885,0.095938847,-0.027022353,0.99390815,0.193250701,-0.088308327,-0.977167249,25.92625427,-10.01050949,-30.60949516,-0.344614,101.4225
425.869,42.5869,1478109662,0.37411499,-0.421081543,-2.189880371,0.055897621,1.128542209,-0.315341975,-0.067167119,0.21246792,0.086029774,0.131117582,1.056546569,-0.308741242,-0.085215166,-0.013487317,0.140127599,0.104440701,-0.028799997,0.993035618,0.210093096,-0.085923694,-0.973898351,25.92625427,-10.01050949,-30.60949516,-0.344614,101.4225
435.548,43.5548,1478109662,0.244293213,-0.332550049,-1.2684021,0.055897621,1.128542209,-0.315341975,-0.067167119,0.21246792,0.086029774,0.131117582,1.056546569,-0.308741242,-0.085215166,-0.013487317,0.140127599,0.104440701,-0.028799997,0.993035618,0.210093096,-0.085923694,-0.973898351,25.92625427,-10.01050949,-30.60949516,-0.344614,101.4225
445.227,44.5227,1478109662,0.172622681,-0.206298828,-0.835067749,0.777721069,-0.225393709,0.256957761,-0.067275188,0.21132061,0.093519808,0.852940798,-0.29738906,0.263558477,0.035458468,-0.239166498,-0.294919908,0.103725689,-0.028480247,0.992940062,0.208834752,-0.093383551,-0.973482192,27.70854568,-9.276435852,-29.2490406,-0.344614,101.4225
454.901,45.4901,1478109662,0.121673584,-0.075332642,-0.800354004,0.807777505,-0.160294601,0.472189647,-0.064853402,0.208165866,0.103201284,0.882997155,-0.232289866,0.478790343,-0.032943457,-0.103280641,0.138138205,0.102039124,-0.026846787,0.99291602,0.205566138,-0.103018187,-0.973205924,27.70854568,-9.276435852,-29.2490406,-0.344614,101.4225
464.567,46.4567,1478109662,0.056533813,0.056488037,-0.871643066,0.644226391,0.259030233,0.489260775,-0.061482809,0.2086737,0.111746819,0.719445825,0.187035158,0.495861441,-0.084196858,0.036181752,0.171850652,0.102228865,-0.024708399,0.992719409,0.20587045,-0.111514397,-0.972204685,27.70854568,-9.276435852,-29.2490406,-0.344614,101.4225
474.248,47.4248,1478109662,0.126724243,0.106414795,-0.931030273,0.147552174,0.429612092,0.100367085,-0.057940047,0.215587591,0.120791058,0.222771451,0.35761717,0.106967755,-0.155828923,0.176985577,0.098090097,0.105605745,-0.022254355,0.99215489,0.212362736,-0.12049754,-0.969733179,27.52449417,-10.32888603,-29.06954575,-0.344614,101.4225
483.937,48.3937,1478109662,0.215316772,-0.036239624,-0.824310303,0.147552174,0.429612092,0.100367085,-0.057940047,0.215587591,0.120791058,0.222771451,0.35761717,0.106967755,-0.155828923,0.176985577,0.098090097,0.105605745,-0.022254355,0.99215489,0.212362736,-0.12049754,-0.969733179,27.52449417,-10.32888603,-29.06954575,-0.344614,101.4225
493.608,49.3608,1478109662,0.204193115,-0.174835205,-0.78604126,-0.092748313,0.37315574,0.0699679,-0.057344617,0.218635109,0.121396912,-0.01752926,0.301161051,0.076568544,1.56E-05,0.084859334,0.144699737,0.1071256,-0.021829359,0.991982106,0.215301156,-0.121098958,-0.969010055,27.52449417,-10.32888603,-29.06954575,-0.344614,101.4225
503.289,50.3289,1478109662,0.191940308,-0.15574646,-0.778198242,-0.442630955,0.196257395,0.083223518,-0.055850421,0.220242467,0.118944708,-0.36741212,0.124262907,0.089824148,-0.012729532,-0.056170765,0.182908341,0.108012201,-0.021173847,0.991981081,0.216922641,-0.118664436,-0.968949616,27.7682457,-10.5859642,-28.74341583,-0.344614,101.4225
512.97,51.297,1478109662,0.184539795,-0.095291138,-0.771972656,-0.874457732,-0.06116269,-0.051636829,-0.054298939,0.219365839,0.112191987,-0.79923898,-0.133157104,-0.045036208,-0.024302294,-0.043789685,0.191701144,0.107737828,-0.020805604,0.992228209,0.216242597,-0.111956775,-0.969899356,27.7682457,-10.5859642,-28.74341583,-0.344614,101.4225
522.65,52.265,1478109662,0.23034668,-0.108932495,-0.654876709,-0.874457732,-0.06116269,-0.051636829,-0.054298939,0.219365839,0.112191987,-0.79923898,-0.133157104,-0.045036208,-0.024302294,-0.043789685,0.191701144,0.107737828,-0.020805604,0.992228209,0.216242597,-0.111956775,-0.969899356,27.7682457,-10.5859642,-28.74341583,-0.344614,101.4225
532.331,53.2331,1478109662,0.218139648,-0.086395264,-0.545913696,-1.459379787,-0.18802157,-0.423216245,-0.055536493,0.213621737,0.087894291,-1.384161234,-0.260015756,-0.416615635,0.019164352,-0.02115133,0.318620324,0.105251066,-0.022897997,0.993088215,0.211182326,-0.087781161,-0.973497033,27.73417854,-10.18144417,-28.92188644,-0.344614,101.4225
542.028,54.2028,1478109662,0.179046631,-0.013977051,-0.57611084,-1.83307748,0.117953003,-0.399758855,-0.055991568,0.21333527,0.070815136,-1.757859111,0.045959018,-0.393158257,0.006949562,-0.0156393,0.428966999,0.105371755,-0.024048167,0.993409294,0.21119009,-0.070755966,-0.974880695,27.73417854,-10.18144417,-28.92188644,-0.344614,101.4225
551.703,55.1703,1478109662,0.170410156,0.092132568,-0.603363037,-1.83307748,0.117953003,-0.399758855,-0.055991568,0.21333527,0.070815136,-1.757859111,0.045959018,-0.393158257,0.006949562,-0.0156393,0.428966999,0.105371755,-0.024048167,0.993409294,0.21119009,-0.070755966,-0.974880695,27.73417854,-10.18144417,-28.92188644,-0.344614,101.4225
561.388,56.1388,1478109662,0.197875977,0.233200073,-0.810806274,-2.682827736,0.400609735,-0.200263322,-0.051341527,0.218265636,0.025113373,-2.607609749,0.328615963,-0.193662763,-0.046058297,0.117243305,0.372603595,0.108551471,-0.024146091,0.99368017,0.216468453,-0.025110733,-0.975966632,27.72080994,-8.553524971,-29.45701981,-0.344614,101.4225
571.067,57.1067,1478109662,0.274353027,0.295944214,-0.80847168,-2.895941609,0.111608554,-0.178562022,-0.047026918,0.219533129,-0.002463142,-2.820723534,0.039614998,-0.171961471,-0.019897344,0.230736941,0.165189996,0.10954469,-0.023504653,0.993703006,0.217773318,0.002463139,-0.975996256,27.72080994,-8.553524971,-29.45701981,-0.344614,101.4225
580.725,58.0725,1478109662,0.237991333,0.280166626,-0.798812866,-2.895941609,0.111608554,-0.178562022,-0.047026918,0.219533129,-0.002463142,-2.820723534,0.039614998,-0.171961471,-0.019897344,0.230736941,0.165189996,0.10954469,-0.023504653,0.993703006,0.217773318,0.002463139,-0.975996256,27.72080994,-8.553524971,-29.45701981,-0.344614,101.4225
590.427,59.0427,1478109662,0.13899231,0.24420166,-0.907287598,-2.728104137,0.263558938,-0.115156151,-0.037000556,0.220614789,-0.057039767,-2.652886391,0.191565588,-0.10855563,0.019517668,0.223157778,0.175363317,0.110544553,-0.021517928,0.993290025,0.218473658,0.057008844,-0.974176168,27.92411613,-6.076474667,-29.87712097,-0.344614,101.4225
600.105,60.0105,1478109662,0.02935791,0.222488403,-1.083694458,-2.345085114,0.469976826,-0.294666524,-0.034044066,0.224370741,-0.080711406,-2.269867659,0.3979837,-0.28806603,-0.082776308,0.163577855,0.064472906,0.112525246,-0.02141639,0.992684034,0.221768618,0.080623806,-0.971760511,27.92411613,-6.076474667,-29.87712097,-0.344614,101.4225
609.757,60.9757,1478109662,0.063720703,0.228622437,-1.149520874,-2.345085114,0.469976826,-0.294666524,-0.034044066,0.224370741,-0.080711406,-2.269867659,0.3979837,-0.28806603,-0.082776308,0.163577855,0.064472906,0.112525246,-0.02141639,0.992684034,0.221768618,0.080623806,-0.971760511,27.92411613,-6.076474667,-29.87712097,-0.344614,101.4225
619.462,61.9462,1478109662,0.071548462,0.209671021,-0.894744873,-1.260148439,0.192941494,-0.611599738,-0.037464229,0.22803364,-0.113503366,-1.184931278,0.120948583,-0.604999244,-0.160887182,0.115362622,-0.18167609,0.114622404,-0.025031479,0.991612734,0.224607885,0.113259815,-0.967844784,28.14595985,-3.661185026,-30.06198311,-0.344614,101.4225
629.141,62.9141,1478109662,0.024902344,0.186721802,-0.847198486,-1.073266436,0.492015283,-0.556326895,-0.040661474,0.23107041,-0.124894133,-0.998049438,0.420022577,-0.549726427,-0.155687287,0.085101329,0.071094818,0.11629009,-0.027347074,0.991045903,0.227235749,0.124569692,-0.965839684,28.14595985,-3.661185026,-30.06198311,-0.344614,101.4225
638.812,63.8812,1478109662,0.0756073,0.187149048,-0.753845215,-1.073266436,0.492015283,-0.556326895,-0.040661474,0.23107041,-0.124894133,-0.998049438,0.420022577,-0.549726427,-0.155687287,0.085101329,0.071094818,0.11629009,-0.027347074,0.991045903,0.227235749,0.124569692,-0.965839684,28.14595985,-3.661185026,-30.06198311,-0.344614,101.4225
648.498,64.8498,1478109662,0.20350647,0.239730835,-0.721313477,-0.954406095,0.879373928,-0.440363806,-0.043114626,0.237732349,-0.134778309,-0.879189372,0.807381451,-0.433763355,-0.157756358,0.052778415,0.209215492,0.119731077,-0.029338498,0.99028764,0.233363658,0.13437064,-0.963060737,28.44838715,-2.098807812,-29.92668343,-0.344614,101.4225
658.179,65.8179,1478109662,0.285583496,0.334777832,-0.793106079,-0.954406095,0.879373928,-0.440363806,-0.043114626,0.237732349,-0.134778309,-0.879189372,0.807381451,-0.433763355,-0.157756358,0.052778415,0.209215492,0.119731077,-0.029338498,0.99028764,0.233363658,0.13437064,-0.963060737,28.44838715,-2.098807812,-29.92668343,-0.344614,101.4225
667.86,66.786,1478109662,0.254562378,0.386367798,-1.350143433,-0.638059309,1.955977571,-0.049553172,-0.043838377,0.267214217,-0.149387619,-0.562842727,1.883985281,-0.042952739,0.02447878,0.185945228,0.160661802,0.134427624,-0.031599856,0.987869117,0.261104703,0.148832604,-0.953767896,28.44838715,-2.098807812,-29.92668343,-0.344614,101.4225
677.532,67.7532,1478109662,0.298828125,0.386611938,-1.715774536,-0.290908271,2.129432981,0.193377719,-0.041475933,0.28842099,-0.152149137,-0.215691999,2.057440758,0.199978128,-0.026590474,0.234805003,-0.402524412,0.144824339,-0.03138175,0.986318758,0.281152844,0.151562795,-0.947619021,29.75442886,-1.319719315,-28.67497635,-0.344614,101.4225
687.219,68.7219,1478109662,0.221313477,0.438995361,-1.265487671,-0.290908271,2.129432981,0.193377719,-0.041475933,0.28842099,-0.152149137,-0.215691999,2.057440758,0.199978128,-0.026590474,0.234805003,-0.402524412,0.144824339,-0.03138175,0.986318758,0.281152844,0.151562795,-0.947619021,29.75442886,-1.319719315,-28.67497635,-0.344614,101.4225
696.898,69.6898,1478109662,0.171005249,0.388320923,-1.573379517,0.863834915,0.223603799,0.260385249,-0.039822306,0.302965799,-0.139330445,0.939051032,0.151611894,0.266985625,-0.074147493,0.300115287,-0.320281267,0.151878367,-0.030136289,0.985745913,0.295460969,0.138880074,-0.945206404,29.75442886,-1.319719315,-28.67497635,-0.344614,101.4225
706.577,70.6577,1478109662,0.207580566,0.277755737,-1.615737915,0.831376042,0.10753738,0.171683875,-0.040730811,0.303947098,-0.129690474,0.906591833,0.03554577,0.178284243,-0.125770018,0.258993715,-0.627229989,0.152344098,-0.029894939,0.98599242,0.296775252,0.129327223,-0.946149528,30.46419334,-1.983178139,-27.88049698,-0.344614,101.4225
716.254,71.6254,1478109662,0.194076538,0.305877686,-1.408279419,-0.599925505,-1.137336233,0.015400528,-0.039606364,0.285223612,-0.127811266,-0.524709821,-1.209327698,0.022000881,-0.07149639,0.150292173,-0.663966358,0.143062706,-0.028635727,0.987454187,0.279076964,0.127463564,-0.951771557,30.46419334,-1.983178139,-27.88049698,-0.344614,101.4225
725.932,72.5932,1478109662,0.21434021,0.33404541,-1.359771729,-0.599925505,-1.137336233,0.015400528,-0.039606364,0.285223612,-0.127811266,-0.524709821,-1.209327698,0.022000881,-0.07149639,0.150292173,-0.663966358,0.143062706,-0.028635727,0.987454187,0.279076964,0.127463564,-0.951771557,30.46419334,-1.983178139,-27.88049698,-0.344614,101.4225
735.611,73.5611,1478109662,0.206481934,0.313461304,-1.126403809,-1.432289047,-1.325325312,-0.153889698,-0.03738868,0.271927897,-0.13918858,-1.357073665,-1.397316456,-0.14728938,-0.051651228,0.195305824,-0.405832589,0.136481581,-0.027899828,0.988023871,0.265991449,0.138739586,-0.95393914,30.46419334,-1.983178139,-27.88049698,-0.344614,101.4225
745.276,74.5276,1478109662,0.201156616,0.257156372,-0.996856689,-2.007923327,-1.079272131,-0.3498387,-0.035471134,0.2598241,-0.15740046,-1.932708144,-1.151263237,-0.343238384,-0.047252726,0.156709969,-0.171915606,0.130508172,-0.027714012,0.988168021,0.253734648,0.156751335,-0.954488218,29.35534668,-1.585702419,-29.07010841,-0.344614,101.4225
754.95,75.495,1478109662,0.294082642,0.136245728,-0.96697998,-2.253639885,-0.599777966,-0.498684637,-0.034509895,0.252000555,-0.179217945,-2.178424835,-0.671768904,-0.492084324,-0.044191603,0.078896269,-0.043951873,0.126676123,-0.028292796,0.987750943,0.245348215,0.178260103,-0.95290482,29.35534668,-1.585702419,-29.07010841,-0.344614,101.4225
764.649,76.4649,1478109662,0.518814087,-0.074874878,-0.964599609,-2.201771361,-0.092613557,-0.50213636,-0.03407977,0.249262545,-0.2013513,-2.126556396,-0.164604306,-0.495536059,0.05237709,-0.063747786,-0.017463777,0.125360719,-0.029313222,0.98686313,0.241705552,0.199993506,-0.949516177,28.9013176,-0.095056057,-29.56394577,-0.344614,101.4225
774.32,77.432,1478109662,0.360855103,-0.086502075,-0.82194519,-2.201771361,-0.092613557,-0.50213636,-0.03407977,0.249262545,-0.2013513,-2.126556396,-0.164604306,-0.495536059,0.05237709,-0.063747786,-0.017463777,0.125360719,-0.029313222,0.98686313,0.241705552,0.199993506,-0.949516177,28.9013176,-0.095056057,-29.56394577,-0.344614,101.4225
784.005,78.4005,1478109662,0.160491943,0.093017578,-0.805023193,-1.554139053,0.424663939,0.412485303,-0.024568124,0.254867683,-0.234753275,-1.478924274,0.352673322,0.419085562,0.115652867,-0.319105119,0.11920926,0.127632077,-0.026982264,0.98480921,0.245202228,0.232603028,-0.94115442,28.9013176,-0.095056057,-29.56394577,-0.344614,101.4225
793.658,79.3658,1478109662,0.174453735,0.252212524,-0.786270142,-1.180395819,0.651843032,0.469122484,-0.016652677,0.261902624,-0.245178027,-1.105181336,0.5798527,0.47572273,-0.090683624,-0.14971146,0.131989852,0.130602375,-0.024159738,0.983830692,0.251175582,0.242729038,-0.93701303,29.05162811,1.417153835,-29.38225365,-0.344614,101.4225
803.332,80.3332,1478109662,0.178466797,0.35093689,-0.761520386,-1.180395819,0.651843032,0.469122484,-0.016652677,0.261902624,-0.245178027,-1.105181336,0.5798527,0.47572273,-0.090683624,-0.14971146,0.131989852,0.130602375,-0.024159738,0.983830692,0.251175582,0.242729038,-0.93701303,29.05162811,1.417153835,-29.38225365,-0.344614,101.4225
813.035,81.3035,1478109662,0.180969238,0.376113892,-0.722457886,-0.302026436,1.813517894,0.432544233,-0.00460798,0.289430898,-0.253255368,-0.226812094,1.741527796,0.439144462,-0.097836107,0.100380078,0.166314721,0.143343772,-0.020473927,0.98157953,0.276302904,0.250556797,-0.927835107,29.05162811,1.417153835,-29.38225365,-0.344614,101.4225
822.7,82.27,1478109662,0.23664856,0.396240234,-0.685653687,-0.302026436,1.813517894,0.432544233,-0.00460798,0.289430898,-0.253255368,-0.226812094,1.741527796,0.439144462,-0.097836107,0.100380078,0.166314721,0.143343772,-0.020473927,0.98157953,0.276302904,0.250556797,-0.927835107,29.05162811,1.417153835,-29.38225365,-0.344614,101.4225
832.398,83.2398,1478109662,0.36769104,0.404327393,-0.61416626,0.32678185,3.602286499,0.159996327,0.000169268,0.347642814,-0.24800271,0.401995867,3.530296803,0.166596532,-0.093610711,0.150771961,0.225759581,0.171609168,-0.021308079,0.977370247,0.330259264,0.245468274,-0.911413252,30.17607498,1.504908085,-28.2216568,-0.344614,101.4225
842.078,84.2078,1478109662,0.449249268,0.344207764,-0.509262085,0.689724101,4.503964667,-0.069096513,-0.002402776,0.389104198,-0.241810198,0.764937878,4.431974888,-0.062496323,-0.000631631,0.16486685,0.284163892,0.19205782,-0.024487428,0.973943243,0.36832267,0.239460543,-0.898330152,30.17607498,1.504908085,-28.2216568,-0.344614,101.4225
851.738,85.1738,1478109662,0.432617188,0.274383545,-0.594345093,1.091644645,5.386192705,-0.208717794,-0.008474217,0.438805728,-0.232789098,1.166858315,5.314203262,-0.202117622,0.035850443,0.113515481,0.371579826,0.216652524,-0.029383058,0.969307791,0.413398832,0.230692282,-0.880841911,30.17607498,1.504908085,-28.2216568,-0.344614,101.4225
861.437,86.1437,1478109662,0.518692017,0.225708008,-0.535522461,1.448196907,4.636285424,-0.125607993,-0.016461513,0.48452548,-0.220451286,1.52341032,4.564295769,-0.119007841,-0.021898713,0.055713534,0.269135505,0.239314899,-0.034330531,0.964656264,0.454515904,0.218670011,-0.863480568,34.38555145,0.770657063,-22.94257736,-0.344614,101.4225
871.115,87.1115,1478109662,0.598449707,0.287765503,-0.826416016,1.525091689,4.486938013,-0.138873465,-0.025403804,0.527529896,-0.207068504,1.600304961,4.41494894,-0.132273316,0.026045177,0.020116094,0.310072631,0.260567399,-0.039139397,0.959825845,0.492646843,0.205591917,-0.845595062,34.38555145,0.770657063,-22.94257736,-0.344614,101.4225
880.775,88.0775,1478109662,0.674255371,0.299911499,-1.083938599,1.239276713,4.022655025,-0.338839578,-0.035280942,0.566289617,-0.196456024,1.314489841,3.950665951,-0.332239419,0.072265074,0.092570744,0.001248614,0.279647652,-0.044249768,0.954921082,0.526184618,0.195194751,-0.827664614,34.38555145,0.770657063,-22.94257736,-0.344614,101.4225
890.464,89.0464,1478109662,0.668685913,0.306274414,-1.086471558,0.57411468,3.296122576,-0.466616449,-0.043711139,0.59865916,-0.191907629,0.649327636,3.22413373,-0.46001634,0.121065333,0.109179646,-0.273011893,0.295453749,-0.04903071,0.950294348,0.553190053,0.190731853,-0.810926735,37.00162125,0.121932507,-18.44416809,-0.344614,101.4225
900.153,90.0153,1478109662,0.729232788,0.390228271,-1.1509552,-0.232385306,2.657411325,-0.299887918,-0.046895383,0.62556316,-0.19356067,-0.157172412,2.585422516,-0.293287814,0.094066933,0.11392013,-0.290976197,0.308337932,-0.051928898,0.946071385,0.574618995,0.192354277,-0.795495331,37.00162125,0.121932507,-18.44416809,-0.344614,101.4225
909.827,90.9827,1478109662,0.721847534,0.423400879,-1.262176514,-1.067473262,1.772252745,0.050128415,-0.042475356,0.645736475,-0.200034722,-0.992260575,1.700263977,0.056728512,0.139445812,0.191524908,-0.368223876,0.317641906,-0.051712424,0.942704344,0.589786947,0.198703364,-0.782731295,37.00162125,0.121932507,-18.44416809,-0.344614,101.4225
919.485,91.9485,1478109662,0.629226685,0.387756348,-1.098907471,-1.820935064,0.91295053,0.309639348,-0.030563179,0.658465153,-0.210922112,-1.745722294,0.840961874,0.316239417,0.123504758,0.214039207,-0.488772601,0.323005241,-0.048410124,0.940403327,0.598342776,0.209361672,-0.773403943,38.18488312,0.485035419,-15.84303474,-0.344614,101.4225
929.188,92.9188,1478109662,0.47895813,0.354858398,-0.918685913,-2.283395118,0.50245594,0.3856963,-0.014196384,0.667152032,-0.22518296,-2.208182573,0.430467576,0.392296374,0.026096955,0.164471641,-0.333153933,0.326096198,-0.043450788,0.938610033,0.603129745,0.223284706,-0.765753508,38.18488312,0.485035419,-15.84303474,-0.344614,101.4225
938.856,93.8856,1478109662,0.448455811,0.330490112,-0.767608643,-2.485201476,0.296663629,0.346311876,0.003919502,0.673998378,-0.24149668,-2.409989119,0.224675387,0.352911919,-0.12704578,0.115702257,-0.160026833,0.328025566,-0.037993155,0.936955741,0.60600394,0.239156142,-0.758659065,38.33454895,0.743953228,-15.46710205,-0.344614,101.4225
948.534,94.8534,1478109662,0.516891479,0.307388306,-0.640319824,-2.485201476,0.296663629,0.346311876,0.003919502,0.673998378,-0.24149668,-2.409989119,0.224675387,0.352911919,-0.12704578,0.115702257,-0.160026833,0.328025566,-0.037993155,0.936955741,0.60600394,0.239156142,-0.758659065,38.33454895,0.743953228,-15.46710205,-0.344614,101.4225
958.198,95.8198,1478109662,0.514801025,0.297927856,-0.59777832,-2.359175366,0.546937121,0.392568587,0.040404816,0.689733727,-0.273882566,-2.283963442,0.474949092,0.399168611,-0.095722981,0.036916986,0.102343485,0.332242736,-0.027308326,0.933051933,0.612614453,0.270471334,-0.742663324,38.33454895,0.743953228,-15.46710205,-0.344614,101.4225
967.894,96.7894,1478109662,0.479568481,0.359603882,-0.640411377,-2.143499266,0.888387929,0.449328006,0.05812897,0.701989899,-0.28737226,-2.068287373,0.816400111,0.455928028,-0.104456887,0.014494631,0.134468392,0.336237803,-0.022205912,0.930392526,0.619257927,0.283433229,-0.732246697,38.33454895,0.743953228,-15.46710205,-0.344614,101.4225
977.58,97.758,1478109662,0.509994507,0.377655029,-0.669204712,-2.143499266,0.888387929,0.449328006,0.05812897,0.701989899,-0.28737226,-2.068287373,0.816400111,0.455928028,-0.104456887,0.014494631,0.134468392,0.336237803,-0.022205912,0.930392526,0.619257927,0.283433229,-0.732246697,38.33454895,0.743953228,-15.46710205,-0.344614,101.4225
987.237,98.7237,1478109662,0.547393799,0.427932739,-0.706802368,-1.877104327,1.125376509,0.405738185,0.074232169,0.71662149,-0.29870466,-1.801892638,1.053388834,0.412338167,-0.117760517,0.083372556,0.051434908,0.341379038,-0.017782314,0.92736379,0.627755046,0.294282466,-0.720639646,38.67331314,1.619930267,-14.52834797,-0.344614,101.4225
996.917,99.6917,1478109662,0.589370728,0.416656494,-0.634857178,-1.777620879,1.160431965,0.268347036,0.088548073,0.731989168,-0.309447289,-1.702409387,1.088444471,0.274947017,-0.089211501,0.123400517,0.001712853,0.346887553,-0.01426302,0.924150516,0.636605322,0.30453223,-0.708515227,38.67331314,1.619930267,-14.52834797,-0.344614,101.4225
1006.612,100.6612,1478109662,0.654693604,0.438064575,-0.540328979,-1.927726492,0.836296764,0.1124597,0.102519272,0.744808323,-0.32168265,-1.852515221,0.764309466,0.119059667,-0.053690679,0.100493148,0.062647492,0.351044651,-0.011085356,0.921210861,0.643061399,0.316163331,-0.697504699,38.97996521,1.871509552,-13.65218925,-0.344614,101.4225
1016.276,101.6276,1478109662,0.658432007,0.50604248,-0.565002441,-2.59050686,0.46677038,-0.281825294,0.133468826,0.765429365,-0.355940909,-2.515295744,0.394783229,-0.275225341,0.005275239,0.089592122,0.135557652,0.355772211,-0.005080425,0.91537834,0.649418354,0.348472446,-0.675886631,38.97996521,1.871509552,-13.65218925,-0.344614,101.4225
1025.952,102.5952,1478109662,0.552429199,0.575378418,-0.513656616,-2.868306786,0.36644271,-0.519767818,0.150331449,0.774423335,-0.378711305,-2.793095827,0.294455558,-0.513167858,0.008679403,0.136319086,0.099170849,0.356722987,-0.002582533,0.91218418,0.649752617,0.369723409,-0.664173305,39.17795563,2.906087875,-12.88271904,-0.344614,101.4225
1035.647,103.5647,1478109662,0.50680542,0.587417603,-0.425537109,-2.868306786,0.36644271,-0.519767818,0.150331449,0.774423335,-0.378711305,-2.793095827,0.294455558,-0.513167858,0.008679403,0.136319086,0.099170849,0.356722987,-0.002582533,0.91218418,0.649752617,0.369723409,-0.664173305,39.17795563,2.906087875,-12.88271904,-0.344614,101.4225
1045.325,104.5325,1478109662,0.527984619,0.513778687,-0.3984375,-2.98667897,0.661980354,-0.63953683,0.167589632,0.786046858,-0.403569071,-2.911468029,0.589993596,-0.632936895,-0.143917844,0.194714412,0.22434245,0.358400622,-0.000740707,0.908261655,0.650723279,0.392703176,-0.649879575,39.17795563,2.906087875,-12.88271904,-0.344614,101.4225
1055.005,105.5005,1478109662,0.548675537,0.474014282,-0.389007568,-2.974983165,0.849522555,-0.621639323,0.185480034,0.800764577,-0.428407166,-2.899772644,0.777535856,-0.615039408,-0.125027359,0.098356247,0.23480776,0.361097388,0.000836794,0.903671361,0.653011978,0.41542244,-0.63324523,39.17795563,2.906087875,-12.88271904,-0.344614,101.4225
1064.682,106.4682,1478109662,0.513153076,0.528549194,-0.362106323,-2.83378343,0.718539771,-0.588830243,0.203335562,0.815372104,-0.452004128,-2.758573055,0.646553338,-0.58223033,-0.106196716,0.037245013,0.227737874,0.363529376,0.002417994,0.89909225,0.654872239,0.436769277,-0.616745412,39.32926178,4.680691719,-11.85843945,-0.344614,101.4225
1074.333,107.4333,1478109662,0.446212769,0.569503784,-0.364242554,-2.273338755,-0.022533272,-0.323126395,0.236617398,0.834194233,-0.491641128,-2.198128462,-0.094519563,-0.316526532,-0.139866799,0.056475919,0.230102986,0.363922,0.006774818,0.892221249,0.653019845,0.472073287,-0.592209339,39.32926178,4.680691719,-11.85843945,-0.344614,101.4225
1084.037,108.4037,1478109662,0.452102661,0.545547485,-0.41444397,-2.273338755,-0.022533272,-0.323126395,0.236617398,0.834194233,-0.491641128,-2.198128462,-0.094519563,-0.316526532,-0.139866799,0.056475919,0.230102986,0.363922,0.006774818,0.892221249,0.653019845,0.472073287,-0.592209339,39.32926178,4.680691719,-11.85843945,-0.344614,101.4225
1093.715,109.3715,1478109662,0.464355469,0.579345703,-0.462005615,-1.887429935,-0.271533508,-0.082320174,0.251690765,0.838575774,-0.505441028,-1.812219977,-0.343519509,-0.075720325,-0.198598623,0.061354116,0.170487329,0.362396576,0.010011477,0.890149098,0.650701284,0.484193355,-0.584931314,39.32845306,6.020616531,-11.24041653,-0.344614,101.4225
1103.385,110.3385,1478109662,0.483703613,0.610961914,-0.520492554,-1.50167691,-0.33101095,0.158257549,0.265481935,0.841165354,-0.514808384,-1.426467061,-0.402996808,0.164857388,-0.184448853,0.086977623,0.118189715,0.360610789,0.01381169,0.888767069,0.648804307,0.492368072,-0.580195308,39.32845306,6.020616531,-11.24041653,-0.344614,101.4225
1113.072,111.3072,1478109662,0.527633667,0.618850708,-0.570205688,-1.12186087,0.031659393,0.356109911,0.277673725,0.845696475,-0.520014657,-1.046651125,-0.040326394,0.362709761,-0.165795624,0.114069059,0.055049129,0.360305568,0.017477186,0.887392466,0.649499238,0.496892869,-0.575541675,39.32845306,6.020616531,-11.24041653,-0.344614,101.4225
1122.749,112.2749,1478109662,0.607833862,0.60383606,-0.605545044,-0.825926415,0.527072869,0.467777055,0.288185302,0.854289708,-0.522012223,-0.750716865,0.455087215,0.474376857,-0.126037478,0.120225333,-0.000919501,0.362369235,0.020469834,0.885564272,0.653671145,0.498625368,-0.569286168,39.26947784,6.272146225,-11.30887032,-0.344614,101.4225
1132.422,113.2422,1478109662,0.670043945,0.651016235,-0.630325317,-0.638488344,0.825529338,0.437636729,0.296941255,0.86559894,-0.522425782,-0.563224852,0.75342226,0.444172949,-0.052076455,0.104852244,-0.043821331,0.366048768,0.02260793,0.88337463,0.659910321,0.4989838,-0.561723709,39.26947784,6.272146225,-11.30887032,-0.344614,101.4225
1142.105,114.2105,1478109662,0.716812134,0.686538696,-0.616149902,-0.580197873,0.968964265,0.209534052,0.303561028,0.877525206,-0.523555622,-0.50493443,0.896857262,0.216070265,0.003915508,0.151053607,-0.076872267,0.370205602,0.023534822,0.881006604,0.666128457,0.499962628,-0.553453028,39.26947784,6.272146225,-11.30887032,-0.344614,101.4225
1151.783,115.1783,1478109662,0.783325195,0.68939209,-0.597335815,-0.580197873,0.968964265,0.209534052,0.303561028,0.877525206,-0.523555622,-0.50493443,0.896857262,0.216070265,0.003915508,0.151053607,-0.076872267,0.370205602,0.023534822,0.881006604,0.666128457,0.499962628,-0.553453028,39.26947784,6.272146225,-11.30887032,-0.344614,101.4225
1161.377625,116.1377625,1478109662,0.818069458,0.674880981,-0.579330444,-0.799025825,1.395037815,-0.446959125,0.311870809,0.904279014,-0.53422787,-0.723762631,1.322930932,-0.440422922,0.106862389,0.180215448,-0.065229431,0.379411274,0.020826518,0.874996829,0.676462829,0.509176672,-0.5321064,39.60069275,6.026921272,-10.23638058,-0.344614,101.4225
1171.036625,117.1036625,1478109662,0.889648438,0.59715271,-0.581756592,-0.979288541,1.75816702,-0.732575695,0.315097019,0.921911899,-0.544679621,-0.904025495,1.686060429,-0.726039529,0.136607274,0.156736881,-0.062478442,0.385306564,0.017178508,0.870707126,0.681462169,0.518144071,-0.516852021,39.60069275,6.026921272,-10.23638058,-0.344614,101.4225
1180.705625,118.0705625,1478109662,0.927001953,0.551940918,-0.606155396,-0.979288541,1.75816702,-0.732575695,0.315097019,0.921911899,-0.544679621,-0.904025495,1.686060429,-0.726039529,0.136607274,0.156736881,-0.062478442,0.385306564,0.017178508,0.870707126,0.681462169,0.518144071,-0.516852021,39.60069275,6.026921272,-10.23638058,-0.344614,101.4225
1190.412625,119.0412625,1478109662,0.95401001,0.542633057,-0.643218994,-1.234146666,2.119057572,-1.176198411,0.321758924,0.964677091,-0.573561882,-1.158883929,2.046951294,-1.169662237,0.236657098,0.009313547,-0.127637342,0.399021148,0.006601649,0.859776391,0.69034487,0.542627394,-0.478518039,39.90366364,6.835149765,-8.384542465,-0.344614,101.4225
1200.091625,120.0091625,1478109662,0.991989136,0.558181763,-0.645141602,-1.304702592,2.040234662,-1.383017371,0.324899969,0.986339411,-0.591354775,-1.229440093,1.968128443,-1.376481175,0.261624902,-0.014853192,-0.185166657,0.405401499,0.000148467,0.853830279,0.692385137,0.557486236,-0.458052337,39.90366364,6.835149765,-8.384542465,-0.344614,101.4225
1209.758625,120.9758625,1478109662,1.049972534,0.604476929,-0.635803223,-1.304702592,2.040234662,-1.383017371,0.324899969,0.986339411,-0.591354775,-1.229440093,1.968128443,-1.376481175,0.261624902,-0.014853192,-0.185166657,0.405401499,0.000148467,0.853830279,0.692385137,0.557486236,-0.458052337,39.90366364,6.835149765,-8.384542465,-0.344614,101.4225
1219.384625,121.9384625,1478109662,1.161911011,0.64163208,-0.60383606,-1.159139799,1.911257237,-1.51246218,0.329613174,1.026356346,-0.629167409,-1.083877444,1.839151382,-1.505926013,0.358352333,0.01600513,-0.217040256,0.416304464,-0.013936875,0.84213256,0.691620231,0.58847177,-0.418762982,40.04478836,8.535205841,-5.734752655,-0.344614,101.4225
1229.062625,122.9062625,1478109662,1.263046265,0.681777954,-0.546875,-0.941552614,1.923058503,-1.359734153,0.330611613,1.045384657,-0.645899079,-0.86629051,1.850952744,-1.353198051,0.471063673,0.039715432,-0.203303516,0.421702988,-0.021062123,0.83655404,0.690847337,0.601916671,-0.400532544,40.04478836,8.535205841,-5.734752655,-0.344614,101.4225
1238.733625,123.8733625,1478109662,1.296401978,0.717453003,-0.512588501,-0.941552614,1.923058503,-1.359734153,0.330611613,1.045384657,-0.645899079,-0.86629051,1.850952744,-1.353198051,0.471063673,0.039715432,-0.203303516,0.421702988,-0.021062123,0.83655404,0.690847337,0.601916671,-0.400532544,40.04478836,8.535205841,-5.734752655,-0.344614,101.4225
1248.419625,124.8419625,1478109662,1.291397095,0.774765015,-0.501541138,-0.707397637,1.900565977,-1.118745771,0.330857002,1.063916506,-0.659509527,-0.632135749,1.828460455,-1.112209678,0.60547781,0.104723692,-0.12893945,0.4273871,-0.02772869,0.831297568,0.690924168,0.612729311,-0.383649051,39.88756561,10.38537979,-3.232369423,-0.344614,101.4225
1258.081625,125.8081625,1478109662,1.248779297,0.785903931,-0.46144104,-0.707397637,1.900565977,-1.118745771,0.330857002,1.063916506,-0.659509527,-0.632135749,1.828460455,-1.112209678,0.60547781,0.104723692,-0.12893945,0.4273871,-0.02772869,0.831297568,0.690924168,0.612729311,-0.383649051,39.88756561,10.38537979,-3.232369423,-0.344614,101.4225
1267.755625,126.7755625,1478109662,1.203689575,0.750198364,-0.425994873,-0.331584328,1.598437009,-0.610507576,0.330076661,1.096299649,-0.677114664,-0.256322622,1.526331544,-0.603971481,0.555499673,0.159357086,-0.105347782,0.438278494,-0.038462081,0.822537111,0.693279624,0.62654686,-0.356093258,39.88756561,10.38537979,-3.232369423,-0.344614,101.4225
1277.451625,127.7451625,1478109662,1.184280396,0.683013916,-0.413101196,-0.228674191,1.457231148,-0.378153162,0.329584323,1.110177898,-0.681715871,-0.153412774,1.385126114,-0.371617109,0.508124709,0.120072052,-0.080842212,0.44336327,-0.042398064,0.819010828,0.695564866,0.630126297,-0.345152676,39.75416946,11.26274681,-1.441794395,-0.344614,101.4225
1287.104625,128.7104625,1478109662,1.163085938,0.631225586,-0.435409546,-0.228674191,1.457231148,-0.378153162,0.329584323,1.110177898,-0.681715871,-0.153412774,1.385126114,-0.371617109,0.508124709,0.120072052,-0.080842212,0.44336327,-0.042398064,0.819010828,0.695564866,0.630126297,-0.345152676,39.75416946,11.26274681,-1.441794395,-0.344614,101.4225
1296.803625,129.6803625,1478109662,1.136077881,0.596160889,-0.457687378,-0.218207968,1.295518414,0.099563076,0.331800663,1.137149168,-0.684226504,-0.142946705,1.223413467,0.106099099,0.459903777,-0.000848227,-0.109806173,0.453579184,-0.047058002,0.812765176,0.703182161,0.63207382,-0.325603366,39.75416946,11.26274681,-1.441794395,-0.344614,101.4225
1306.482625,130.6482625,1478109662,1.103240967,0.534683228,-0.47253418,-0.256181982,1.197710095,0.339863031,0.335332521,1.150868239,-0.682329383,-0.180921018,1.125605345,0.346399039,0.427401394,-0.034441691,-0.141273037,0.458798889,-0.047590126,0.809902678,0.708676457,0.630602598,-0.316414326,39.71305466,11.49609852,0.187613487,-0.344614,101.4225
1316.161625,131.6161625,1478109662,1.079498291,0.484771729,-0.487213135,-0.256181982,1.197710095,0.339863031,0.335332521,1.150868239,-0.682329383,-0.180921018,1.125605345,0.346399039,0.427401394,-0.034441691,-0.141273037,0.458798889,-0.047590126,0.809902678,0.708676457,0.630602598,-0.316414326,39.71305466,11.49609852,0.187613487,-0.344614,101.4225
1325.829625,132.5829625,1478109662,1.078735352,0.527175903,-0.507171631,-0.342861484,0.993539915,0.809703769,0.347210167,1.178206881,-0.67228698,-0.267600656,0.921435416,0.816239774,0.356622636,-0.138005212,-0.187881082,0.469263454,-0.04493409,0.804765154,0.722875655,0.622776926,-0.299332052,39.71305466,11.49609852,0.187613487,-0.344614,101.4225
1335.514625,133.5514625,1478109662,1.037994385,0.553268433,-0.482666016,-0.410952654,0.963268296,1.020798434,0.355636223,1.192396541,-0.664445967,-0.335692137,0.891164064,1.027334452,0.347169846,-0.089447156,-0.216331616,0.474691416,-0.041880448,0.802288001,0.731565475,0.616623044,-0.29084003,39.86260605,10.86401939,1.505898476,-0.344614,101.4225
1345.190625,134.5190625,1478109662,0.997802734,0.562362671,-0.492523193,-0.410952654,0.963268296,1.020798434,0.355636223,1.192396541,-0.664445967,-0.335692137,0.891164064,1.027334452,0.347169846,-0.089447156,-0.216331616,0.474691416,-0.041880448,0.802288001,0.731565475,0.616623044,-0.29084003,39.86260605,10.86401939,1.505898476,-0.344614,101.4225
1354.869625,135.4869625,1478109662,0.981719971,0.567977905,-0.521835327,-0.621054493,1.054750276,1.240627202,0.376933414,1.224091187,-0.645387241,-0.545794129,0.982646286,1.247163057,0.246470481,-0.039145168,-0.221067548,0.486610499,-0.03354535,0.796619442,0.751332223,0.601507843,-0.271455646,39.86260605,10.86401939,1.505898476,-0.344614,101.4225
1364.547625,136.4547625,1478109662,1.051498413,0.585754395,-0.584747314,-0.77097395,1.280896062,1.19062875,0.389691297,1.243069446,-0.636081425,-0.695713878,1.208792329,1.197164655,0.220104799,-0.026069887,-0.262896061,0.493394407,-0.029125786,0.792856436,0.761615157,0.594047785,-0.258939266,40.14567184,9.494851112,2.737687111,-0.344614,101.4225
1374.201625,137.4201625,1478109662,1.042541504,0.530014038,-0.528518677,-1.013819088,1.756583238,0.807942621,0.41720738,1.289523339,-0.622379414,-0.938559175,1.684479594,0.814478517,0.270933449,0.002784327,-0.359216273,0.509057762,-0.022465417,0.782470973,0.780564964,0.582970083,-0.225531042,40.14567184,9.494851112,2.737687111,-0.344614,101.4225
1383.898625,138.3898625,1478109663,1.036987305,0.462402344,-0.413040161,-1.122619871,2.021118491,0.499964286,0.431199634,1.316439997,-0.619455839,-1.047359943,1.949014783,0.506500185,0.254543334,-0.050578155,-0.323649019,0.517530218,-0.020946246,0.775884066,0.787998199,0.580592215,-0.204869658,40.27386093,8.124217987,4.61902523,-0.344614,101.4225
1393.579625,139.3579625,1478109663,1.058364868,0.410446167,-0.335693359,-1.122619871,2.021118491,0.499964286,0.431199634,1.316439997,-0.619455839,-1.047359943,1.949014783,0.506500185,0.254543334,-0.050578155,-0.323649019,0.517530218,-0.020946246,0.775884066,0.787998199,0.580592215,-0.204869658,40.27386093,8.124217987,4.61902523,-0.344614,101.4225
1403.252625,140.3252625,1478109663,1.082275391,0.394546509,-0.286956787,-1.190449785,2.276630688,0.259142618,0.445263035,1.345988313,-0.618979974,-1.115190387,2.204527378,0.265678465,0.26438874,-0.169758514,-0.154132187,0.526476291,-0.020712762,0.76834339,0.793976128,0.580204666,-0.181561172,40.27386093,8.124217987,4.61902523,-0.344614,101.4225
1412.928625,141.2928625,1478109663,1.047668457,0.423843384,-0.292541504,-1.210413107,2.50781917,0.165390826,0.459319776,1.377952028,-0.619509637,-1.135153651,2.435716152,0.171926677,0.283204198,-0.186089486,-0.130921379,0.536029238,-0.021346633,0.759975014,0.799071193,0.580636024,-0.156035408,40.12363815,7.64507103,6.400666237,-0.344614,101.4225
1422.615625,142.2615625,1478109663,0.970504761,0.437271118,-0.283843994,-1.159096656,2.560935119,0.186196239,0.473001161,1.41071767,-0.619633686,-1.08383739,2.488831997,0.192732081,0.243985578,-0.156893596,-0.162778735,0.545864529,-0.022257251,0.751256282,0.803682864,0.580736995,-0.129762769,40.12363815,7.64507103,6.400666237,-0.344614,101.4225
1432.277625,143.2277625,1478109663,0.850265503,0.44670105,-0.301437378,-1.072239788,2.516945823,0.24658395,0.485827823,1.442770657,-0.61874919,-0.996980727,2.444843054,0.253119767,0.162566975,-0.142745584,-0.179838359,0.555612403,-0.02313313,0.742608696,0.807937801,0.580016673,-0.104005635,40.12363815,7.64507103,6.400666237,-0.344614,101.4225
1441.950625,144.1950625,1478109663,0.760864258,0.409957886,-0.330795288,-0.950358622,2.432458902,0.268122265,0.497241519,1.473090032,-0.617037162,-0.875099719,2.360356092,0.274658084,0.038559064,-0.131920174,-0.221875206,0.564987082,-0.024019894,0.734305202,0.811706424,0.578621209,-0.079562172,39.58337402,7.14525032,9.561600685,-0.344614,101.4225
1451.630625,145.1630625,1478109663,0.865402222,0.426147461,-0.291259766,-0.806885879,2.279387593,0.32099267,0.506904326,1.501393177,-0.614649011,-0.731627107,2.207284927,0.327528477,-0.05414483,-0.166713923,-0.27414009,0.573950224,-0.025004531,0.726431256,0.815009117,0.576671779,-0.056655191,39.58337402,7.14525032,9.561600685,-0.344614,101.4225
1461.298625,146.1298625,1478109663,0.720870972,0.376907349,-0.213623047,-0.767383477,1.473339811,0.569094089,0.515693555,1.522793059,-0.610036729,-0.692124903,1.401237488,0.57562983,0.046719402,-0.146750107,-0.251930088,0.580897757,-0.024277942,0.720468885,0.81868279,0.572897553,-0.039329663,39.58337402,7.14525032,9.561600685,-0.344614,101.4225
1470.989625,147.0989625,1478109663,0.62550354,0.402908325,-0.197265625,-0.826222825,0.525283225,0.952442812,0.525043294,1.534903043,-0.601794971,-0.750964344,0.453180969,0.958978593,-0.102918856,-0.189215675,-0.184041813,0.585035653,-0.020347573,0.717200523,0.823789835,0.566123009,-0.029581226,39.58337402,7.14525032,9.561600685,-0.344614,101.4225
1480.668625,148.0668625,1478109663,0.60534668,0.4765625,-0.125549316,-0.890445487,-0.157872456,1.364079899,0.535160629,1.53966665,-0.589383322,-0.815187156,-0.229974568,1.370615602,-0.205377325,-0.152940169,-0.171392217,0.587170944,-0.013298776,0.716072516,0.83088088,0.555848479,-0.025873411,38.94352722,6.039821625,12.49977398,-0.344614,101.4225
1490.346625,149.0346625,1478109663,0.603561401,0.497329712,-0.126800537,-1.028832925,-0.388075834,1.751467838,0.546691595,1.541796438,-0.573053153,-0.953574777,-0.46017772,1.758003592,-0.234549493,-0.065637484,-0.10118559,0.588833024,-0.003874011,0.715658337,0.839896202,0.542199969,-0.024363726,38.94352722,6.039821625,12.49977398,-0.344614,101.4225
1500.040625,150.0040625,1478109663,0.640350342,0.529449463,-0.191940308,-1.203831371,-0.499981597,2.101622123,0.560162102,1.543551922,-0.55312312,-1.128573298,-0.572083414,2.108157873,-0.247010782,-0.0280175,-0.103621468,0.590669813,0.007577406,0.715214735,0.850572169,0.525347233,-0.023179067,38.94352722,6.039821625,12.49977398,-0.344614,101.4225
1509.718625,150.9718625,1478109663,0.739685059,0.601379395,-0.240982056,-1.391409258,-0.705111846,2.299244654,0.57565378,1.544388179,-0.530796718,-1.316151381,-0.777213573,2.305780411,-0.221752986,0.023228869,-0.169168457,0.592244183,0.020762328,0.714811058,0.862103343,0.506220579,-0.022771847,39.31652832,3.754867554,12.22430897,-0.344614,101.4225
1519.395625,151.9395625,1478109663,0.812103271,0.656524658,-0.241149902,-1.579317111,-0.982939203,2.253794082,0.593139392,1.543205717,-0.508342347,-1.504059434,-1.055040598,2.260329723,-0.133535013,0.114649527,-0.216883272,0.59274887,0.035073133,0.714716217,0.873220086,0.48672986,-0.024098789,39.31652832,3.754867554,12.22430897,-0.344614,101.4225
1529.073625,152.9073625,1478109663,0.885757446,0.700073242,-0.208786011,-1.716021164,-1.19529807,2.033905127,0.612125105,1.540101677,-0.48782128,-1.64076364,-1.26739943,2.040440798,-0.070836753,0.187822238,-0.214039847,0.591933965,0.049586412,0.714909933,0.882940054,0.468702406,-0.02711005,39.31652832,3.754867554,12.22430897,-0.3255253,101.4223
1538.721625,153.8721625,1478109663,0.89932251,0.742965698,-0.167266846,-1.716021164,-1.19529807,2.033905127,0.612125105,1.540101677,-0.48782128,-1.64076364,-1.26739943,2.040440798,-0.070836753,0.187822238,-0.214039847,0.591933965,0.049586412,0.714909933,0.882940054,0.468702406,-0.02711005,39.31652832,3.754867554,12.22430897,-0.3255253,101.4223
1548.429625,154.8429625,1478109663,0.872680664,0.742797852,-0.114547729,-1.810486418,-1.364133428,1.38740919,0.652072605,1.529927084,-0.455959011,-1.735229135,-1.436234713,1.39394486,0.002233068,0.302642137,-0.130583048,0.586832194,0.07681254,0.715850354,0.897089422,0.440323561,-0.036683794,39.80474854,0.614731789,11.15913773,-0.3255253,101.4223
1558.107625,155.8107625,1478109663,0.968322754,0.658187866,0.009689331,-1.752606606,-1.422563982,1.063328318,0.671377065,1.523802121,-0.445308188,-1.677349448,-1.494665027,1.069863915,-0.028800938,0.312061816,-0.072152101,0.583048568,0.088536792,0.716490788,0.901481628,0.430736035,-0.042395625,39.80474854,0.614731789,11.15913773,-0.3255253,101.4223
1567.774625,156.7774625,1478109663,0.867263794,0.559494019,0.059539795,-1.752606606,-1.422563982,1.063328318,0.671377065,1.523802121,-0.445308188,-1.677349448,-1.494665027,1.069863915,-0.028800938,0.312061816,-0.072152101,0.583048568,0.088536792,0.716490788,0.901481628,0.430736035,-0.042395625,39.80474854,0.614731789,11.15913773,-0.3255253,101.4223
1577.464625,157.7464625,1478109663,0.993164063,0.494750977,0.049682617,-1.640045972,-1.049318759,0.838591344,0.689502743,1.518850348,-0.437125496,-1.564789057,-1.121419549,0.845126987,-0.037486438,0.136157021,0.10658025,0.579432504,0.098768205,0.716774071,0.904750228,0.423336983,-0.047040455,40.22266388,-1.695139885,9.412010193,-0.3255253,101.4223
1587.136625,158.7136625,1478109663,1.070617676,0.449035645,0.114654541,-1.640045972,-1.049318759,0.838591344,0.689502743,1.518850348,-0.437125496,-1.564789057,-1.121419549,0.845126987,-0.037486438,0.136157021,0.10658025,0.579432504,0.098768205,0.716774071,0.904750228,0.423336983,-0.047040455,40.22266388,-1.695139885,9.412010193,-0.3255253,101.4223
1596.794625,159.6794625,1478109663,0.929550171,0.416305542,0.139068604,-1.47880302,-0.622502187,0.551393389,0.721662199,1.518244211,-0.425766176,-1.403546333,-0.694602787,0.557929039,0.161152408,0.036016967,0.162492916,0.575312636,0.114281054,0.714744028,0.909465253,0.413018674,-0.047838371,40.34838867,-2.418592453,8.687919617,-0.3255253,101.4223
1606.499625,160.6499625,1478109663,0.632522583,0.470596313,0.117340088,-1.543807852,-1.136427829,0.499266005,0.737857362,1.514335139,-0.421394826,-1.468551397,-1.208528161,0.505801618,0.018484982,0.007271886,0.190563157,0.57166748,0.122307687,0.714694415,0.911065161,0.409033656,-0.051494554,40.34838867,-2.418592453,8.687919617,-0.3255253,101.4223
1616.179625,161.6179625,1478109663,0.531082153,0.543457031,-0.041473389,-1.543807852,-1.136427829,0.499266005,0.737857362,1.514335139,-0.421394826,-1.468551397,-1.208528161,0.505801618,0.018484982,0.007271886,0.190563157,0.57166748,0.122307687,0.714694415,0.911065161,0.409033656,-0.051494554,40.34838867,-2.418592453,8.687919617,-0.3255253,101.4223
1625.849625,162.5849625,1478109663,0.703598022,0.508972168,-0.130401611,-0.402081132,0.804611273,0.164064305,0.768858469,1.515035811,-0.412674169,-0.326824814,0.732511103,0.170599893,-0.383545697,0.142396599,0.009579655,0.567633921,0.136196263,0.712023244,0.91462785,0.401060432,-0.051053043,40.52210236,-3.449159622,7.442090511,-0.3255253,101.4223
1635.534625,163.5534625,1478109663,0.959594727,0.398635864,-0.145187378,-0.402081132,0.804611273,0.164064305,0.768858469,1.515035811,-0.412674169,-0.326824814,0.732511103,0.170599893,-0.383545697,0.142396599,0.009579655,0.567633921,0.136196263,0.712023244,0.91462785,0.401060432,-0.051053043,40.52210236,-3.449159622,7.442090511,-0.3255253,101.4223
1645.212625,164.5212625,1478109663,0.897491455,0.388580322,-0.023864746,-0.362037043,0.422694531,0.203982959,0.77192075,1.521602913,-0.41095197,-0.286781192,0.350594789,0.210518509,0.043962814,-0.000846355,-0.100107946,0.569712288,0.136587877,0.709847495,0.91563189,0.39948222,-0.045079429,40.52210236,-3.449159622,7.442090511,-0.3255253,101.4223
1654.889625,165.4889625,1478109663,0.742034912,0.408111572,0.025253296,-0.529905674,-0.431507464,0.396138288,0.776624199,1.520307254,-0.407658464,-0.454649895,-0.503607154,0.402673841,-0.019390335,-0.007880444,0.022467142,0.568987267,0.139631116,0.709696481,0.9168818,0.396460772,-0.046331886,40.52210236,-3.449159622,7.442090511,-0.3255253,101.4223
1664.545625,166.4545625,1478109663,0.813247681,0.451675415,-0.096740723,-0.494561798,-0.444893577,0.592430305,0.781801746,1.516392034,-0.402378614,-0.419306248,-0.516993046,0.598965824,-0.176735818,0.016503485,0.075287744,0.567635753,0.144027351,0.710122064,0.91877073,0.391608089,-0.050034445,40.49027252,-4.183885574,7.235675335,-0.3255253,101.4223
1674.246625,167.4246625,1478109663,0.93182373,0.468200684,-0.134857178,-0.283138499,0.501743011,0.734280384,0.787756739,1.522727444,-0.388276105,-0.207883075,0.42964372,0.740815938,-0.111246303,0.073082007,-0.052267071,0.571517642,0.149686314,0.706987152,0.924493968,0.378593415,-0.044473652,40.49027252,-4.183885574,7.235675335,-0.3255253,101.4223
1683.924625,168.3924625,1478109663,0.970031738,0.437728882,-0.099456787,-0.406260431,0.43446304,0.663174249,0.791296715,1.527936816,-0.381495449,-0.331005037,0.362363726,0.669709802,0.004567135,0.095891856,-0.09509106,0.574007536,0.152226425,0.704776684,0.927256584,0.37230882,-0.039766118,40.41210938,-5.054150581,7.116106033,-0.3255253,101.4223
1693.603625,169.3603625,1478109663,0.939086914,0.389663696,-0.107009888,-0.406260431,0.43446304,0.663174249,0.791296715,1.527936816,-0.381495449,-0.331005037,0.362363726,0.669709802,0.004567135,0.095891856,-0.09509106,0.574007536,0.152226425,0.704776684,0.927256584,0.37230882,-0.039766118,40.41210938,-5.054150581,7.116106033,-0.3255253,101.4223
1703.277625,170.3277625,1478109663,0.8934021,0.351776123,-0.124694824,-0.466950942,0.385633183,0.503628263,0.795675046,1.532765003,-0.376104824,-0.391696006,0.31353429,0.510163724,0.009657087,0.022363344,-0.071645387,0.575918716,0.154662627,0.702681806,0.929429829,0.367300361,-0.035364497,40.41210938,-5.054150581,7.116106033,-0.3255253,101.4223
1712.958625,171.2958625,1478109663,0.916671753,0.319534302,-0.097747803,-0.399816113,0.353508003,0.302581971,0.79952625,1.537135953,-0.37265083,-0.324561208,0.281409204,0.309117436,-0.037435811,-0.012309477,-0.093350634,0.577384509,0.156340812,0.700877768,0.930837929,0.364085615,-0.03134419,40.29430771,-5.606972694,7.365645409,-0.3255253,101.4223
1722.632625,172.2632625,1478109663,0.968154907,0.296600342,-0.060256958,-0.321521574,0.211751933,0.167687802,0.802410478,1.540051031,-0.370734876,-0.246266931,0.139653355,0.174223244,-0.014949107,-0.042766176,-0.069095813,0.578221614,0.157436715,0.699671119,0.931620836,0.362300485,-0.028651988,40.29430771,-5.606972694,7.365645409,-0.3255253,101.4223
1732.293625,173.2293625,1478109663,1.024276733,0.295547485,-0.012268066,-0.275396689,-0.038072817,0.171568294,0.804746968,1.54039737,-0.369127014,-0.200142175,-0.110171258,0.17810373,0.035943124,-0.064201042,-0.031909961,0.578204715,0.158734336,0.699268839,0.932211757,0.360801399,-0.028346999,40.29430771,-5.606972694,7.365645409,-0.3255253,101.4223
1741.996625,174.1996625,1478109663,1.037567139,0.328720093,0.044937134,-0.148481351,-0.254113505,0.302810737,0.806013099,1.538067094,-0.366461981,-0.073226929,-0.32621187,0.309346169,0.091175817,-0.062767096,0.01828252,0.577668243,0.160537563,0.699644898,0.933100939,0.358314574,-0.030550586,40.29430771,-5.606972694,7.365645409,-0.3255253,101.4223
1751.673625,175.1673625,1478109663,1.021026611,0.392883301,0.058914185,-0.148481351,-0.254113505,0.302810737,0.806013099,1.538067094,-0.366461981,-0.073226929,-0.32621187,0.309346169,0.091175817,-0.062767096,0.01828252,0.577668243,0.160537563,0.699644898,0.933100939,0.358314574,-0.030550586,40.29430771,-5.606972694,7.365645409,-0.3255253,101.4223
1761.348625,176.1348625,1478109663,1.019775391,0.430358887,0.063766479,0.236054876,-0.268198964,0.524628886,0.80265769,1.529273375,-0.356720411,0.311309069,-0.340297133,0.531164289,0.084787197,0.043680314,0.097811967,0.577145247,0.16436673,0.701735327,0.936239421,0.349202991,-0.038897783,40.22458649,-6.077109337,7.373846054,-0.3255253,101.4223
1771.028625,177.1028625,1478109663,1.023620605,0.405807495,0.029830933,0.240454684,-0.152517105,0.562089443,0.799414599,1.525730121,-0.351011212,0.315708667,-0.224615052,0.568624854,0.081703305,0.086511351,0.106070474,0.577632848,0.165837004,0.702602366,0.938072085,0.343847543,-0.042303994,40.21940613,-6.438688278,7.089776993,-0.3255253,101.4223
1780.705625,178.0705625,1478109663,1.059448242,0.368713379,-0.008895874,0.091156808,-0.131228861,0.587963651,0.797833745,1.523866073,-0.345453644,0.166406363,-0.203324825,0.59449774,0.083734646,0.067183942,0.073972434,0.57835395,0.167512425,0.702858689,0.939885974,0.338623554,-0.044141497,40.21940613,-6.438688278,7.089776993,-0.3255253,101.4223
1790.368625,179.0368625,1478109663,0.982513428,0.327667236,-0.108322144,-0.021603563,-0.105385812,0.655510204,0.797352531,1.521909106,-0.338949676,0.05364576,-0.177481562,0.662044227,0.117470592,0.036216669,0.037191518,0.579009768,0.169905888,0.702976305,0.94197762,0.332496703,-0.046087392,40.21940613,-6.438688278,7.089776993,-0.3255253,101.4223
1800.061625,180.0061625,1478109663,0.935577393,0.266571045,-0.134262085,-0.04745034,-0.208479973,0.603235548,0.797340579,1.519341606,-0.332649936,0.027798904,-0.280575663,0.609769583,0.038584046,0.001118397,-0.059709612,0.579317284,0.17250398,0.703241525,0.943929374,0.326548845,-0.048612531,40.13961029,-7.102456093,6.905716896,-0.3255253,101.4223
1809.740625,180.9740625,1478109663,0.902252197,0.248840332,-0.103271484,-0.108831942,-0.221881,0.511304026,0.797842088,1.516521076,-0.327281613,-0.033582848,-0.293976545,0.517838061,-0.009947952,-0.054899082,-0.082893007,0.579257162,0.175010264,0.703602121,0.945525348,0.321470112,-0.051369075,40.13961029,-7.102456093,6.905716896,-0.3255253,101.4223
1819.417625,181.9417625,1478109663,0.861968994,0.250488281,-0.082489014,-0.163450447,-0.074809793,0.501054052,0.798934084,1.515026148,-0.322290771,-0.088201582,-0.146905109,0.507588089,-0.044785429,-0.067899883,-0.050400201,0.57947893,0.177345914,0.703551042,0.947037637,0.316740215,-0.052871283,40.13961029,-7.102456093,6.905716896,-0.3255253,101.4223
1829.096625,182.9096625,1478109663,0.832366943,0.261810303,-0.104064941,-0.183339466,0.040946102,0.404005798,0.800347257,1.51494009,-0.317886429,-0.108090669,-0.031149145,0.410539806,-0.086447746,-0.062071301,-0.029458862,0.580023706,0.179334042,0.70310339,0.94841671,0.312559575,-0.053030152,40.06521988,-7.776965141,6.604471684,-0.3255253,101.4223
1838.770625,183.8770625,1478109663,0.774627686,0.276062012,-0.067382813,-0.183339466,0.040946102,0.404005798,0.800347257,1.51494009,-0.317886429,-0.108090669,-0.031149145,0.410539806,-0.086447746,-0.062071301,-0.029458862,0.580023706,0.179334042,0.70310339,0.94841671,0.312559575,-0.053030152,40.06521988,-7.776965141,6.604471684,-0.3255253,101.4223
1848.452625,184.8452625,1478109663,0.736221313,0.288223267,-0.073608398,-0.143408828,0.153148541,-0.042193793,0.802135234,1.51615714,-0.315109583,-0.068160251,0.081053518,-0.03565979,-0.174715862,-0.033858649,-0.015459771,0.580647343,0.18066678,0.702368162,0.949343562,0.309920669,-0.05192304,40.06521988,-7.776965141,6.604471684,-0.3255253,101.4223
1858.129625,185.8129625,1478109663,0.764053345,0.300415039,-0.070877075,-0.191348124,0.146649096,-0.205587514,0.803071539,1.517242813,-0.316838983,-0.116099775,0.074554279,-0.199053526,-0.212641418,-0.023341179,-0.022744831,0.580526841,0.180215257,0.702107004,0.948862731,0.311564445,-0.050863568,40.00616455,-8.088158607,6.588659763,-0.3255253,101.4223
1867.785625,186.7785625,1478109663,0.792541504,0.330001831,-0.060836792,-0.191348124,0.146649096,-0.205587514,0.803071539,1.517242813,-0.316838983,-0.116099775,0.074554279,-0.199053526,-0.212641418,-0.023341179,-0.022744831,0.580526841,0.180215257,0.702107004,0.948862731,0.311564445,-0.050863568,40.00616455,-8.088158607,6.588659763,-0.3255253,101.4223
1877.489625,187.7489625,1478109663,0.807357788,0.348815918,-0.032424927,-0.311034578,0.160200325,-0.226772428,0.805087975,1.518647882,-0.319166063,-0.235786468,0.088105731,-0.220238462,-0.155665144,0.016226983,-0.011344417,0.580202462,0.179881986,0.70170411,0.948206663,0.313774854,-0.049492374,40.00616455,-8.088158607,6.588659763,-0.3255253,101.4223
1887.140625,188.7140625,1478109663,0.871109009,0.311965942,-0.022827148,-0.491115933,0.539905045,-0.123621275,0.812804232,1.527569504,-0.322690892,-0.415867954,0.467810571,-0.117087319,-0.140141815,0.031696208,0.008558,0.581207381,0.179729578,0.698705047,0.947499573,0.317119718,-0.040982928,40.02981949,-7.921709061,6.646959782,-0.3255253,101.4223
1896.845625,189.6845625,1478109663,0.95350647,0.299942017,-0.006912231,-0.453221814,0.508775355,-0.038537273,0.816906909,1.533539555,-0.323404428,-0.377973825,0.436680913,-0.032003321,-0.07639201,-0.005830393,0.012490023,0.582378658,0.179793814,0.696658288,0.947501004,0.31779635,-0.035317171,40.02981949,-7.921709061,6.646959782,-0.3255253,101.4223
1906.520625,190.6520625,1478109663,1.006652832,0.29196167,0.03465271,-0.453221814,0.508775355,-0.038537273,0.816906909,1.533539555,-0.323404428,-0.377973825,0.436680913,-0.032003321,-0.07639201,-0.005830393,0.012490023,0.582378658,0.179793814,0.696658288,0.947501004,0.31779635,-0.035317171,40.02981949,-7.921709061,6.646959782,-0.3255253,101.4223
1916.192625,191.6192625,1478109663,0.941146851,0.27532959,0.010070801,-0.384477104,0.268976873,0.178955371,0.825474062,1.545670141,-0.318911313,-0.309239179,0.196906313,0.185487062,0.057375241,-0.021571284,0.058509454,0.585829066,0.181984293,0.691961047,0.94927758,0.313532948,-0.023856746,39.90401459,-8.040847778,7.234406471,-0.3255253,101.4223
1925.867625,192.5867625,1478109663,0.937835693,0.272064209,0.010360718,-0.384477104,0.268976873,0.178955371,0.825474062,1.545670141,-0.318911313,-0.309239179,0.196906313,0.185487062,0.057375241,-0.021571284,0.058509454,0.585829066,0.181984293,0.691961047,0.94927758,0.313532948,-0.023856746,39.90401459,-8.040847778,7.234406471,-0.3255253,101.4223
1935.541625,193.5541625,1478109663,0.904174805,0.262405396,-0.020614624,-0.315618944,0.267549685,0.26966823,0.82826878,1.548425987,-0.316391176,-0.2403813,0.195479438,0.276199877,-0.01229097,-0.039074685,0.031618919,0.586734704,0.183278952,0.690679323,0.950126648,0.311138898,-0.021258203,39.90401459,-8.040847778,7.234406471,-0.3255253,101.4223
1945.220625,194.5220625,1478109663,0.909637451,0.247116089,-0.043991089,-0.103237706,0.309182084,0.448319734,0.830583454,1.553840065,-0.308925296,-0.028000228,0.237111956,0.454851389,-0.048349112,-0.04162959,-0.004461831,0.589594093,0.185577114,0.688213289,0.952523947,0.304034978,-0.016152794,39.82032394,-8.31538868,7.383639812,-0.3255253,101.4223
1954.899625,195.4899625,1478109663,0.932617188,0.260925293,-0.056503296,-0.103237706,0.309182084,0.448319734,0.830583454,1.553840065,-0.308925296,-0.028000228,0.237111956,0.454851389,-0.048349112,-0.04162959,-0.004461831,0.589594093,0.185577114,0.688213289,0.952523947,0.304034978,-0.016152794,39.82032394,-8.31538868,7.383639812,-0.3255253,101.4223
1964.579625,196.4579625,1478109663,0.898696899,0.26890564,-0.072647095,-0.056828396,0.335258958,0.537179832,0.829266669,1.552009453,-0.300381652,0.018433064,0.263185889,0.543720067,-0.02243788,-0.034959499,-0.038558684,0.590843363,0.188364472,0.688106918,0.955055058,0.295884788,-0.01794461,39.82032394,-8.31538868,7.383639812,-0.3255253,101.4223
1974.258625,197.4258625,1478109663,0.836837769,0.242202759,-0.090438843,-0.128886344,0.257199576,0.436059872,0.829613171,1.556755044,-0.2900234,-0.053625032,0.185126662,0.442600101,-0.059445824,-0.017069008,-0.059192657,0.594368589,0.19109938,0.685717322,0.958142698,0.285974652,-0.013454437,39.60876465,-9.111268997,7.579767704,-0.3255253,101.4223
1983.937625,198.3937625,1478109663,0.781188965,0.267944336,-0.072540283,-0.128886344,0.257199576,0.436059872,0.829613171,1.556755044,-0.2900234,-0.053625032,0.185126662,0.442600101,-0.059445824,-0.017069008,-0.059192657,0.594368589,0.19109938,0.685717322,0.958142698,0.285974652,-0.013454437,39.60876465,-9.111268997,7.579767704,-0.3255253,101.4223
1993.632625,199.3632625,1478109663,0.722396851,0.292327881,-0.068649292,-0.280505964,0.228219057,0.245776745,0.831395241,1.558814909,-0.286996817,-0.205244943,0.156146422,0.252316952,-0.177840516,-0.015128822,-0.061049201,0.595310778,0.19234972,0.684651098,0.959029496,0.283073157,-0.011491083,39.60876465,-9.111268997,7.579767704,-0.3255253,101.4223
2003.290625,200.3290625,1478109663,0.717453003,0.299560547,-0.047439575,-0.280505964,0.228219057,0.245776745,0.831395241,1.558814909,-0.286996817,-0.205244943,0.156146422,0.252316952,-0.177840516,-0.015128822,-0.061049201,0.595310778,0.19234972,0.684651098,0.959029496,0.283073157,-0.011491083,39.60876465,-9.111268997,7.579767704,-0.3255253,101.4223
2012.992625,201.2992625,1478109663,0.7603302,0.281158447,-0.038467407,-0.552823506,0.096274605,0.027798874,0.842904609,1.565867804,-0.286935072,-0.477562636,0.024202112,0.034339063,-0.241651148,0.016546609,-0.042712569,0.595567259,0.194975321,0.68143094,0.959104121,0.28301394,-0.004727005,39.49559402,-9.472903252,7.725544453,-0.3255253,101.4223
2022.672625,202.2672625,1478109663,0.776626587,0.270507813,-0.032531738,-0.552823506,0.096274605,0.027798874,0.842904609,1.565867804,-0.286935072,-0.477562636,0.024202112,0.034339063,-0.241651148,0.016546609,-0.042712569,0.595567259,0.194975321,0.68143094,0.959104121,0.28301394,-0.004727005,39.49559402,-9.472903252,7.725544453,-0.3255253,101.4223
2032.343625,203.2343625,1478109663,0.837509155,0.263671875,0.014053345,-0.538026983,0.071957547,0.178079989,0.847776929,1.567292805,-0.285488447,-0.462766498,-0.000114591,0.184620142,-0.182891726,-0.01111835,-0.029170031,0.595404437,0.196855031,0.680388823,0.959518313,0.281626165,-0.003361708,39.49559402,-9.472903252,7.725544453,-0.3255253,101.4223
2042.028625,204.2028625,1478109663,0.921188354,0.304702759,0.04800415,-0.539610499,0.045066811,0.26641944,0.852618445,1.568443127,-0.282923786,-0.464350164,-0.027005179,0.27295959,-0.122731514,-0.015492508,0.016312987,0.595364032,0.199152003,0.679314582,0.960240662,0.279164374,-0.002259642,39.46372604,-9.620760918,7.705673695,-0.3255253,101.4223
2051.706625,205.1706625,1478109663,0.996948242,0.320175171,0.055282593,-0.542708022,0.067448283,0.286929508,0.857457299,1.569650926,-0.280038493,-0.467447847,-0.004623566,0.293469638,-0.039855815,0.028310116,0.049104933,0.595402899,0.201542175,0.678182234,0.961044192,0.276392639,-0.001100781,39.46372604,-9.620760918,7.705673695,-0.3255253,101.4223
2061.360625,206.1360625,1478109663,1.011642456,0.310043335,0.037017822,-0.567107904,0.131207822,0.320672292,0.862496999,1.571441266,-0.276863604,-0.491847962,0.059136193,0.327212423,0.035030972,0.046835128,0.054662216,0.595654132,0.203983496,0.676816478,0.961917281,0.273340046,0.000620378,39.46372604,-9.620760918,7.705673695,-0.3255253,101.4223
2071.039625,207.1039625,1478109663,1.01385498,0.269592285,-0.001296997,-0.562765619,0.22986276,0.346218132,0.868029549,1.575676875,-0.274266116,-0.487513393,0.157793239,0.352755398,0.049029697,0.03920278,0.032319706,0.596523785,0.205923416,0.674719563,0.962612748,0.270840555,0.004698115,39.37812805,-10.06947422,7.569074631,-0.3255253,101.4223
2080.743625,208.0743625,1478109663,0.956985474,0.276428223,-0.019058228,-0.562765619,0.22986276,0.346218132,0.868029549,1.575676875,-0.274266116,-0.487513393,0.157793239,0.352755398,0.049029697,0.03920278,0.032319706,0.596523785,0.205923416,0.674719563,0.962612748,0.270840555,0.004698115,39.37812805,-10.06947422,7.569074631,-0.3255253,101.4223
2090.415625,209.0415625,1478109663,0.900421143,0.289352417,-0.059555054,-0.554983863,0.387097122,0.419326165,0.877639396,1.583307177,-0.266096235,-0.479731888,0.315027803,0.425863415,-0.007743828,0.013461144,-0.03112844,0.598806554,0.210461657,0.670574966,0.964729309,0.26296708,0.012070213,39.37812805,-10.06947422,7.569074631,-0.3255253,101.4223
2100.101625,210.0101625,1478109663,0.791732788,0.279876709,-0.094085693,-0.586367352,0.387623097,0.347811235,0.882791589,1.587912048,-0.262235633,-0.511115611,0.315553993,0.354348451,-0.065250218,0.030112015,-0.07608483,0.6000934,0.212610065,0.668230553,0.96567136,0.259240389,0.016529776,39.20815659,-10.60087776,7.724266052,-0.3255253,101.4223
2109.782625,210.9782625,1478109663,0.740356445,0.255905151,-0.086257935,-0.636484582,0.251770189,0.159629876,0.888383258,1.591545056,-0.25996712,-0.561232984,0.179701239,0.166167095,-0.174457625,0.022827933,-0.114135794,0.600660105,0.214544768,0.666292347,0.966190398,0.257048786,0.020050101,39.20815659,-10.60087776,7.724266052,-0.3255253,101.4223
2119.455625,211.9455625,1478109663,0.751541138,0.259994507,-0.082611084,-0.841487532,-0.013597302,-0.065045313,0.902419087,1.595465314,-0.259900698,-0.766236126,-0.085666038,-0.058508117,-0.225765005,-0.001079434,-0.110096008,0.599248959,0.218472078,0.663589417,0.966121435,0.256984591,0.023838073,39.20815659,-10.60087776,7.724266052,-0.3255253,101.4223
2129.138625,212.9138625,1478109663,0.790603638,0.246765137,-0.062347412,-0.841487532,-0.013597302,-0.065045313,0.902419087,1.595465314,-0.259900698,-0.766236126,-0.085666038,-0.058508117,-0.225765005,-0.001079434,-0.110096008,0.599248959,0.218472078,0.663589417,0.966121435,0.256984591,0.023838073,39.20815659,-10.60087776,7.724266052,-0.3255253,101.4223
2138.788625,213.8788625,1478109663,0.792312622,0.225372314,-0.039093018,-0.827580238,-0.080322536,-0.068922875,0.910341415,1.59616029,-0.260292994,-0.752329051,-0.152391061,-0.062385704,-0.175400168,-0.010598551,-0.086854354,0.597849961,0.220829378,0.662556349,0.966003776,0.257363677,0.02450694,39.10197449,-11.0112648,7.688284874,-0.3255253,101.4223
2148.496625,214.8496625,1478109663,0.830871582,0.224914551,0.028961182,-0.679775597,-0.130741502,-0.169820728,0.917102096,1.595915732,-0.261444586,-0.604473352,-0.202930793,-0.163344577,-0.173400223,-0.033104002,-0.063356251,0.596210999,0.222726489,0.662013061,0.965712845,0.258476317,0.024263235,39.10197449,-11.0112648,7.688284874,-0.3255253,101.4223
2158.175625,215.8175625,1478109663,0.875717163,0.271881104,0.091186523,-0.476034985,0.017348897,-0.349872256,0.921826662,1.596079663,-0.264259957,-0.400733054,-0.054840099,-0.343396127,-0.134105965,-0.036280435,0.004558129,0.594776932,0.223304964,0.661765341,0.964977562,0.261194974,0.024403052,39.14804459,-11.04378223,7.401868343,-0.3255253,101.4223
2167.833625,216.7833625,1478109663,0.939437866,0.337280273,0.108398438,-0.310206868,0.314188826,-0.602081068,0.925774252,1.602062353,-0.27113795,-0.234920532,0.242005065,-0.595610857,-0.087278694,0.004053117,0.061067656,0.594611641,0.221083062,0.660350547,0.962995887,0.267827988,0.030118868,39.14804459,-11.04378223,7.401868343,-0.3255253,101.4223
2177.531625,217.7531625,1478109663,0.978820801,0.358200073,0.103851318,-0.20318774,0.69566295,-0.859828988,0.927613893,1.607863519,-0.278982426,-0.127901405,0.623479128,-0.853358805,-0.021237936,0.061902713,0.072772563,0.594601736,0.217853159,0.659338354,0.960675776,0.275377572,0.035625871,39.14804459,-11.04378223,7.401868343,-0.3255253,101.4223
2187.207625,218.7207625,1478109663,0.981903076,0.311355591,0.093582153,-0.14121172,0.944607526,-0.99292366,0.928856787,1.616404518,-0.288598941,-0.065925695,0.872424006,-0.986453474,0.021174097,0.073590688,0.060144477,0.595247067,0.213240998,0.657780249,0.957646728,0.284609377,0.043706842,39.27068329,-10.41623306,7.657506943,-0.3255253,101.4223
2196.864625,219.6864625,1478109663,0.941604614,0.265670776,0.058197021,-0.098725246,1.052479399,-1.013200968,0.929752515,1.626340498,-0.298595016,-0.02343937,0.980296016,-1.006730795,0.027626269,0.017177908,0.040523063,0.596325737,0.208062262,0.655881506,0.9542768,0.294177681,0.05305909,39.27068329,-10.41623306,7.657506943,-0.3255253,101.4223
2206.562625,220.6562625,1478109663,0.876754761,0.233810425,0.026626587,-0.098725246,1.052479399,-1.013200968,0.929752515,1.626340498,-0.298595016,-0.02343937,0.980296016,-1.006730795,0.027626269,0.017177908,0.040523063,0.596325737,0.208062262,0.655881506,0.9542768,0.294177681,0.05305909,39.27068329,-10.41623306,7.657506943,-0.3255253,101.4223
2216.239625,221.6239625,1478109663,0.867095947,0.181213379,0.00843811,0.14786696,0.817347308,-1.041251245,0.929015527,1.643243951,-0.319176906,0.223152608,0.745164156,-1.034780979,-0.070248559,-0.079974718,-0.042101838,0.597861991,0.197180967,0.653265224,0.947003305,0.313785136,0.068728425,39.3422699,-9.249279022,8.715438843,-0.3255253,101.4223
2225.906625,222.5906625,1478109663,0.869506836,0.155899048,0.016586304,0.14786696,0.817347308,-1.041251245,0.929015527,1.643243951,-0.319176906,0.223152608,0.745164156,-1.034780979,-0.070248559,-0.079974718,-0.042101838,0.597861991,0.197180967,0.653265224,0.947003305,0.313785136,0.068728425,39.3422699,-9.249279022,8.715438843,-0.3255253,101.4223
2235.593625,223.5593625,1478109663,0.898864746,0.173904419,0.052307129,0.362792848,0.551893531,-1.014084073,0.925783814,1.647744572,-0.329563739,0.438078284,0.479710609,-1.007614017,-0.073876977,-0.167731225,-0.056149036,0.597904677,0.19156081,0.653403999,0.943383813,0.323630273,0.072735339,39.3422699,-9.249279022,8.715438843,-0.3255253,101.4223
2245.269625,224.5269625,1478109663,0.907180786,0.276077271,0.11164856,0.900062428,0.230188198,-1.174392255,0.911457832,1.647347873,-0.35210892,0.975347638,0.158005491,-1.167922139,-0.037033774,-0.170973688,-0.019477628,0.596207056,0.179068439,0.657299107,0.935898542,0.344878107,0.071784757,39.45898438,-7.933824539,9.45331955,-0.3255253,101.4223
2254.939625,225.4939625,1478109663,0.941238403,0.406402588,0.147491455,0.900062428,0.230188198,-1.174392255,0.911457832,1.647347873,-0.35210892,0.975347638,0.158005491,-1.167922139,-0.037033774,-0.170973688,-0.019477628,0.596207056,0.179068439,0.657299107,0.935898542,0.344878107,0.071784757,39.45898438,-7.933824539,9.45331955,-0.3255253,101.4223
2264.623625,226.4623625,1478109663,0.952072144,0.53477478,0.142730713,1.087381456,0.337500541,-1.428513217,0.900606022,1.645912374,-0.366353933,1.162666321,0.265318573,-1.422043085,0.010231539,0.04818888,0.077426068,0.595116254,0.170799516,0.660147584,0.931006849,0.358213723,0.070065387,39.45898438,-7.933824539,9.45331955,-0.3255253,101.4223
2274.296625,227.4296625,1478109663,0.939071655,0.578704834,0.07484436,1.088043784,0.547001836,-2.180120926,0.877513422,1.645609911,-0.405292942,1.163328528,0.474820077,-2.173650742,0.03565583,0.140486792,0.074042127,0.59188864,0.149470281,0.665818549,0.916416287,0.394287974,0.068688586,39.67182159,-5.985919952,9.981863022,-0.3255253,101.4223
2283.977625,228.3977625,1478109663,0.855957031,0.606201172,0.033798218,0.883644839,0.387058773,-2.467790794,0.868345794,1.645449984,-0.429895379,0.958929241,0.314877242,-2.461320639,0.032594152,0.161929131,0.007046503,0.588656356,0.137718695,0.668681264,0.906477511,0.416775703,0.067797855,39.67182159,-5.985919952,9.981863022,-0.3255253,101.4223
2293.655625,229.3655625,1478109663,0.654998779,0.540542603,-0.054382324,0.883644839,0.387058773,-2.467790794,0.868345794,1.645449984,-0.429895379,0.958929241,0.314877242,-2.461320639,0.032594152,0.161929131,0.007046503,0.588656356,0.137718695,0.668681264,0.906477511,0.416775703,0.067797855,39.67182159,-5.985919952,9.981863022,-0.3255253,101.4223
2303.308625,230.3308625,1478109663,0.72869873,0.103668213,-0.20072937,0.398906111,-0.316026674,-2.586837024,0.858339581,1.639136715,-0.48542484,0.474190325,-0.388207972,-2.580367088,-0.227413401,0.073958442,-0.114780769,0.576833654,0.115969174,0.675538249,0.882412195,0.466584176,0.060398448,39.89337158,-2.823764801,10.48177147,-0.3255253,101.4223
2313.009625,231.3009625,1478109663,0.87588501,0.34185791,-0.132995605,0.406211695,-0.67897292,-1.238927307,0.854147043,1.630184865,-0.501279584,0.481495917,-0.751154244,-1.232457161,-0.146723568,-0.376879871,-0.252780616,0.571267406,0.110893044,0.67946825,0.875422299,0.480548084,0.052051261,39.89337158,-2.823764801,10.48177147,-0.3255253,101.4223
2322.679625,232.2679625,1478109663,0.992141724,0.710266113,0.118286133,0.406211695,-0.67897292,-1.238927307,0.854147043,1.630184865,-0.501279584,0.481495917,-0.751154244,-1.232457161,-0.146723568,-0.376879871,-0.252780616,0.571267406,0.110893044,0.67946825,0.875422299,0.480548084,0.052051261,39.89337158,-2.823764801,10.48177147,-0.3255253,101.4223
2332.361625,233.2361625,1478109663,1.096984863,0.90411377,0.134902954,0.534326255,-0.624966676,-0.514593829,0.848132566,1.6202259,-0.507979576,0.609610081,-0.697147667,-0.508123815,0.119479842,0.223853171,0.075115666,0.567744135,0.108685515,0.683082882,0.872661889,0.486412942,0.043170471,39.89337158,-2.823764801,10.48177147,-0.3255253,101.4223
2342.037625,234.2037625,1478109663,1.062316895,0.901596069,0.20866394,0.930733256,-0.718607149,-0.460122331,0.838131944,1.607732034,-0.51267466,1.00601697,-0.790787935,-0.453652292,0.226143539,0.413603991,0.102723181,0.564656312,0.106375803,0.687454945,0.870841324,0.490509778,0.032179773,40.15190125,-0.683996201,9.832546234,-0.3255253,101.4223
2351.714625,235.1714625,1478109663,1.073471069,0.869628906,0.246246338,1.320256518,-0.671270525,-0.82272423,0.823274745,1.592633675,-0.520183343,1.395539999,-0.743451238,-0.816254199,0.194795713,0.404556841,0.189716563,0.561084595,0.101938142,0.692917692,0.867521167,0.497039229,0.018947374,40.15190125,-0.683996201,9.832546234,-0.3255253,101.4223
2361.383625,236.1383625,1478109663,1.116760254,0.75668335,0.078277588,1.406229749,-0.394595519,-1.222442339,0.806389202,1.57873685,-0.531621483,1.481513023,-0.466775954,-1.215972424,0.211512014,0.362697214,0.239401788,0.557458666,0.095097831,0.698236441,0.86195904,0.506931722,0.006844549,40.15190125,-0.683996201,9.832546234,-0.3255253,101.4223
2371.067625,237.1067625,1478109663,1.137817383,0.602386475,-0.067672729,1.222693742,-0.173342759,-1.361091033,0.790588945,1.567746714,-0.545105886,1.297976971,-0.245523155,-1.354621053,0.261691839,0.238174722,0.080885224,0.554118803,0.087241232,0.702632753,0.855068445,0.518508613,-0.002607636,40.34855652,0.572872162,8.999331474,-0.3255253,101.4223
2380.744625,238.0744625,1478109663,1.159957886,0.494598389,-0.099502563,0.792030233,-0.004132693,-1.065693205,0.778945528,1.560413478,-0.556612121,0.867313325,-0.076312929,-1.059223175,0.288813293,0.074073717,-0.058857333,0.551563875,0.080717034,0.705614951,0.84900409,0.528312743,-0.008815398,40.34855652,0.572872162,8.999331474,-0.3255253,101.4223
2390.410625,239.0410625,1478109663,1.095062256,0.439376831,-0.123245239,0.362123329,0.282803207,-0.449903249,0.772565205,1.558335467,-0.562640641,0.437406212,0.21062319,-0.443433285,0.314174056,-0.038823251,-0.088962823,0.550904504,0.076809398,0.706661295,0.84578383,0.533421636,-0.010539739,40.34855652,0.572872162,8.999331474,-0.3255253,101.4223
2400.080625,240.0080625,1478109664,1.055679321,0.537796021,-0.073638916,0.177700489,0.573851294,-0.014556306,0.769146844,1.560802912,-0.563436678,0.252983272,0.501671314,-0.008086347,0.249679878,-0.094717965,-0.114796698,0.552348644,0.074784229,0.706138505,0.845382392,0.53409481,-0.008448538,40.33226013,2.08407402,8.848028183,-0.3255253,101.4223
2409.773625,240.9773625,1478109664,1.177062988,0.596420288,0.032165527,0.177700489,0.573851294,-0.014556306,0.769146844,1.560802912,-0.563436678,0.252983272,0.501671314,-0.008086347,0.249679878,-0.094717965,-0.114796698,0.552348644,0.074784229,0.706138505,0.845382392,0.53409481,-0.008448538,40.33226013,2.08407402,8.848028183,-0.3255253,101.4223
2419.428625,241.9428625,1478109664,1.349502563,0.58303833,-0.015777588,-0.141828508,1.497184956,-0.130093555,0.76726421,1.580482283,-0.564899766,-0.066545874,1.425005198,-0.123623617,0.332460344,0.061089132,0.023984488,0.559362224,0.069307753,0.700789494,0.844602644,0.53533113,0.00818104,40.33226013,2.08407402,8.848028183,-0.3255253,101.4223
2429.127625,242.9127625,1478109664,1.418777466,0.472610474,-0.067016602,-0.403665446,1.710147829,0.200931776,0.770293211,1.598194548,-0.563830997,-0.328383118,1.637968302,0.207401693,0.50460583,0.048610207,-0.038932048,0.565116,0.066866194,0.695666358,0.844896734,0.53442812,0.023154462,40.09392929,2.217023849,9.842957497,-0.3255253,101.4223
2438.776625,243.8776625,1478109664,1.261108398,0.395446777,-0.038223267,-2.110782332,1.481551136,1.358464091,0.797008482,1.642942649,-0.542862067,-2.035500288,1.409371853,1.364934087,0.564771235,-0.043978229,-0.128737137,0.579209867,0.073719282,0.68095903,0.854006231,0.516588688,0.061720535,40.09392929,2.217023849,9.842957497,-0.3255253,101.4223
2448.481625,244.8481625,1478109664,0.850494385,0.406921387,-0.194763184,-2.110782332,1.481551136,1.358464091,0.797008482,1.642942649,-0.542862067,-2.035500288,1.409371853,1.364934087,0.564771235,-0.043978229,-0.128737137,0.579209867,0.073719282,0.68095903,0.854006231,0.516588688,0.061720535,40.09392929,2.217023849,9.842957497,-0.3255253,101.4223
2458.142625,245.8142625,1478109664,0.381149292,0.623550415,-0.33215332,-3.740578595,0.995242474,1.134064007,0.833433662,1.67195073,-0.52763129,-3.665296793,0.923063397,1.140533805,-0.009091167,-0.096566796,-0.282011837,0.584218497,0.085065925,0.670178681,0.859585524,0.503488183,0.087248646,39.62314224,1.097612381,11.75260925,-0.3255253,101.4223
2467.821625,246.7821625,1478109664,0.30015564,0.816543579,-0.565063477,-4.606942182,0.228666734,0.021621939,0.883547698,1.700730275,-0.519024317,-4.531660557,0.156487793,0.028091807,-0.479834855,0.127517223,-0.44465825,0.58424504,0.098276972,0.658854443,0.860984147,0.496033192,0.112504922,39.62314224,1.097612381,11.75260925,-0.3255253,101.4223
2477.500625,247.7500625,1478109664,0.510025024,0.474060059,-0.144897461,-3.770167647,-0.491998505,-1.155914445,0.930378986,1.71968004,-0.522326379,-3.694885969,-0.564177454,-1.14944458,-0.556917608,0.317645907,-0.693619013,0.578669149,0.107945439,0.651206587,0.857073247,0.498897672,0.128555521,39.48048782,-0.601694107,12.25769138,-0.3255253,101.4223
2487.178625,248.7178625,1478109664,0.704879761,0.295684814,0.236663818,-2.648540069,-0.316211497,-1.522748373,0.965292486,1.732441531,-0.532442131,-2.573258638,-0.388390154,-1.516278505,-0.340313315,-0.033578862,-0.283560395,0.571993292,0.112482074,0.64654181,0.85033834,0.507638931,0.138662934,39.48048782,-0.601694107,12.25769138,-0.3255253,101.4223
2496.852625,249.6852625,1478109664,0.760757446,0.301330566,0.283889771,-2.648540069,-0.316211497,-1.522748373,0.965292486,1.732441531,-0.532442131,-2.573258638,-0.388390154,-1.516278505,-0.340313315,-0.033578862,-0.283560395,0.571993292,0.112482074,0.64654181,0.85033834,0.507638931,0.138662934,39.48048782,-0.601694107,12.25769138,-0.3255253,101.4223
2506.554625,250.6554625,1478109664,0.794036865,0.392990112,0.363189697,-1.945161941,-0.03186632,-1.490174451,0.991429421,1.744359411,-0.54393863,-1.869880676,-0.104044825,-1.483704567,-0.082063645,-0.216179624,0.136120349,0.566622691,0.113742795,0.642789128,0.842821121,0.517510176,0.147769421,39.48048782,-0.601694107,12.25769138,-0.3255253,101.4223
2516.231625,251.6231625,1478109664,0.629669189,0.48828125,0.389144897,-0.976210992,0.138213533,-0.439273774,1.023764701,1.759962488,-0.556117143,-0.900929928,0.066035241,-0.432803959,-0.040123828,-0.134902313,0.203485221,0.56046222,0.115668512,0.637784097,0.834160686,0.527892411,0.159704477,39.60962296,0.155405045,11.84803009,-0.3255253,101.4223
2525.892625,252.5892625,1478109664,0.405456543,0.622009277,0.408035278,-0.630840811,0.570466682,-0.280213283,1.031712755,1.767939606,-0.557598753,-0.555559933,0.498288631,-0.27374348,-0.202423096,-0.040868949,0.222944751,0.560587008,0.115593494,0.635246463,0.832092285,0.529150188,0.166200146,39.60962296,0.155405045,11.84803009,-0.3255253,101.4223
2535.586625,253.5586625,1478109664,0.449127197,0.626998901,0.376571655,-0.630840811,0.570466682,-0.280213283,1.031712755,1.767939606,-0.557598753,-0.555559933,0.498288631,-0.27374348,-0.202423096,-0.040868949,0.222944751,0.560587008,0.115593494,0.635246463,0.832092285,0.529150188,0.166200146,39.60962296,0.155405045,11.84803009,-0.3255253,101.4223
2545.264625,254.5264625,1478109664,0.387588501,0.571258545,0.340194702,-0.255333499,0.944658659,-0.977947906,1.041661769,1.789837548,-0.569711572,-0.180052876,0.87248075,-0.971478105,-0.3728095,0.087609701,0.193597943,0.561965381,0.108576495,0.629860528,0.821936667,0.539389193,0.182973713,39.52588272,0.460659027,12.11670494,-0.3255253,101.4223
2554.929625,255.4929625,1478109664,0.328414917,0.47366333,0.210357666,-0.187161635,0.893420238,-1.186659841,1.04626324,1.800815833,-0.580663846,-0.111881264,0.821242571,-1.180190086,-0.426488966,0.022679446,0.149567112,0.561519145,0.103087949,0.627741255,0.814077437,0.548579097,0.19062759,39.52588272,0.460659027,12.11670494,-0.3255253,101.4223
2564.622625,256.4622625,1478109664,0.390441895,0.424484253,0.145431519,-0.187161635,0.893420238,-1.186659841,1.04626324,1.800815833,-0.580663846,-0.111881264,0.821242571,-1.180190086,-0.426488966,0.022679446,0.149567112,0.561519145,0.103087949,0.627741255,0.814077437,0.548579097,0.19062759,39.52588272,0.460659027,12.11670494,-0.3255253,101.4223
2574.300625,257.4300625,1478109664,0.434020996,0.536956787,0.156173706,0.203953132,0.282630101,-1.195039211,1.050116286,1.811645799,-0.603483678,0.279233277,0.210452661,-1.188569427,-0.409155875,-0.143029988,-0.050963473,0.558246466,0.09296348,0.627024956,0.79959774,0.567514241,0.196394995,39.18263245,1.534288406,13.10303879,-0.3255253,101.4223
2583.977625,258.3977625,1478109664,0.531616211,0.544876099,0.092834473,0.453030067,0.310303008,-1.485207389,1.048687186,1.813028547,-0.618274144,0.528310001,0.238125786,-1.478737593,-0.357068568,-0.042672873,-0.039291788,0.555369683,0.086652061,0.628298236,0.791089594,0.57962966,0.19546549,39.18263245,1.534288406,13.10303879,-0.3255253,101.4223
2593.654625,259.3654625,1478109664,0.524276733,0.658859253,0.068664551,0.453030067,0.310303008,-1.485207389,1.048687186,1.813028547,-0.618274144,0.528310001,0.238125786,-1.478737593,-0.357068568,-0.042672873,-0.039291788,0.555369683,0.086652061,0.628298236,0.791089594,0.57962966,0.19546549,39.18263245,1.534288406,13.10303879,-0.3255253,101.4223
2603.327625,260.3327625,1478109664,0.473709106,0.626358032,0.039337158,0.549180302,0.424457011,-1.811832113,1.046388894,1.814921062,-0.636353586,0.624459982,0.352280021,-1.805362344,-0.256144166,0.064592548,-0.12573275,0.55203266,0.078694607,0.629768615,0.780420899,0.594266713,0.1943973,38.97199249,3.203756332,13.42542267,-0.3255253,101.4223
2613.011625,261.3011625,1478109664,0.579605103,0.551422119,0.200531006,0.475736178,0.309748005,-2.149256753,1.045646822,1.817225491,-0.657784638,0.551015794,0.237571076,-2.14278698,-0.293732584,0.014992802,-0.153706446,0.547511758,0.069850153,0.631347097,0.76744169,0.611365259,0.193043604,38.97199249,3.203756332,13.42542267,-0.3255253,101.4223
2622.690625,262.2690625,1478109664,0.896789551,0.467300415,0.183166504,0.267620525,0.392113985,-2.311715705,1.047923774,1.821468771,-0.680989655,0.342899948,0.319937289,-2.305245876,-0.173062027,-0.078140125,0.007804317,0.542260714,0.06074701,0.632413201,0.752667129,0.629562259,0.192726687,38.97199249,3.203756332,13.42542267,-0.3255253,101.4223
2632.349625,263.2349625,1478109664,1.00227356,0.60395813,0.380355835,0.25363094,0.43869001,-1.433688538,1.04961928,1.82607637,-0.697979262,0.328910202,0.366513431,-1.427218914,0.155475795,-0.17537041,-0.010297012,0.538834696,0.053660363,0.632762837,0.741313756,0.64267081,0.193463519,38.56762695,5.810243607,13.71501255,-0.3255253,101.4223
2642.049625,264.2049625,1478109664,1.104446411,0.900924683,0.422821045,0.143320145,0.86570765,0.522181175,1.043684499,1.837632307,-0.70195907,0.218599319,0.79353112,0.52865082,0.265717953,-0.041756701,0.179014862,0.543087247,0.047098178,0.630167659,0.736555636,0.645714819,0.201340973,38.56762695,5.810243607,13.71501255,-0.3255253,101.4223
2651.728625,265.1728625,1478109664,1.131591797,1.080200195,0.3984375,0.143320145,0.86570765,0.522181175,1.043684499,1.837632307,-0.70195907,0.218599319,0.79353112,0.52865082,0.265717953,-0.041756701,0.179014862,0.543087247,0.047098178,0.630167659,0.736555636,0.645714819,0.201340973,38.56762695,5.810243607,13.71501255,-0.3255253,101.4223
2661.402625,266.1402625,1478109664,1.104293823,1.007202148,0.434265137,0.146582251,0.762146903,0.696222481,1.038792589,1.841780511,-0.695689475,0.22186105,0.689970732,0.702692091,0.391991556,0.439285368,0.192963243,0.547370517,0.046770526,0.628550231,0.739600241,0.640914857,0.205474257,38.23381042,6.163236618,14.4745388,-0.3255253,101.4223
2671.084625,267.1084625,1478109664,1.106201172,0.85585022,0.201934814,0.488108692,0.880512163,0.349293551,1.031076183,1.843962056,-0.69247417,0.563387394,0.808336139,0.355763167,0.363163114,0.368758708,0.226623029,0.551005516,0.044957778,0.627819834,0.74113071,0.63844341,0.207642108,38.23381042,6.163236618,14.4745388,-0.3255253,101.4223
2680.760625,268.0760625,1478109664,0.968490601,0.737243652,0.151199341,0.84897927,0.884582805,0.00868297,1.020170461,1.845095395,-0.693865309,0.924257815,0.812406898,0.015152566,0.366161942,0.216336697,-0.006306333,0.553983608,0.040700156,0.627871742,0.740039229,0.639513552,0.20824115,38.23381042,6.163236618,14.4745388,-0.3255253,101.4223
2690.427625,269.0427625,1478109664,0.849822998,0.699478149,0.099884033,0.993168671,0.872877146,-0.155879612,0.995359013,1.846294726,-0.702535969,1.068446994,0.800701439,-0.149410039,0.234065279,0.091088422,-0.056412976,0.558868376,0.029303358,0.628756832,0.734425306,0.646155238,0.207612321,37.93815231,6.127166748,15.24718285,-0.3255253,101.4223
2700.115625,270.0115625,1478109664,0.71887207,0.73260498,0.174987793,0.993168671,0.872877146,-0.155879612,0.995359013,1.846294726,-0.702535969,1.068446994,0.800701439,-0.149410039,0.234065279,0.091088422,-0.056412976,0.558868376,0.029303358,0.628756832,0.734425306,0.646155238,0.207612321,37.93815231,6.127166748,15.24718285,-0.3255253,101.4223
2709.794625,270.9794625,1478109664,0.608047485,0.746047974,0.212020874,0.831936903,0.85259318,-0.167786073,0.983726951,1.846490805,-0.706522677,0.907214999,0.780417681,-0.161316514,-0.013027942,0.083412215,-0.032065641,0.561044015,0.024082163,0.62920055,0.731900036,0.64919275,0.207053438,37.93815231,6.127166748,15.24718285,-0.3255253,101.4223
2719.465625,271.9465625,1478109664,0.677001953,0.667922974,-0.049133301,0.58731091,0.936796208,-0.366515148,0.975841117,1.849967109,-0.71148949,0.662588835,0.864620924,-0.360045612,-0.120019734,0.093085356,0.003315486,0.562986159,0.018784768,0.628724454,0.728067219,0.652962625,0.208705381,37.52109909,6.782398224,15.98400307,-0.3255253,101.4223
2729.151625,272.9151625,1478109664,0.581970215,0.730194092,0.190063477,0.538624597,0.72742381,-0.32590567,0.968923629,1.852056954,-0.716402559,0.61390239,0.655248582,-0.319436163,-0.047536753,0.011247139,-0.25846681,0.564242342,0.014183737,0.628595318,0.724538684,0.656675816,0.209333494,37.52109909,6.782398224,15.98400307,-0.3255253,101.4223
2738.827625,273.8827625,1478109664,0.627700806,0.733612061,0.199325562,0.353513862,1.003403998,-0.363650386,0.964344745,1.857893071,-0.721501704,0.428790867,0.931228042,-0.357181609,-0.138113648,0.069681175,-0.022543963,0.56599878,0.009244245,0.627384112,0.720083833,0.660512924,0.212607443,37.52109909,6.782398224,15.98400307,-0.3255253,101.4223
2748.504625,274.8504625,1478109664,0.611709595,0.745498657,0.234085083,0.294156795,0.976322312,-0.297717441,0.957497784,1.872689294,-0.729774794,0.369433552,0.904146552,-0.291248709,-0.083916731,0.066910259,-0.022280373,0.570346777,-1.09E-05,0.62385658,0.711617529,0.666701794,0.221605942,37.04249954,7.447658539,16.7841568,-0.3255253,101.4223
2758.181625,275.8181625,1478109664,0.598007202,0.758789063,0.207199097,0.294156795,0.976322312,-0.297717441,0.957497784,1.872689294,-0.729774794,0.369433552,0.904146552,-0.291248709,-0.083916731,0.066910259,-0.022280373,0.570346777,-1.09E-05,0.62385658,0.711617529,0.666701794,0.221605942,37.04249954,7.447658539,16.7841568,-0.3255253,101.4223
2767.860625,276.7860625,1478109664,0.725753784,0.738494873,0.169189453,0.359137659,0.700868898,-0.178800375,0.953099134,1.876964254,-0.733061683,0.434414208,0.628693342,-0.172331646,-0.110563181,0.089641072,-0.016785232,0.57201538,-0.003781817,0.622891269,0.708570361,0.669147968,0.223984331,37.04249954,7.447658539,16.7841568,-0.3255253,101.4223
2777.537625,277.7537625,1478109664,0.739303589,0.779052734,0.285736084,0.430960717,0.404750951,0.010367686,0.946936307,1.876858327,-0.734806195,0.506237268,0.332575411,0.01683641,0.018273849,0.068051502,-0.054367751,0.573179996,-0.006341851,0.623041875,0.707479954,0.670443356,0.223557204,36.57191467,7.919986725,17.58098412,-0.3255253,101.4223
2787.214625,278.7214625,1478109664,0.68977356,0.796676636,0.238494873,0.376819185,0.477980424,-0.108451376,0.941042241,1.876443833,-0.736599145,0.452095449,0.405805171,-0.101982675,0.032878544,0.107280143,0.062834218,0.574160843,-0.008755741,0.623275545,0.706425071,0.671772599,0.222901866,36.57191467,7.919986725,17.58098412,-0.3255253,101.4223
2796.869625,279.6869625,1478109664,0.742263794,0.723587036,0.100402832,0.365154539,0.526361006,-0.445318617,0.936732442,1.878059546,-0.741271631,0.440430641,0.454185873,-0.438849926,-0.01329088,0.121450208,0.01540371,0.574618409,-0.012320333,0.623139333,0.703064442,0.67522645,0.22309117,36.57191467,7.919986725,17.58098412,-0.3255253,101.4223
2806.569625,280.6569625,1478109664,0.765426636,0.659057617,0.179229736,0.365154539,0.526361006,-0.445318617,0.936732442,1.878059546,-0.741271631,0.440430641,0.454185873,-0.438849926,-0.01329088,0.121450208,0.01540371,0.574618409,-0.012320333,0.623139333,0.703064442,0.67522645,0.22309117,36.57191467,7.919986725,17.58098412,-0.3255253,101.4223
2816.246625,281.6246625,1478109664,0.825668335,0.618743896,0.145675659,0.278813791,0.324632679,-0.80923745,0.931168493,1.879288383,-0.75599419,0.354095936,0.252456129,-0.80276525,0.072184458,-0.026954753,-0.04168272,0.5727178,-0.020034586,0.623812782,0.693242192,0.686012387,0.220912457,36.31187057,8.408950806,17.89021683,-0.3255253,101.4223
2825.896625,282.5896625,1478109664,0.781387329,0.730789185,0.171066284,0.23329371,-0.023620375,-0.793512815,0.930105513,1.878440482,-0.764471012,0.30857563,-0.095796689,-0.787040651,0.137806118,-0.073411405,-0.072880097,0.570559089,-0.023396612,0.624639673,0.687862217,0.692155302,0.218555748,36.31187057,8.408950806,17.89021683,-0.3255253,101.4223
2835.602625,283.5602625,1478109664,0.787689209,0.718276978,0.144821167,0.23329371,-0.023620375,-0.793512815,0.930105513,1.878440482,-0.764471012,0.30857563,-0.095796689,-0.787040651,0.137806118,-0.073411405,-0.072880097,0.570559089,-0.023396612,0.624639673,0.687862217,0.692155302,0.218555748,36.31187057,8.408950806,17.89021683,-0.3255253,101.4223
2845.280625,284.5280625,1478109664,0.722259521,0.653961182,0.18119812,0.209640845,-0.373354945,-0.691334248,0.929152669,1.870689572,-0.78070689,0.28492254,-0.44553104,-0.684862137,0.108980261,0.014495196,-0.065048724,0.564187465,-0.027854554,0.6279245,0.678708971,0.703781784,0.209869891,36.08283234,9.392595291,17.86422539,-0.3255253,101.4223
2854.946625,285.4946625,1478109664,0.693252563,0.721237183,0.216583252,0.209640845,-0.373354945,-0.691334248,0.929152669,1.870689572,-0.78070689,0.28492254,-0.44553104,-0.684862137,0.108980261,0.014495196,-0.065048724,0.564187465,-0.027854554,0.6279245,0.678708971,0.703781784,0.209869891,36.08283234,9.392595291,17.86422539,-0.3255253,101.4223
2864.635625,286.4635625,1478109664,0.727783203,0.753326416,0.211898804,0.256969745,-0.414225945,-0.636243033,0.927446347,1.864667263,-0.787666227,0.332251221,-0.486401826,-0.629770935,0.017996343,0.012528459,0.012228215,0.560938625,-0.029443399,0.6300441,0.675256193,0.708708704,0.204355031,36.08283234,9.392595291,17.86422539,-0.3255253,101.4223
2874.315625,287.4315625,1478109664,0.730178833,0.712249756,0.203567505,0.28941983,-0.431939162,-0.745323182,0.925405772,1.858227847,-0.795436733,0.364701182,-0.504114807,-0.738851011,0.056526538,0.03915704,0.013463439,0.557422527,-0.031331494,0.632297917,0.671256661,0.714169383,0.198435366,36.10968018,10.30700779,17.29678726,-0.3255253,101.4223
2883.994625,288.3994625,1478109664,0.669296265,0.695419312,0.224807739,0.286970255,-0.396286093,-0.793005217,0.923573785,1.852112633,-0.803969543,0.36225152,-0.468461663,-0.786533058,0.063599989,-0.007866283,0.01093954,0.553737763,-0.033526472,0.634477733,0.666578829,0.720116019,0.192627966,36.10968018,10.30700779,17.29678726,-0.3255253,101.4223
2893.673625,289.3673625,1478109664,0.695495605,0.643264771,0.158157349,0.303000354,-0.243638227,-0.769054344,0.921444781,1.846973444,-0.812374154,0.378281415,-0.315813601,-0.762582183,0.007582726,-0.030502796,0.03726498,0.550461778,-0.036024075,0.636341799,0.661713541,0.725922108,0.187542766,36.10968018,10.30700779,17.29678726,-0.3255253,101.4223
2903.336625,290.3336625,1478109664,0.690658569,0.651947021,0.131393433,0.350972407,-0.18857604,-0.771715374,0.918661189,1.842355519,-0.82082233,0.426253319,-0.260751247,-0.765243232,0.038854618,-0.088441819,-0.024676112,0.547504302,-0.038883299,0.63802144,0.656641006,0.731706619,0.182833463,36.06934357,11.32562351,16.7348423,-0.3255253,101.4223
2913.020625,291.3020625,1478109664,0.658721924,0.687149048,0.09828186,0.382981473,-0.273362567,-0.785387511,0.914983737,1.836240541,-0.82920005,0.458263427,-0.345537782,-0.77891463,0.038850192,-0.085444249,-0.045806896,0.544316924,-0.041593774,0.640054525,0.651808381,0.737391293,0.177200332,36.06934357,11.32562351,16.7348423,-0.3255253,101.4223
2922.693625,292.2693625,1478109664,0.608612061,0.732711792,0.099990845,0.371116292,-0.278817253,-0.80679107,0.911578236,1.830160271,-0.838055374,0.44639802,-0.350992233,-0.800318182,0.012185127,-0.0561947,-0.073270597,0.540926288,-0.044404943,0.642068512,0.646536767,0.743343771,0.171552449,36.06934357,11.32562351,16.7348423,-0.3255253,101.4223
2932.367625,293.2367625,1478109664,0.549118042,0.769760132,0.09211731,0.326225782,-0.173988042,-0.802522289,0.908562981,1.825133689,-0.846835494,0.401507378,-0.246162891,-0.796049416,-0.032437328,-0.016476335,-0.066660985,0.537775362,-0.047343661,0.643764446,0.641049385,0.749188125,0.16665183,35.95607758,12.38264561,16.22197723,-0.3255253,101.4223
2942.063625,294.2063625,1478109664,0.518417358,0.822509766,0.080276489,0.130592099,-0.054457383,-0.658213579,0.905852746,1.819929541,-0.862078332,0.205873594,-0.126632154,-0.65174073,-0.081648618,0.010563225,-0.068361603,0.532728255,-0.052578703,0.645752293,0.63076663,0.759196877,0.160478905,35.95607758,12.38264561,16.22197723,-0.3255253,101.4223
2951.727625,295.1727625,1478109664,0.498672485,0.835601807,0.058074951,0.130592099,-0.054457383,-0.658213579,0.905852746,1.819929541,-0.862078332,0.205873594,-0.126632154,-0.65174073,-0.081648618,0.010563225,-0.068361603,0.532728255,-0.052578703,0.645752293,0.63076663,0.759196877,0.160478905,35.95607758,12.38264561,16.22197723,-0.3255253,101.4223
2961.420625,296.1420625,1478109664,0.511932373,0.829376221,0.045013428,-0.073559971,-0.173140092,-0.364702068,0.905036996,1.814626908,-0.875426812,0.001721429,-0.24532865,-0.358235419,-0.123045921,0.067784786,-0.096596472,0.527615875,-0.056445153,0.647671392,0.621718407,0.76781702,0.154671431,35.76416779,13.27829075,15.93528748,-0.3255253,101.4223
2971.086625,297.1086625,1478109664,0.533172607,0.823486328,0.075332642,-0.073559971,-0.173140092,-0.364702068,0.905036996,1.814626908,-0.875426812,0.001721429,-0.24532865,-0.358235419,-0.123045921,0.067784786,-0.096596472,0.527615875,-0.056445153,0.647671392,0.621718407,0.76781702,0.154671431,35.76416779,13.27829075,15.93528748,-0.3255253,101.4223
2980.770625,298.0770625,1478109664,0.548370361,0.81602478,0.115356445,-0.15916329,-0.18804687,-0.223908997,0.907005289,1.813500667,-0.877699137,-0.083882108,-0.26023522,-0.217442364,-0.087024406,0.054215487,-0.078218773,0.526093573,-0.056357989,0.648111155,0.620196998,0.769270837,0.153551415,35.76416779,13.27829075,15.93528748,-0.3255253,101.4223
2990.442625,299.0442625,1478109664,0.583572388,0.821746826,0.147705078,-0.172270037,-0.063123043,-0.078524903,0.908853367,1.813140068,-0.878537857,-0.09698908,-0.135311171,-0.072058298,-0.071255416,0.046218332,-0.037816431,0.525241527,-0.055977029,0.648290162,0.619625747,0.769806445,0.15317288,35.70945358,13.77615261,15.63248634,-0.3255253,101.4223
3000.141625,300.0141625,1478109664,0.618453979,0.850280762,0.153320313,-0.184577037,0.153683836,0.034688206,0.910950205,1.815267443,-0.886212477,-0.10930796,0.081477202,0.04113761,-0.029975647,0.047064558,-0.005351105,0.523256378,-0.058780552,0.648086997,0.61354804,0.774682283,0.153056189,35.70945358,13.77615261,15.63248634,-0.3255253,101.4223
3009.820625,300.9820625,1478109664,0.61138916,0.892608643,0.161819458,-0.152480087,0.3848353,0.078641283,0.912089975,1.818843663,-0.88532429,-0.077211156,0.312628806,0.085090674,0.004790469,0.076160446,-0.002097936,0.524344184,-0.05905972,0.64714977,0.613663495,0.774120331,0.155418247,35.70945358,13.77615261,15.63248634,-0.3255253,101.4223
3019.490625,301.9490625,1478109664,0.638931274,0.927780151,0.161300659,-0.068074392,0.539712232,0.11327303,0.91254905,1.823810872,-0.891760519,0.007183044,0.467489094,0.119706035,0.003341659,0.11443001,0.004605434,0.524057973,-0.062713434,0.646111456,0.608047485,0.778178632,0.157214031,35.54356003,14.00512886,15.80613136,-0.3255253,101.4223
3029.176625,302.9176625,1478109664,0.660400391,0.976760864,0.179992676,0.053367351,0.723893257,0.098013649,0.910471994,1.828324526,-0.891004826,0.128624707,0.651670098,0.104446642,0.031031076,0.150076345,0.001194001,0.526294324,-0.064341026,0.644830911,0.607900202,0.777703822,0.160106659,35.54356003,14.00512886,15.80613136,-0.3255253,101.4223
3038.856625,303.8856625,1478109664,0.633087158,0.973953247,0.206878662,0.053367351,0.723893257,0.098013649,0.910471994,1.828324526,-0.891004826,0.128624707,0.651670098,0.104446642,0.031031076,0.150076345,0.001194001,0.526294324,-0.064341026,0.644830911,0.607900202,0.777703822,0.160106659,35.54356003,14.00512886,15.80613136,-0.3255253,101.4223
3048.533625,304.8533625,1478109664,0.606887817,0.987197876,0.247848511,0.191281812,0.793718944,-0.211986291,0.90435007,1.838497982,-0.892903885,0.266539007,0.721495986,-0.205553308,0.028272621,0.195057034,0.040986914,0.530729266,-0.069826998,0.64201115,0.604814529,0.778896213,0.165891752,35.3213768,14.25263214,16.08057404,-0.3255253,101.4223
3058.211625,305.8211625,1478109664,0.56036377,1.040740967,0.369171143,0.224649888,0.794673421,-0.521584893,0.901713789,1.843515619,-0.897910762,0.29990679,0.722450793,-0.515151918,0.006676537,0.205171362,0.079976663,0.531689649,-0.073951875,0.640777026,0.600211263,0.782026529,0.167871848,35.3213768,14.25263214,16.08057404,-0.3255253,101.4223
3067.865625,306.7865625,1478109664,0.51802063,0.952178955,0.360275269,0.224649888,0.794673421,-0.521584893,0.901713789,1.843515619,-0.897910762,0.29990679,0.722450793,-0.515151918,0.006676537,0.205171362,0.079976663,0.531689649,-0.073951875,0.640777026,0.600211263,0.782026529,0.167871848,35.3213768,14.25263214,16.08057404,-0.3255253,101.4223
3077.566625,307.7566625,1478109664,0.463531494,0.861557007,0.211349487,0.387824698,1.269998407,-0.836052553,0.896732027,1.861020826,-0.914598792,0.463081449,1.19777596,-0.829619586,-0.066572934,0.159861088,0.185682133,0.534058878,-0.086704451,0.636542043,0.584593534,0.792317867,0.174593136,34.88455582,14.55273151,16.75135422,-0.3255253,101.4223
3087.244625,308.7244625,1478109664,0.495681763,0.714996338,0.15385437,0.466864656,1.082739566,-0.674615988,0.891958898,1.867929893,-0.923056103,0.542121112,1.010517359,-0.668183088,-0.113413818,0.064107656,0.03468981,0.535231828,-0.093347234,0.634788513,0.576945305,0.79744935,0.176659673,34.88455582,14.55273151,16.75135422,-0.3255253,101.4223
3096.918625,309.6918625,1478109664,0.529159546,0.484436035,0.102249146,0.400294683,0.713868586,-0.433832936,0.886354835,1.870897707,-0.929208546,0.475551009,0.641646445,-0.427400023,-0.076038852,-0.086150192,-0.023063051,0.536010646,-0.098289392,0.633940443,0.5717206,0.801146507,0.176917419,34.88455582,14.55273151,16.75135422,-0.3255253,101.4223
3106.600625,310.6600625,1478109664,0.545349121,0.328704834,0.080322266,0.519544912,0.776185757,0.415493876,0.869506084,1.868332641,-0.930508447,0.594801188,0.703963637,0.421926796,-0.042016856,-0.317487776,-0.072895736,0.53944424,-0.103424968,0.633822399,0.57117641,0.801923811,0.175144881,33.71955872,15.88462448,17.88832664,-0.3255253,101.4223
3116.278625,311.6278625,1478109664,0.590362549,0.384552002,0.039993286,0.519544912,0.776185757,0.415493876,0.869506084,1.868332641,-0.930508447,0.594801188,0.703963637,0.421926796,-0.042016856,-0.317487776,-0.072895736,0.53944424,-0.103424968,0.633822399,0.57117641,0.801923811,0.175144881,33.71955872,15.88462448,17.88832664,-0.3255253,101.4223
3125.940625,312.5940625,1478109664,0.649108887,0.469680786,0.037078857,0.519544912,0.776185757,0.415493876,0.869506084,1.868332641,-0.930508447,0.594801188,0.703963637,0.421926796,-0.042016856,-0.317487776,-0.072895736,0.53944424,-0.103424968,0.633822399,0.57117641,0.801923811,0.175144881,33.71955872,15.88462448,17.88832664,-0.3255253,101.4223
3135.636625,313.5636625,1478109664,0.719955444,0.545501709,0.052947998,0.618795067,0.909753672,0.430690939,0.856340166,1.865943189,-0.927976749,0.694050789,0.837532103,0.437123805,0.075575009,-0.330727935,-0.137290731,0.54295504,-0.105981348,0.633705896,0.573533893,0.800408721,0.174369588,33.58458328,15.89794445,18.12879562,-0.3255253,101.4223
3145.315625,314.5315625,1478109664,0.723129272,0.733139038,0.096557617,0.323536522,0.471470593,-0.272911427,0.839470039,1.865169634,-0.931129556,0.398792148,0.399249166,-0.266478568,0.148704678,-0.256793022,-0.120244831,0.546391576,-0.112320598,0.633077933,0.571250737,0.802294731,0.173192829,33.58458328,15.89794445,18.12879562,-0.3255253,101.4223
3154.985625,315.4985625,1478109664,0.747161865,0.78944397,0.098968506,0.323536522,0.471470593,-0.272911427,0.839470039,1.865169634,-0.931129556,0.398792148,0.399249166,-0.266478568,0.148704678,-0.256793022,-0.120244831,0.546391576,-0.112320598,0.633077933,0.571250737,0.802294731,0.173192829,33.58458328,15.89794445,18.12879562,-0.3255253,101.4223
3164.675625,316.4675625,1478109664,0.751449585,0.747741699,0.11706543,0.250920907,-0.081239729,-0.709757731,0.836935951,1.862928962,-0.93772514,0.326228619,-0.153575599,-0.703379989,0.180604279,-0.016770357,-0.071416222,0.544558722,-0.115041137,0.633698015,0.566557586,0.806214333,0.17038472,33.259552,16.19489098,18.46211624,-0.3255253,101.4223
3174.353625,317.4353625,1478109664,0.718536377,0.756271362,0.108200073,0.163344985,-0.522323121,-1.668593994,0.839948404,1.855392222,-0.964173848,0.2386536,-0.594658852,-1.662215471,0.204285756,-0.073836513,-0.043000158,0.534058228,-0.122129282,0.636436677,0.547163844,0.821578205,0.160065591,33.259552,16.19489098,18.46211624,-0.3255253,101.4223
3184.027625,318.4027625,1478109664,0.650878906,0.700561523,0.077072144,0.163344985,-0.522323121,-1.668593994,0.839948404,1.855392222,-0.964173848,0.2386536,-0.594658852,-1.662215471,0.204285756,-0.073836513,-0.043000158,0.534058228,-0.122129282,0.636436677,0.547163844,0.821578205,0.160065591,33.259552,16.19489098,18.46211624,-0.3255253,101.4223
3193.712625,319.3712625,1478109664,0.706893921,0.598327637,0.056854248,0.140245791,-0.415515981,-2.124440087,0.846200533,1.855244733,-0.983974336,0.215554118,-0.487851441,-2.118061543,0.119411685,-0.13214308,-0.078316525,0.526776202,-0.127623546,0.637195337,0.531467199,0.832704604,0.155388668,33.259552,16.19489098,18.46211624,-0.3255253,101.4223
3203.394625,320.3394625,1478109664,0.784637451,0.547912598,0.097106934,-0.040762344,0.175779817,-3.215923078,0.872080529,1.874861542,-1.037832406,0.034545824,0.103444517,-3.209544659,0.222112924,-0.262977272,-0.095268138,0.510466843,-0.145275935,0.634691824,0.484780997,0.861304939,0.152122378,32.52092743,18.40246582,17.69352341,-0.3255253,101.4223
3213.071625,321.3071625,1478109664,0.677810669,0.554595947,0.12512207,-0.040762344,0.175779817,-3.215923078,0.872080529,1.874861542,-1.037832406,0.034545824,0.103444517,-3.209544659,0.222112924,-0.262977272,-0.095268138,0.510466843,-0.145275935,0.634691824,0.484780997,0.861304939,0.152122378,32.52092743,18.40246582,17.69352341,-0.3255253,101.4223
3222.750625,322.2750625,1478109664,0.563201904,0.609466553,0.110580444,-0.005745237,0.633998521,-3.544408818,0.892455782,1.896770046,-1.070247827,0.069564365,0.561664164,-3.538028479,0.223176047,-0.322723508,-0.028559154,0.502157193,-0.157321439,0.631196762,0.454634607,0.877319455,0.153681219,32.52092743,18.40246582,17.69352341,-0.3255253,101.4223
3232.428625,323.2428625,1478109664,0.1118927,0.853851318,0.10319519,0.157447149,1.105564189,-3.50020567,0.913727509,1.924970305,-1.104128961,0.2327566,1.033230066,-3.493825436,0.141213983,-0.283606082,-0.04545629,0.494834213,-0.171579616,0.626531778,0.421987921,0.893072665,0.156036735,30.47882271,21.46282768,17.88045502,-0.3255253,101.4223
3242.108625,324.2108625,1478109664,0.01802063,0.888153076,0.11151123,0.320384671,1.33835829,-3.531000334,0.935406041,1.956740411,-1.138110598,0.395694047,1.266024113,-3.524620056,-0.27657479,-0.053991552,-0.054647528,0.488156611,-0.1869408,0.621395026,0.388467491,0.907842875,0.157842711,30.47882271,21.46282768,17.88045502,-0.3255253,101.4223
3251.786625,325.1786625,1478109664,-0.063903809,0.94102478,0.21697998,0.509865653,1.24396361,-3.273642567,0.955682316,1.987346623,-1.171142641,0.585174799,1.171629667,-3.26726222,-0.33780688,-0.033042725,-0.045921534,0.481515429,-0.202176952,0.616772323,0.35582751,0.921195805,0.157432765,28.47470093,23.65167999,18.41498375,-0.3255253,101.4223
3261.436625,326.1436625,1478109664,-0.17250061,1.149856567,0.164978027,0.534978197,0.985683324,-2.680534754,0.972013844,2.012079692,-1.199365312,0.610287189,0.913349509,-2.67415452,-0.392084062,0.009215866,0.061964273,0.475488006,-0.215163069,0.613349004,0.328180254,0.931808889,0.155015707,28.47470093,23.65167999,18.41498375,-0.3255253,101.4223
3271.124625,327.1124625,1478109664,-0.401367188,1.493652344,0.333953857,0.511982067,0.73599546,-1.920784963,0.983042679,2.02971049,-1.2210229,0.587291002,0.663661778,-1.91440475,-0.479729325,0.210406184,0.013177198,0.470779601,-0.225221681,0.611044008,0.307228714,0.939450383,0.151800826,28.47470093,23.65167999,18.41498375,-0.3255253,101.4223
3280.798625,328.0798625,1478109664,0.018997192,1.719833374,0.228988647,0.484703574,-0.281404514,-0.733182629,0.981576209,2.028041408,-1.23307055,0.560012281,-0.35373801,-0.726802409,-0.698671281,0.550141692,0.187673613,0.466882362,-0.229724753,0.611626041,0.297304124,0.943510652,0.146280244,28.47470093,23.65167999,18.41498375,-0.3255253,101.4223
3290.470625,329.0470625,1478109664,0.415710449,1.568725586,-0.146636963,0.321550336,-0.203610117,0.372592215,0.967735715,2.010699369,-1.233528659,0.396858901,-0.275943488,0.378972381,-0.280407786,0.776171029,0.08807008,0.465542564,-0.228976388,0.614093257,0.299404979,0.943662345,0.140918568,26.20506287,26.1727562,18.37399483,-0.3255253,101.4223
3300.175625,330.0175625,1478109664,0.508926392,0.968231201,-0.119949341,0.176952673,0.55985798,0.39312066,0.953888606,2.001043217,-1.230651547,0.252261162,0.487524688,0.399500817,0.11249239,0.626019239,-0.285789758,0.467599118,-0.229279975,0.61469854,0.303218067,0.942706347,0.139152795,26.20506287,26.1727562,18.37399483,-0.3255253,101.4223
3309.860625,330.9860625,1478109664,0.360122681,0.94543457,0.00163269,-0.115312212,0.604009729,0.076566414,0.949335847,2.007333234,-1.227953078,-0.040003888,0.53167659,0.082946569,0.204285398,0.026428532,-0.262081653,0.471730027,-0.231519271,0.612643998,0.304641008,0.94180268,0.142132312,26.33641815,26.09389877,18.29818726,-0.3255253,101.4223
3319.529625,331.9529625,1478109664,0.312942505,1.006195068,0.062637329,0.009807091,0.887331719,0.154115801,0.94641319,2.011800379,-1.226990169,0.08511541,0.814998567,0.160495952,0.055299684,0.003956035,-0.142246112,0.474263189,-0.233367249,0.61122854,0.304822981,0.94147855,0.143878803,26.33641815,26.09389877,18.29818726,-0.3255253,101.4223
