time(ms),accelerometerAccelerationX,accelerometerAccelerationY,accelerometerAccelerationZ,gyroRotationX,gyroRotationY,gyroRotationZ
0,0.13568115234375,-0.955047607421875,-0.1514434814453125,0.01687085918954297,0.06289614178051038,0.01252244976166159
30.1030000009632,0.141265869140625,-0.9594268798828125,-0.147125244140625,0.02244245850609774,-0.01269928365804285,0.0002532666196665356
60.1840000017546,0.139404296875,-0.959747314453125,-0.14996337890625,0.0152183677331488,-0.04903838304828306,-0.01875291513190196
90.3130000006058,0.1627960205078125,-0.9632415771484375,-0.1526947021484375,0.01555259444995374,0.003814711945429501,-0.0563700655292712
120.415000001231,0.184661865234375,-0.9613189697265625,-0.164947509765625,0.01973721947079525,-0.008852880095641403,-0.04666976757476659
150.518000002194,0.166534423828125,-0.95965576171875,-0.156646728515625,0.03339896954679274,-0.1244356693017344,-0.01174826883277555
180.621999999858,0.1269989013671875,-0.9633636474609375,-0.1503753662109375,0.03339896954679274,-0.1244356693017344,-0.01174826883277555
210.697000002256,0.148590087890625,-0.967010498046875,-0.1268463134765625,0.06110995963739423,-0.07119854647883241,-0.01293177762120677
240.832000003138,0.1288299560546875,-0.9779205322265625,-0.13818359375,0.06110995963739423,-0.07119854647883241,-0.01293177762120677
270.921000003,0.1754913330078125,-0.9632568359375,-0.168487548828125,0.06008730577880381,0.1059597229232007,0.06053152104862902
301.028000001679,0.1751861572265625,-0.966278076171875,-0.163238525390625,0.06900436805671611,-0.0005470132879022755,0.03889280455951719
331.152000002476,0.1629486083984375,-0.9619140625,-0.1566925048828125,0.1309284560393476,-0.01523754249299737,0.0426606448697613
361.247000000731,0.13970947265625,-0.955413818359375,-0.1575927734375,0.1849842345813399,0.009668872653641683,0.07808228526446921
391.36100000178,0.1190643310546875,-0.963714599609375,-0.1251983642578125,0.1849842345813399,0.009668872653641683,0.07808228526446921
421.473000002152,0.11566162109375,-0.959014892578125,-0.13238525390625,0.2234117848984203,0.07884101985903279,0.07155514374879401
451.580000000831,0.1037139892578125,-0.950347900390625,-0.1155853271484375,0.2523768575463401,0.239230961773491,0.03988003837560957
481.685000002471,0.133697509765625,-0.964599609375,-0.101898193359375,0.2763197410105885,0.3653601352124067,-0.01718963957202545
511.791000000812,0.11334228515625,-0.9590911865234375,-0.0621795654296875,0.3024277744410713,0.5137812985558308,-0.07970894405828961
541.875000002619,0.083221435546875,-0.9923858642578125,-0.10040283203125,0.311022594227084,0.8016602239617991,-0.1197967089989254
572.005000001809,0.2545623779296875,-0.9702911376953125,-0.154937744140625,0.3112023576006643,1.160591488302755,-0.1806366241017855
602.115000001504,0.1392974853515625,-0.9606170654296875,-0.15716552734375,0.4432693150060208,0.5559133059492113,-0.1715717563833739
632.226000001538,0.144775390625,-0.96795654296875,-0.0344696044921875,0.4432693150060208,0.5559133059492113,-0.1715717563833739
662.33800000191,0.209930419921875,-1.002792358398438,0.11395263671875,0.620330645344375,0.3135067908919099,-0.2198242405939745
692.444000000251,0.2076263427734375,-0.9794464111328125,0.1214752197265625,0.5746049683760415,0.1972156008358558,-0.1246300800613102
722.557000000961,0.2119140625,-0.990203857421875,0.048797607421875,0.3386662063421065,0.1686742371173676,-0.03039279330831129
752.662000002601,0.256866455078125,-0.9769439697265625,0.0110015869140625,0.2466694370141913,0.34701921110114,-0.03861290632894987
782.766000000265,0.236541748046875,-0.9611968994140625,0.01226806640625,0.2613053714169397,0.2546701055610073,0.1016464672217083
812.870000001567,0.162078857421875,-0.9772491455078125,0.0555419921875,0.2670908225690279,0.00234091859817965,0.19063226662118
842.975000003207,0.1299591064453125,-0.958831787109375,0.055938720703125,0.2511009370680831,0.09788528481418943,0.1760607807168114
873.081000001548,0.098480224609375,-0.9423828125,0.0452423095703125,0.2511009370680831,0.09788528481418943,0.1760607807168114
903.190000000905,0.1242828369140625,-0.9480743408203125,0.06048583984375,0.2169672013765375,0.1266583435475145,0.06907547445782124
933.297999999922,0.1403045654296875,-0.964019775390625,0.0583648681640625,0.2459738193374626,0.2415495098185139,-0.0603325829152001
963.401000000886,0.0914764404296875,-0.9463043212890625,0.046905517578125,0.2431157148555895,-0.05597485242350345,-0.1554471149312711
993.505000002187,0.1266937255859375,-0.954071044921875,0.088714599609375,0.3165960577564018,-0.01587244009687226,-0.3394443820126276
1023.60700000281,0.21124267578125,-0.968994140625,0.14276123046875,0.3391314605845434,-0.01461968912009899,-0.4490148187417577
1053.70900000344,0.0844879150390625,-0.9404449462890625,0.14813232421875,0.3216190458884003,0.1484240928206231,-0.5290100526172309
1083.81000000008,0.27972412109375,-0.9405364990234375,0.0752716064453125,0.3216190458884003,0.1484240928206231,-0.5290100526172309
1113.91600000206,0.2535247802734375,-0.9626617431640625,0.1219024658203125,0.2729071663897609,0.199170627392083,-0.673535011285869
1144.01900000303,0.2633056640625,-0.9602813720703125,0.17486572265625,0.3039479067912885,-0.02176867875030769,-0.6527359894884591
1174.12200000035,0.38568115234375,-0.9794769287109375,0.097930908203125,0.2543177693487898,0.05286055184476478,-0.6152322897535273
1204.22600000165,0.3964385986328125,-1.146957397460938,0.11236572265625,0.2122733799552729,0.1737363737173903,-0.3947084367411889
1234.33100000329,0.422576904296875,-1.55804443359375,0.1177520751953125,0.1579070768301773,0.1811482173471898,-0.007366836207377189
1264.40800000273,0.2259521484375,-1.62420654296875,0.1809234619140625,0.1080465759533868,-0.6410915839381967,0.3606916138214978
1294.53800000192,-0.17132568359375,-1.439468383789062,0.0836639404296875,0.1080465759533868,-0.6410915839381967,0.3606916138214978
1324.61900000271,0.833526611328125,-1.530746459960938,0.1685333251953125,0.1564561866683021,-1.28987757289785,-0.785520136175374
1354.75300000326,0.877777099609375,-1.560546875,0.0763092041015625,0.6114186430725338,-1.814245735735073,-2.808322810564514
1384.84000000244,0.491668701171875,-1.7823486328125,0.2531890869140625,0.6114186430725338,-1.814245735735073,-2.808322810564514
1414.9630000029,0.3838653564453125,-1.904449462890625,0.2572784423828125,1.064558964658933,-3.734210710946912,-2.500887494325767
1445.06600000022,0.0670318603515625,-1.869171142578125,0.10589599609375,1.105231826091059,-4.312518804818709,-2.239128053942969
1475.16600000017,0.130218505859375,-1.477508544921875,-0.0220947265625,0.6669093328098609,-2.83434402494346,-2.479762235294822
1505.27500000317,0.2714385986328125,-1.087860107421875,0.039947509765625,0.6669093328098609,-2.83434402494346,-2.479762235294822
1535.38000000117,0.2234954833984375,-0.8081207275390625,0.034393310546875,0.7094575922816208,-1.202985550747399,-1.868496723984968
1565.48300000213,0.0521697998046875,-0.5417022705078125,0.011688232421875,0.8371519054931762,-1.083100158484174,-0.9445465396117115
1595.58800000013,-0.0917205810546875,-0.2517852783203125,-0.000244140625,1.052833332695423,-0.8662133845725568,0.2277194479616234
1625.69400000211,-0.1571044921875,0.000213623046875,-0.043670654296875,1.136587085817325,-0.3445555207767077,1.51425315579477
1655.80300000147,-0.1368865966796875,0.0611114501953125,-0.1477813720703125,0.9620477690312762,0.3677159675126908,2.662287040609474
1685.9140000015,0.4347686767578125,0.16717529296875,-0.066314697265625,0.5414267748836163,1.761500765081618,3.36946683121075
1716.02100000018,1.014862060546875,0.2536468505859375,0.0104827880859375,0.5414267748836163,1.761500765081618,3.36946683121075
1746.12900000284,1.454330444335938,0.1779632568359375,-0.018157958984375,0.192883703006733,1.098171253409041,3.385828760315979
1776.23700000186,1.571044921875,-0.0336151123046875,-0.0409698486328125,0.0534629588833407,0.2855867426557372,2.544958282992725
1806.33500000113,1.417160034179688,-0.1898193359375,-0.0128021240234375,-0.05599535876389705,0.1461473564047144,1.317629841985348
1866.43054167143,0.6352081298828125,-0.592529296875,0.1465911865234375,-0.3170429361873171,1.291902640590747,-0.1735400987450514
1896.53654167341,1.065109252929688,-4.125961303710938,1.0546875,-0.3045617654225518,0.4491407862613185,-0.734973072369561
1926.63954167074,-0.537994384765625,-1.095809936523438,-0.425811767578125,-0.3045617654225518,0.4491407862613185,-0.734973072369561
1956.74354167204,1.217819213867188,-0.244720458984375,0.2556610107421875,-0.0789523399925981,-1.706835388966106,0.401063538050445
1986.84954167038,0.2474822998046875,-1.435256958007812,0.060150146484375,-0.1992007211124009,2.138205700221653,-0.6094084890817419
2016.95554167236,0.6064605712890625,-0.8746490478515625,0.1100921630859375,0.05475219516704807,0.1694673264899932,0.1517184230890511
2047.06054167036,0.3705902099609375,-0.9563140869140625,0.075469970703125,0.1352473043791291,0.07545374526856101,0.3255261695236555
2077.16754167268,0.4021453857421875,-0.9362335205078125,0.1753387451171875,0.19836342326568,-0.1722010613489596,0.4458238191236248
2107.27254167068,0.33685302734375,-0.9332733154296875,0.16015625,0.1876868104555523,-0.280806901131263,0.558288046693235
2137.36854167291,0.278472900390625,-0.9148406982421875,0.22418212890625,0.1876868104555523,-0.280806901131263,0.558288046693235
2167.48654167168,0.216217041015625,-0.9215850830078125,0.222137451171875,0.128489799429162,-0.296538726322579,0.6026749525815857
2197.56354167112,0.2751007080078125,-0.9011688232421875,0.199798583984375,0.1288802188449676,-0.270288746405995,0.563093720880283
2227.68154166988,0.1555023193359375,-0.964691162109375,0.142852783203125,0.09334672568447638,-0.268877271028253,0.4903617262457829
2257.79754167161,0.1388702392578125,-0.95892333984375,0.1590118408203125,0.02884762724384731,-0.3726132544412376,0.4425670394265669
2287.89954167223,0.1770477294921875,-0.92779541015625,0.2017822265625,-0.01973056156807005,-0.0723208025621918,0.2549321606122711
2317.98954167243,0.190277099609375,-0.9835662841796875,0.0687255859375,-0.0926348627250982,-0.1069219230250463,0.0862488687471972
2348.09954167213,0.077880859375,-0.979522705078125,0.1225128173828125,-0.1374790333726155,-0.1204324055511273,-0.1121803345974078
2378.21754167089,0.17041015625,-0.995758056640625,0.1919708251953125,-0.1374790333726155,-0.1204324055511273,-0.1121803345974078
2408.32554166991,0.272430419921875,-1.00738525390625,0.1645660400390625,-0.1690540038888129,0.09732495572083676,-0.3812040794856151
2438.44254167198,0.20697021484375,-1.094757080078125,0.1694183349609375,-0.22790560292182,-0.05125839413297311,-0.4521136729861739
2468.54054167125,0.29937744140625,-1.088699340820312,0.0725860595703125,-0.199941612527661,-0.2151551865708476,-0.3507239344935492
2498.65154167128,0.306884765625,-1.228897094726562,0.0263824462890625,-0.210965767860044,-0.244442501710667,-0.4145508510750423
2528.76454167199,0.455810546875,-1.485931396484375,-0.158599853515625,0.01548095541663061,-0.469290529384967,-0.2899340868191825
2558.89154167016,0.2623138427734375,-1.661972045898438,0.0190582275390625,0.1683615820053923,-1.204793038179236,0.08447999715116657
2589.01354167028,-0.1076507568359375,-1.173370361328125,0.12677001953125,0.1683615820053923,-1.204793038179236,0.08447999715116657
2619.12554167066,-0.112945556640625,-1.355484008789062,0.401824951171875,-0.1686718402723866,-0.9551057070177666,-1.083119599560131
2649.22054167255,0.5210113525390625,-1.597396850585938,0.2827301025390625,-0.1686718402723866,-0.9551057070177666,-1.083119599560131
2679.34454167334,0.4344940185546875,-1.657562255859375,0.024261474609375,-0.2861555938645781,0.09060153923282271,-2.50436558270941
2709.46454167279,0.4630584716796875,-1.7445068359375,0.150634765625,-0.1583603468477088,-0.5145056783723323,-2.793645863480978
2739.55354167265,0.3968658447265625,-1.55987548828125,0.1648406982421875,-0.2415684182622535,-0.453391723993303,-3.208051572276612
2769.67654167311,0.488983154296875,-1.354873657226562,0.129638671875,-0.4097758032405303,0.01613502778035407,-3.216551583527818
2799.76654167331,0.3205718994140625,-1.090179443359375,0.1796875,-0.4097758032405303,0.01613502778035407,-3.216551583527818
2829.90254167089,0.372314453125,-0.642486572265625,0.1156158447265625,-0.576977578591193,0.2804532333385005,-2.597300051057143
2860.00954167321,0.0696563720703125,-0.39306640625,0.121368408203125,-0.5177968128474523,0.2158641200530267,-1.834669784451
2890.09854167307,-0.0007476806640625,-0.1178436279296875,0.09564208984375,-0.3538475561361032,0.1057802258657293,-0.578724079634067
2920.2295416726,-0.1882171630859375,0.0444183349609375,0.1171417236328125,-0.1628973080807677,0.6278418248828345,0.4721166759337591
2950.34054167263,-0.0939178466796875,0.1779327392578125,0.0999603271484375,0.07554269484896965,0.9052963388339057,1.506742508888529
2980.43054167283,0.0581512451171875,0.280364990234375,0.052734375,0.2530591594176184,0.7090328180877532,2.504437488058842
3010.55154167261,0.262664794921875,0.2151031494140625,0.0362548828125,0.2530591594176184,0.7090328180877532,2.504437488058842
3040.67254167239,0.8184967041015625,0.125335693359375,0.01409912109375,0.3545407769678508,0.3433983772830683,3.243707570847246
3070.76354167293,1.280166625976562,-0.097564697265625,-0.0686492919921875,0.436015663144972,0.6208616796657368,3.081727455445902
3100.89354167212,1.49078369140625,-0.179656982421875,-0.1332550048828125,0.4186364065033329,0.417733062261578,2.338141187478807
3131.00454167216,1.219406127929688,-0.0873565673828125,-0.174896240234375,0.2851353368509688,0.7193219409592743,1.206952595507181
3161.11754167287,1.865676879882812,-1.692626953125,0.41162109375,0.3582028897828188,0.7529720465968615,0.2665515324482868
3191.20754167307,-0.9070587158203125,-3.15582275390625,0.110107421875,0.1302858352683114,0.09236535082278219,-0.308536799665604
3221.31954167344,0.3556060791015625,-0.44769287109375,-0.146942138671875,0.1302858352683114,0.09236535082278219,-0.308536799665604
3251.45254167001,0.8721923828125,-0.531158447265625,0.2198028564453125,0.04218074324132902,-0.1018613843216777,-0.2355573973658356
3281.55354167029,0.2193603515625,-1.459823608398438,0.23046875,-0.3088763527045891,1.074872854928592,-0.3106233863796811
3311.67054167236,0.6257476806640625,-0.871429443359375,0.15740966796875,-0.2657379367352676,0.3186829107865879,0.04176156168575055
3341.78254167273,0.3784027099609375,-0.9609527587890625,0.099273681640625,-0.1957932064976445,0.3167473253063183,0.2916214656858567
3371.91054167124,0.4755096435546875,-0.9453582763671875,0.1268768310546875,-0.09307268640830724,0.1549640175095307,0.4926603005826303
3402.00054167144,0.372955322265625,-0.88946533203125,0.1478729248046875,0.01744530303667306,-0.145158524691968,0.6807740157609223
3432.13154167097,0.2977752685546875,-0.9338226318359375,0.1929168701171875,0.05442329477242328,-0.1914834129055693,0.7239664939003725
3462.242541671,0.307891845703125,-0.9153289794921875,0.168212890625,0.04160336991699985,-0.1968265130005953,0.7249659782574792
3492.35354167104,0.21746826171875,-0.952392578125,0.1947021484375,0.04160336991699985,-0.1968265130005953,0.7249659782574792
3522.46254167039,0.1544952392578125,-0.9289093017578125,0.1804046630859375,0.03871224223760982,-0.3734321764764369,0.7175243072234708
3552.57354167043,0.1363525390625,-0.9282989501953125,0.238525390625,-0.01301247140223617,-0.3015984660776206,0.5526013988175887
3582.68454167046,0.152496337890625,-0.90533447265625,0.12042236328125,-0.145359593354269,-0.05831417312502905,0.3156650166393101
3612.79654167083,0.1100921630859375,-0.968505859375,0.0888824462890625,-0.1943268700014469,0.00134809214379811,0.09437284165248391
3642.90654167053,0.1248321533203125,-0.9583587646484375,0.1589813232421875,-0.1551570966885615,-0.09005106383550333,-0.1604506619873119
3673.0185416709,0.2422637939453125,-0.9999847412109375,0.168548583984375,-0.1551570966885615,-0.09005106383550333,-0.1604506619873119
3703.12954167093,0.219329833984375,-1.06512451171875,0.228424072265625,-0.2024471144812075,-0.06614013830433589,-0.3346283214973284
3733.24354167198,0.5072174072265625,-1.0836181640625,0.084686279296875,-0.2967919929422456,0.01675554431434254,-0.3113730662265384
3763.35654167269,0.3995513916015625,-1.264266967773438,0.00592041015625,-0.3090081791785481,-0.1596855358061322,-0.04720852506328962
3793.4705416701,0.310638427734375,-1.683212280273438,-0.2652435302734375,0.02674026787326762,-1.090143420619107,0.2296925840132631
3823.58454167115,0.02801513671875,-1.647506713867188,0.0901641845703125,0.3635334730207214,-1.840828344471808,0.387217497227014
3853.69954167254,-0.552947998046875,-1.191162109375,0.4079132080078125,0.3635334730207214,-1.840828344471808,0.387217497227014
3883.81754167131,-0.089752197265625,-1.47454833984375,0.3974609375,-0.4189844816578062,-0.4491386557324464,-1.40677942579186
3913.927541671,0.5114288330078125,-1.660888671875,0.2475738525390625,-0.4189844816578062,-0.4491386557324464,-1.40677942579186
3944.03554167002,0.43603515625,-1.769805908203125,0.1286773681640625,-0.6690276111409099,1.886850164953358,-2.875473085870317
3974.15054167141,0.6706085205078125,-1.728317260742188,0.22955322265625,-0.469826357396291,1.702111207508415,-3.401218102991111
4004.26254167178,0.584869384765625,-1.61639404296875,0.2447509765625,-0.4507983377237838,0.9555003874913164,-3.788474216053931
4034.35554167299,0.472686767578125,-1.304733276367188,0.2079010009765625,-0.5655928312472134,0.09360931336795821,-3.435586729490801
4064.46554167269,0.239044189453125,-0.9109344482421875,0.1263275146484375,-0.6905904275389544,-0.1642246275680632,-2.704072304428927
4094.59454167154,0.0155487060546875,-0.475250244140625,0.092987060546875,-0.6762186787163418,-0.03520698961084753,-1.671320005301028
4124.68754167276,-0.1224212646484375,-0.14947509765625,0.0870208740234375,-0.6762186787163418,-0.03520698961084753,-1.671320005301028
4154.8075416722,-0.16436767578125,0.017974853515625,0.0892791748046875,-0.3419288449935626,0.8034240355517587,-0.5808620653571827
4184.92754167164,-0.1165008544921875,0.1022796630859375,0.08819580078125,0.03452921511342236,0.9658909768003696,0.6441294517936501
4215.01854167218,-0.059661865234375,0.1156463623046875,0.094146728515625,0.203507851543386,0.5705106245161536,1.864608242477344
4245.13454167027,0.1086273193359375,0.15521240234375,0.081268310546875,0.2944473459185398,0.4155005343197646,2.863505372563719
4275.2455416703,0.509429931640625,0.23291015625,0.082061767578125,0.2401628018389097,0.8966546474127075,3.185026946756222
4305.35654167033,1.106369018554688,0.05548095703125,0.10028076171875,0.2936236301933783,0.9271409176752806,2.877347152329406
4335.46254167231,1.387832641601562,0.00048828125,-0.05078125,0.2936236301933783,0.9271409176752806,2.877347152329406
4365.58754167345,1.085662841796875,-0.05267333984375,-0.258941650390625,0.2861926118037302,0.5463602808029882,2.124294411951515
4395.69854166984,2.811203002929688,0.4254913330078125,0.473968505859375,0.01173521934343416,0.3465438368465609,1.350994989386297
4425.8065416725,-0.3621673583984375,-4.042144775390625,-0.1197967529296875,0.03826030380062338,1.288689536735566,-1.035879915512088
4455.92154167025,0.245208740234375,-0.372161865234375,0.393218994140625,0.08697617804089784,-4.016050918581127,1.543988148313832
4486.03054167324,1.069473266601562,-0.47216796875,0.2347412109375,-0.1576026775175812,2.324916195821582,-0.9256146600545562
4516.12654167184,0.173736572265625,-1.42999267578125,0.1943817138671875,-0.003427754639040988,-0.5552243461752079,-0.01040603564337562
4546.25654167103,0.527435302734375,-0.8776397705078125,0.2188873291015625,-0.003427754639040988,-0.5552243461752079,-0.01040603564337562
4576.37054167208,0.3906402587890625,-0.9457550048828125,0.173370361328125,0.09787969217590026,0.1643782919629608,-0.08443658762539828
4606.48354167279,0.4738311767578125,-0.8850250244140625,0.237640380859375,0.0729799349319864,-0.1811151941496728,0.1881443415308279
4636.59654166986,0.4306640625,-0.9413299560546875,0.195343017578125,0.0385905357757932,0.06733589763378148,0.2768845974777943
4666.70854167023,0.378021240234375,-0.9141082763671875,0.2468719482421875,-0.0115786254713375,-0.2009618695412703,0.5061707831087113
4696.81854166993,0.37493896484375,-0.9232635498046875,0.189483642578125,-0.07459514213311946,-0.03561658378650172,0.5856200689607182
4726.92954166996,0.3323211669921875,-0.8968505859375,0.1920928955078125,0.003663977027731016,-0.1442147004016439,0.6710726525419817
4757.03854167296,0.2982025146484375,-0.9651947021484375,0.1875152587890625,0.003663977027731016,-0.1442147004016439,0.6710726525419817
4787.14654167197,0.2940826416015625,-0.85760498046875,0.148895263671875,-0.04980004712004572,-0.2547918120228239,0.6905270443050106
4817.25654167167,0.1510162353515625,-1.002532958984375,0.0794677734375,-0.0735410629736661,-0.2895037199870257,0.6181122321563389
4847.36654167136,0.169525146484375,-0.9147491455078125,0.2969207763671875,-0.03335955476265956,-0.6891512552858756,0.505857595364518
4877.47554167072,0.09149169921875,-0.984039306640625,0.181396484375,-0.1531373553178454,-0.1673024428398678,0.2576885323405031
4907.58554167041,0.159027099609375,-1.0291748046875,0.1892852783203125,-0.2615535780305351,-0.1994467971971242,0.0141360590661406
4937.69854167112,0.1352081298828125,-1.0594482421875,0.1685028076171875,-0.3012245582605735,-0.0800176044286298,-0.1850841031222179
4967.80954167116,0.169708251953125,-1.008895874023438,0.0630340576171875,-0.3012245582605735,-0.0800176044286298,-0.1850841031222179
4997.91854167051,0.4153289794921875,-1.043121337890625,-0.0050201416015625,-0.2317179180222684,-0.2048263825990843,-0.3766045339669393
5028.02254167182,0.2813720703125,-1.379165649414062,-0.05615234375,-0.1161415204027916,-0.3141217147876092,-0.3846145235775706
5058.12854167016,0.25042724609375,-1.689651489257812,0.0674285888671875,-0.001706287310413768,-0.6997873880474341,-0.2524024238928048
5088.24454167188,-0.05352783203125,-1.19378662109375,0.2608795166015625,0.02064242792531318,-0.7043437903564507,-0.04551129250058212
5118.33354167175,-0.06744384765625,-1.51910400390625,0.3749542236328125,-0.001986984489308119,-1.676482276758037,-0.8024429270061735
5148.4425416711,0.9334716796875,-1.798599243164062,0.18487548828125,0.0751613301808703,-0.4615415295611635,-2.267986067515067
5178.56554167156,0.8405609130859375,-2.04290771484375,0.03564453125,0.0751613301808703,-0.4615415295611635,-2.267986067515067
5208.68654167134,0.6470947265625,-1.701736450195312,0.0626068115234375,0.1388012928538398,-0.4225363396036449,-3.325688723947592
5238.78854167197,0.6191558837890625,-1.473541259765625,0.013702392578125,0.1303939596085687,-0.6047460929613403,-3.614406278780826
5268.89654167098,0.421722412109375,-1.168609619140625,0.0136871337890625,-0.2005341658702036,-0.4619223615970448,-3.348314407936687
5299.01754167076,0.3402557373046875,-0.7817535400390625,0.0190887451171875,-0.5647486091816583,-0.6250154120179333,-2.530816631288296
5329.14954167063,0.1488037109375,-0.5388641357421875,0.0071868896484375,-0.5514575711293997,-0.4798403757272069,-1.598322227189737
5359.24254167185,0.0320281982421875,-0.3594970703125,-0.050933837890625,-0.4759194036542833,-0.5977832582913281,-0.3632551726868081
5389.37754167273,-0.1903076171875,-0.2049102783203125,-0.028228759765625,-0.3490714430371551,-0.02403636041851016,0.7826527106296856
5419.48654167209,-0.1779632568359375,-0.0023040771484375,-0.02264404296875,-0.2639134050724543,0.5269018942983241,1.636457895051345
5449.56954166992,-0.1259765625,0.0361480712890625,0.0239715576171875,-0.176886893286954,0.4417113657683244,2.593337267355105
5479.69554167139,0.0704498291015625,0.03131103515625,0.0709381103515625,-0.176886893286954,0.4417113657683244,2.593337267355105
5509.81354167016,0.222412109375,0.0810394287109375,0.0738983154296875,-0.005135906162217811,0.283597095005339,3.327592884126998
5539.90854167205,0.7749786376953125,-0.091094970703125,0.1934051513671875,0.2297357272229224,0.4275007381916616,3.418007469451298
5570.03054167217,1.206008911132812,-0.27471923828125,0.1305694580078125,0.2733844048571031,0.3470029658184905,2.943676108755028
5600.11854167169,1.5758056640625,-0.263885498046875,0.1113128662109375,0.2339320701525603,0.9785511119903882,1.567174694028498
5630.23954167147,3.174636840820312,-1.078262329101562,0.3449859619140625,0.2921612884388158,1.325286696435435,-0.8146671027257462
5660.34954167117,-0.5548553466796875,-1.076400756835938,-0.1425018310546875,-0.2367329166709966,-1.212848035212289,0.01533634576943931
5690.46654167323,0.4546356201171875,-1.76593017578125,0.602996826171875,-0.2367329166709966,-1.212848035212289,0.01533634576943931
5720.56354167216,0.617828369140625,-0.96600341796875,-0.4265899658203125,-0.06850928641007038,2.296330889945108,-1.063248955718723
5750.6745416722,0.64044189453125,-0.6717681884765625,0.2513427734375,-0.1671051026030929,0.1187255856084955,-0.3664070238369169
5780.78354167155,0.5042572021484375,-0.9426727294921875,0.0266876220703125,0.01637098385293509,0.4100466467233913,-0.1824907168526987
5810.91054167337,0.43768310546875,-0.8951263427734375,0.0597076416015625,0.1448930075312871,0.2426714995857643,0.1029503508914111
5841.02054167306,0.5653533935546875,-0.921417236328125,0.04449462890625,0.1448930075312871,0.2426714995857643,0.1029503508914111
5871.12854167208,0.4792022705078125,-0.941650390625,0.0921630859375,0.2350466030687584,0.1023210459258254,0.5765027369688319
5901.23554167076,0.3708648681640625,-0.899383544921875,0.1214752197265625,0.2350466030687584,0.1023210459258254,0.5765027369688319
5931.34354167341,0.3698272705078125,-0.943328857421875,0.1302642822265625,0.2861625180834123,0.01099912161813626,0.7010571832551838
5961.45054167209,0.3959197998046875,-0.9763031005859375,0.130279541015625,0.2184164936417586,-0.01856223279785229,0.7475951243559915
5991.55754167077,0.2476959228515625,-0.903594970703125,0.142425537109375,0.02198785690802121,-0.02021898531199058,0.7396911285567453
6021.66254167241,0.250762939453125,-0.9946441650390625,0.0906524658203125,-0.0007400924669330203,-0.0293882489451334,0.6692553114141117
6051.76754167042,0.2370452880859375,-0.9080810546875,0.1136627197265625,-0.01505458332610893,-0.08092520972812881,0.6161960877520269
6081.87354167239,0.2429656982421875,-0.9276580810546875,0.086669921875,-0.01505458332610893,-0.08092520972812881,0.6161960877520269
6111.97554167302,0.1022186279296875,-0.9606475830078125,0.0955810546875,-0.0367723956995961,-0.2330327206524405,0.3698036194912039
6142.08054167102,0.1954498291015625,-0.93865966796875,0.0985870361328125,-0.0367723956995961,-0.2330327206524405,0.3698036194912039
6172.18154167131,0.1187896728515625,-0.971221923828125,0.0916290283203125,-0.04772251515367491,-0.1144972847457767,0.1814656661491272
6202.28854166999,0.198822021484375,-0.9483184814453125,0.090728759765625,-0.06516142660373178,-0.06815481966898083,0.009509881936563951
6232.37954167053,0.1500091552734375,-1.0162353515625,0.09710693359375,-0.01386601453160656,-0.2452387868766007,-0.07102224521466916
6262.50254167098,0.227996826171875,-0.965423583984375,0.1220550537109375,-0.06305113775595299,-0.1728711126792235,-0.1741350489325751
6292.60554167195,0.16754150390625,-1.039443969726562,0.0746917724609375,-0.1253696398960252,-0.257514361605212,-0.2284246530182764
6322.70954167325,0.222900390625,-1.0313720703125,0.09503173828125,-0.1253696398960252,-0.257514361605212,-0.2284246530182764
6352.81754167227,0.1746063232421875,-1.1610107421875,0.01483154296875,-0.2013735942457966,-0.2350548588681377,-0.3143866993160721
6382.92354167061,0.266021728515625,-1.148361206054688,0.095367431640625,-0.2993864444762008,-0.2780052556644996,-0.3319241477264619
6413.02854167225,0.3187713623046875,-1.41741943359375,0.1043853759765625,-0.3754963926373573,-0.4084399616377465,-0.3892305806950049
6443.13154167321,0.2024993896484375,-1.493972778320312,-0.0738067626953125,-0.362952104954757,-0.8225061173943944,-0.3130316829534397
6473.23954167223,-0.1319122314453125,-1.505111694335938,0.02020263671875,-0.362952104954757,-0.8225061173943944,-0.3130316829534397
6503.32854167209,-0.513214111328125,-1.273834228515625,0.2717437744140625,-0.5544648126323173,-0.7026928967967105,-0.7936334564363003
6533.43854167179,0.2430419921875,-1.326416015625,0.1729583740234375,-0.5544648126323173,-0.7026928967967105,-0.7936334564363003
6563.56554166996,0.7904052734375,-1.735488891601562,0.1149749755859375,-0.6444176058235966,1.588334840469722,-1.848492123140729
6593.67254167228,1.000717163085938,-1.753204345703125,0.177642822265625,-0.7200164933715669,2.385583005453587,-2.863004698278784
6623.78154167163,0.7655487060546875,-1.624755859375,0.1141510009765625,-0.4932376739069595,1.04779010453914,-3.428206044845756
6653.88954167065,0.5811309814453125,-1.337310791015625,0.06500244140625,-0.5737737957998278,-0.2991369062820604,-3.222243824041753
6683.98054167119,0.399017333984375,-1.056869506835938,0.0324554443359375,-0.6340810786846721,-0.3839034595665194,-2.668168099244696
6714.07054167139,0.2689208984375,-0.7205810546875,-0.01513671875,-0.5919581260389978,0.08877034966728423,-1.874935448552453
6744.20054167058,0.180908203125,-0.5127105712890625,-0.062042236328125,-0.5919581260389978,0.08877034966728423,-1.874935448552453
6774.3025416712,0.0910186767578125,-0.3639068603515625,-0.13446044921875,-0.3889256487501909,0.2154060563455331,-0.8066134372732375
6804.40354167149,-0.1428070068359375,-0.133270263671875,-0.0215301513671875,-0.1211746285469324,0.3285310141815919,0.4029285497618275
6864.46691667152,0.011749267578125,0.1894073486328125,-0.074859619140625,0.2415692172105805,0.7648992798548904,2.075704505230801
6894.59691667071,0.2112579345703125,0.1891632080078125,-0.0214080810546875,0.2779613135065133,0.8826264463707152,2.650571794974216
6924.6919166726,0.6025238037109375,0.12701416015625,0.0562744140625,0.3310599519527312,0.411111112211096,2.83611582601669
6954.81191667204,0.8471221923828125,0.0207061767578125,0.02349853515625,0.3310599519527312,0.411111112211096,2.83611582601669
6984.90891667097,1.089004516601562,-0.1436004638671875,-0.021087646484375,0.3614649958020568,-0.2833347736379662,2.576470935539415
7015.02091667135,1.2327880859375,-0.174713134765625,0.009979248046875,0.4125966234671422,0.1565299562304973,1.6397530242681
7045.12291667197,2.262313842773438,-0.16571044921875,0.030426025390625,0.3212294254209217,0.497789016209905,0.6578002566173539
7075.24591667243,1.071533203125,-1.925643920898438,0.3200531005859375,-0.1850228504171461,0.6904612642260856,-0.6577805492252873
7105.35391667145,-0.505889892578125,-2.224075317382812,0.567474365234375,0.03669596297631083,-0.731948254003449,-0.04521435003903828
7135.46091667013,0.7772064208984375,-0.55145263671875,-0.6368560791015625,0.128423753034128,0.8270723733994443,-0.3248635750444438
7165.57091667346,0.68585205078125,-0.5569000244140625,0.284332275390625,0.128423753034128,0.8270723733994443,-0.3248635750444438
7195.6769166718,0.48883056640625,-1.218994140625,0.128204345703125,0.06269960049206252,1.001362684623571,-0.1932861066474439
7225.78391667048,0.4796905517578125,-0.975128173828125,0.1001129150390625,0.2987259805258611,0.1047325382928922,0.215807128405699
7255.8909166728,0.504608154296875,-0.8846435546875,0.1490325927734375,0.2483626748352636,0.2532434501650518,0.3125062412703671
7285.99991667215,0.5020751953125,-0.92486572265625,0.144256591796875,0.1895936337960491,0.1761894113974622,0.5234837270392074
7316.10591667049,0.3871307373046875,-0.9365081787109375,0.1341552734375,0.1891986870063903,-0.03512043687541996,0.6856784932244123
7346.2099166718,0.3759918212890625,-0.9471435546875,0.1669769287109375,0.1398319361957005,-0.006380401339611839,0.7042937229279571
7376.32191667217,0.377532958984375,-0.8577423095703125,0.1504669189453125,0.1398319361957005,-0.006380401339611839,0.7042937229279571
7406.43091667152,0.2911224365234375,-0.9227142333984375,0.196380615234375,0.1022211773849474,-0.06685226757982309,0.7331464101778756
7436.5379166702,0.3353424072265625,-0.92218017578125,0.1572418212890625,0.07401910038933532,-0.1970374353589295,0.6900599258498107
7466.64591667286,0.1985015869140625,-0.9545440673828125,0.1227874755859375,0.09951940045906205,-0.3156322597579022,0.6174855903518434
7496.75391667188,0.13958740234375,-0.905303955078125,0.2006378173828125,0.05692826409375181,-0.4227161029772253,0.4196587940458143
7526.86291667123,0.305328369140625,-0.918243408203125,0.107940673828125,-0.01467082181302851,-0.1260495449223224,0.1881864194760512
7556.97091667025,0.104339599609375,-0.9410247802734375,0.191009521484375,-0.05218943525006482,-0.303022458312486,0.02386352126376402
7587.07591667189,0.287994384765625,-1.043899536132812,0.092010498046875,-0.05218943525006482,-0.303022458312486,0.02386352126376402
7617.18491667125,0.2230987548828125,-1.047897338867188,0.1891326904296875,-0.06799556263579411,-0.1870087696420182,-0.2092435015830897
7647.29191666993,0.3449249267578125,-1.09368896484375,0.0803375244140625,-0.1219306999804059,-0.1926733132806167,-0.3577179281483153
7677.3749166714,0.3065185546875,-1.140228271484375,0.0308074951171875,-0.1133017917324401,-0.3340096691761029,-0.3482442652025765
7707.51391667,0.323944091796875,-1.434173583984375,-0.07501220703125,0.0132857117300783,-0.6137286690020686,-0.2666745704906485
7737.62291667299,0.1250457763671875,-1.677841186523438,0.10748291015625,-0.06930557157600407,-0.7063081379764931,-0.1229054169393749
7767.72891667133,0.0218963623046875,-1.399246215820312,0.184417724609375,0.03583549562810623,-1.159393864760546,0.08743104595508337
7797.82791667094,-0.0228118896484375,-1.313156127929688,0.4163665771484375,-0.1953175659269564,-0.7928962934465664,-1.008695965001213
7827.94591667334,0.7842864990234375,-1.8076171875,0.1523284912109375,-0.1953175659269564,-0.7928962934465664,-1.008695965001213
7858.04191667194,0.772003173828125,-1.795639038085938,0.1323699951171875,-0.2131833820997529,1.471573069849051,-2.706337589252148
7888.14591667324,0.7494049072265625,-1.634475708007812,0.163543701171875,-0.0365841102105275,0.8513489509482796,-3.162414578572578
7918.24791667023,0.576019287109375,-1.542236328125,0.1064300537109375,-0.04519064790533658,-0.4750663931571308,-3.192544251565189
7948.35191667153,0.4266815185546875,-1.200881958007812,0.052215576171875,-0.2900422111594397,-1.173895309528245,-2.882169338115212
7978.45591667283,0.292022705078125,-0.8211212158203125,-0.002105712890625,-0.3846483457234146,-0.9911601144874774,-2.25012584398056
8008.55591667278,0.241485595703125,-0.5111236572265625,-0.0288238525390625,-0.3659324485306648,-0.6705354929501127,-1.446535360860671
8038.6729166712,0.00140380859375,-0.3427886962890625,-0.004425048828125,-0.3659324485306648,-0.6705354929501127,-1.446535360860671
8068.80291667039,-0.046356201171875,-0.0982208251953125,0.046478271484375,-0.1541160670184495,-0.315661820846002,-0.4285809163297978
8098.91491667076,-0.0573272705078125,0.002716064453125,0.085723876953125,0.1089344738608192,0.1851299094929673,0.4748594655404317
8128.99591667156,-0.0863494873046875,0.006011962890625,0.1336212158203125,0.3343428306284719,0.32164328065432,1.447406214537127
8159.12591667075,0.05035400390625,0.113494873046875,0.0853729248046875,0.572572177515984,0.1853789150548897,2.353571276518617
8189.21591667095,0.285125732421875,0.162353515625,0.075439453125,0.758063211652766,0.2114169073487034,2.979175779769676
8219.33691667073,0.7196502685546875,0.1050872802734375,0.0588226318359375,0.7636979278871556,0.2590038676028932,2.945894255626956
8249.42691667093,1.139373779296875,-0.0490875244140625,-0.0527496337890625,0.7636979278871556,0.2590038676028932,2.945894255626956
8279.54791667071,1.449676513671875,-0.075958251953125,-0.14385986328125,0.7132203725857937,0.07447077251021277,2.397970699264091
8309.65091667167,1.535446166992188,0.054931640625,-0.1862030029296875,0.5974173399575512,-0.4468486035110873,1.410566707178061
8339.75991667103,1.6968994140625,-2.192306518554688,0.546844482421875,0.6670787098551899,-0.7850711272155866,0.1368598484191721
8369.84991667123,-1.14129638671875,-2.031204223632812,0.238800048828125,0.5342634041835211,-0.1162626942323902,-0.2082157877184281
8399.97091667101,1.00823974609375,-1.195526123046875,-0.764007568359375,0.2991424989203495,1.153597760964097,-0.7474843368546442
8430.09191667079,0.4371185302734375,-0.1760101318359375,0.50732421875,-0.3082584993316907,0.4444123437458828,-0.2906962835231632
8460.18191667099,0.6824951171875,-0.8964080810546875,0.4152679443359375,-0.1299806370073884,0.5191030933621361,-0.1928296408366043
8490.30291667077,0.5036773681640625,-1.153762817382812,-0.0439453125,-0.229050762190554,0.1939742674731204,0.121665715451943
8520.39391667131,0.532806396484375,-0.8468017578125,0.2044219970703125,-0.229050762190554,0.1939742674731204,0.121665715451943
8550.51391667075,0.514862060546875,-0.9329376220703125,0.105926513671875,-0.2209020218871296,0.4118759720761667,0.2311693068377121
8580.60391667095,0.51104736328125,-0.884521484375,0.135406494140625,-0.105736816339961,0.1622458988781344,0.4776009235665593
8610.72591667107,0.409332275390625,-0.9252166748046875,0.1725311279296875,-0.04204598729017101,-0.04783383528724022,0.6392191153757619
8640.81491667093,0.3814239501953125,-0.905059814453125,0.145477294921875,-0.03160346633986131,-0.02318334992135778,0.6583233014554454
8670.94391667342,0.35467529296875,-0.8942718505859375,0.1517181396484375,-0.01358584998493023,-0.09632706926038406,0.6802283340535651
8701.04991667176,0.317779541015625,-0.91546630859375,0.1605072021484375,-0.002434395552441432,-0.1901576913149279,0.6478735899701925
8731.1559166701,0.2672882080078125,-0.927276611328125,0.1391754150390625,-0.002434395552441432,-0.1901576913149279,0.6478735899701925
8761.23791667123,0.2055816650390625,-0.9039306640625,0.1669921875,-0.01067208543627453,-0.3644328225208411,0.5412928178807853
8791.33391667347,0.2595062255859375,-1.01715087890625,0.09521484375,-0.04153519299309381,-0.2643115476554212,0.3198879911798488
8821.44991667155,0.093292236328125,-1.035003662109375,0.1809539794921875,-0.1242063711318786,-0.3848661923005831,0.1761707692698317
8851.57591667303,0.3437042236328125,-1.039108276367188,0.0672149658203125,-0.1242063711318786,-0.3848661923005831,0.1761707692698317
8881.68091667103,0.227569580078125,-1.056259155273438,0.1275787353515625,-0.1863520341172046,-0.3215498037000582,-0.1113017577537906
8911.78491667233,0.373199462890625,-1.04730224609375,0.0111846923828125,-0.1449763644734065,-0.3528747033898972,-0.1811024109764404
8941.87091667118,0.2635650634765625,-1.140838623046875,0.066802978515625,-0.08150018620747691,-0.562354693677786,-0.1984784718247714
8971.99891667333,0.2675323486328125,-1.540435791015625,-0.0018768310546875,-0.08150018620747691,-0.562354693677786,-0.1984784718247714
9002.08191667116,0.09613037109375,-1.6488037109375,0.1702117919921875,-0.2108757530151993,-0.7484963380688744,-0.1620932997476728
9032.21091667001,-0.1422271728515625,-1.198501586914062,0.154754638671875,-0.1104562041076905,-1.433462169385581,-0.08032386795398891
9062.30891667292,-0.30743408203125,-1.37823486328125,0.38275146484375,-0.3395873937631649,-1.547909653018974,-0.7089100463615005
9092.42891667236,0.725341796875,-1.645721435546875,0.2809906005859375,-0.537251737242699,2.069588822103543,-2.438776452434612
9122.53991667239,0.8370208740234375,-1.741073608398438,0.0406951904296875,-0.4431675822523797,1.892160774483085,-3.321228461753927
9152.6449166704,0.8407440185546875,-1.552841186523438,0.141754150390625,-0.4431675822523797,1.892160774483085,-3.321228461753927
9182.74791667136,0.7285919189453125,-1.46826171875,0.102813720703125,-0.3347002268467605,0.9908914015334884,-3.166662054195145
9212.85091667232,0.5871124267578125,-1.237762451171875,0.0962066650390625,-0.234157906212999,-0.2457447874837158,-2.929089442832447
9242.93991667219,0.4161376953125,-0.927734375,0.0574798583984375,-0.2827217139550299,-0.659588835605451,-2.433593940953318
9273.05991667163,0.2816619873046875,-0.5553741455078125,0.0272674560546875,-0.2827217139550299,-0.659588835605451,-2.433593940953318
9303.15491666988,0.046478271484375,-0.3125152587890625,0.0163421630859375,-0.07172558605855908,-0.04486654120067393,-0.8739112517034309
9333.25091667211,-0.049072265625,-0.097320556640625,0.026397705078125,0.1868111630891343,0.2107026475443441,0.08216677542832375
9363.3809166713,-0.045745849609375,0.111602783203125,0.0061492919921875,0.1868111630891343,0.2107026475443441,0.08216677542832375
9393.46691667015,0.010589599609375,0.1795196533203125,0.029510498046875,0.4242953575036422,0.3255264358397645,1.126325127188923
9423.57991667086,-0.0335845947265625,0.12884521484375,0.0595245361328125,0.6104047776455407,0.1536811728124395,2.116476169939369
9453.69691667292,0.2653350830078125,0.1584320068359375,0.04327392578125,0.7062114652289232,0.3024733144957116,2.823720409039026
9483.79991667025,0.74285888671875,0.1900177001953125,0.0594024658203125,0.7807922262921563,0.4906365644702791,2.916878050286106
9513.90591667223,1.213119506835938,0.034576416015625,0.0405426025390625,0.8271831609007916,0.1300528086729295,2.519962918265678
9544.01091667023,1.339035034179688,0.030914306640625,-0.0616302490234375,0.7736957009354221,0.08857221048218233,1.538565419702213
9574.1229166706,1.119766235351562,0.2104339599609375,-0.1080322265625,0.7736957009354221,0.08857221048218233,1.538565419702213
9604.18191667122,2.505889892578125,-2.345687866210938,0.34930419921875,0.7182585407360057,-0.01298291031413629,0.7461058846744192
9634.31691667211,-1.00390625,-2.561264038085938,0.488983154296875,0.2798209988957157,0.3164807428812014,-0.1383136680582463
9664.40791667264,0.66741943359375,-0.5937042236328125,-0.4053955078125,0.2721218001842965,-0.3883314975109942,-0.2298542378914309
9694.51991667302,0.517425537109375,-0.4078826904296875,0.4669189453125,-0.003304982912788335,0.4613449882727156,-0.146739909747257
9724.61791667229,0.6458282470703125,-1.381393432617188,0.143463134765625,-0.003304982912788335,0.4613449882727156,-0.146739909747257
9754.73991667241,0.4815673828125,-0.9007720947265625,0.2344970703125,0.09052004650346629,-0.1100471425642543,0.5351595578903329
9784.83691667134,0.4453125,-0.9235382080078125,0.23699951171875,0.09052004650346629,-0.1100471425642543,0.5351595578903329
9814.94391667002,0.4436798095703125,-0.9310150146484375,0.2134857177734375,0.05073561561099056,-0.1005950512233451,0.658379760470555
9845.06891667115,0.4169921875,-0.830596923828125,0.255523681640625,-0.01376827651960065,-0.148452854960396,0.8030748951328492
9875.16391667305,0.2783203125,-0.9100341796875,0.2516326904296875,-0.06372864593726915,-0.2212287917528823,0.8894409429680099
9905.28491667283,0.2864532470703125,-0.9216766357421875,0.217132568359375,-0.09112431775480526,-0.1334230390324248,0.8439325799446269
9935.38891667049,0.3183441162109375,-0.8954010009765625,0.163238525390625,-0.05307573526084319,-0.1667839253756294,0.7858383839256384
9965.47791667035,0.146148681640625,-0.920867919921875,0.1679229736328125,-0.04480235901840302,-0.4051450987371005,0.6414314032932907
9995.58791667005,0.14678955078125,-0.9095001220703125,0.2039947509765625,-0.04480235901840302,-0.4051450987371005,0.6414314032932907
10025.6949166724,0.165924072265625,-0.9259033203125,0.187957763671875,-0.05187678013808951,-0.2202042736815288,0.3823913166995724
10055.7889166703,0.1743316650390625,-0.991943359375,0.1697235107421875,-0.07413042052290064,-0.2093489627622568,0.1658728579667133
10085.9149166718,0.199554443359375,-1.051620483398438,0.1840667724609375,-0.06438804462317277,-0.1558788133439729,-0.05172950732980813
10116.0199166734,0.1293182373046875,-1.1168212890625,0.1650238037109375,-0.09767915614581729,-0.224445624033589,-0.2252206039108021
10146.1279166724,0.317230224609375,-1.139480590820312,0.094970703125,-0.09542985028913636,-0.281681216917136,-0.3281901295620618
10176.223916671,0.3021392822265625,-1.183181762695312,0.0909423828125,-0.01085397933872694,-0.5493270422573364,-0.3141422211280028
10206.3329166704,0.2830047607421875,-1.29669189453125,-0.0003204345703125,-0.01085397933872694,-0.5493270422573364,-0.3141422211280028
10236.4369166717,0.03851318359375,-1.59912109375,-0.022979736328125,0.2542839472029458,-1.128872973403802,-0.2679795194247873
10266.5439166703,-0.050140380859375,-1.526336669921875,0.1549530029296875,0.1242026427063525,-1.345264665668773,-0.1621590798265978
10296.6629166731,-0.145721435546875,-1.076431274414062,0.174713134765625,0.1139955451964058,-1.743832555461705,-0.2566989016794297
10326.7689166714,0.6027374267578125,-1.760711669921875,0.25079345703125,-0.1808339643385604,-1.623228642336377,-1.360305400557214
10356.8749166734,0.8697509765625,-1.755233764648438,-0.1059417724609375,-0.09186920391170042,0.4802419804195909,-3.140280247804602
10386.9779166707,0.62969970703125,-1.786422729492188,-0.0396881103515625,-0.3120710807482482,-1.193595777375998,-3.314773225587684
10417.0769166703,0.4224853515625,-1.527008056640625,0.087646484375,-0.3120710807482482,-1.193595777375998,-3.314773225587684
10447.18691667,0.396759033203125,-1.287872314453125,0.1535797119140625,-0.796413530298234,-0.692625881560102,-3.028669829680471
10477.2829166723,0.27642822265625,-0.9379119873046875,0.1761474609375,-1.068875948785952,0.4733981890503052,-2.763194214312577
10507.3909166713,0.2118377685546875,-0.60833740234375,0.1608428955078125,-1.100744665970385,0.4459601729714369,-1.980193428528418
10537.4889166706,0.148773193359375,-0.36749267578125,0.133941650390625,-1.122661416477301,0.4635301119471256,-1.035454608686002
10567.5959166729,-0.133758544921875,-0.2478179931640625,0.167694091796875,-1.033912372098738,0.2611690175691277,0.2726903850770285
10597.7159166723,-0.0423431396484375,-0.142181396484375,0.205169677734375,-0.9293470803223023,0.4455042397928153,1.154507496792469
10627.8239166713,-0.016387939453125,-0.0828857421875,0.1870269775390625,-0.833082062715317,0.3383255880386853,2.14888524250898
10657.93091667,0.0577545166015625,-0.1167144775390625,0.1602630615234375,-0.833082062715317,0.3383255880386853,2.14888524250898
10688.0099166701,0.219390869140625,-0.1328125,0.163482666015625,-0.728152450501759,0.2559385691882121,2.930093188247297
10718.1239166712,0.3691253662109375,-0.1824493408203125,0.167633056640625,-0.6653125014202493,0.6344270233102733,3.396994329502245
10748.2339166709,0.750732421875,-0.346710205078125,0.243194580078125,-0.6602114826683115,1.781118142303359,3.178914459422272
10778.3379166722,1.118927001953125,-0.4349365234375,0.306396484375,-0.8316594020609968,2.833274233133576,2.406044604740884
10808.4449166709,1.336837768554688,-0.35565185546875,0.38671875,-0.8916553614144108,2.936335105210225,1.416235245558295
10838.5499166725,1.188262939453125,-0.2955169677734375,0.4524078369140625,-0.6830017500127736,2.30854707618141,0.5619906395567722
10868.6459166711,2.7703857421875,-1.320297241210938,0.4008026123046875,-0.6830017500127736,2.30854707618141,0.5619906395567722
10898.7539166701,-0.5179290771484375,-1.925643920898438,-0.385101318359375,-0.4678012897033947,-1.512117300600527,0.2860309579255624
10928.8549166704,0.11419677734375,-1.078140258789062,-0.0109710693359375,-0.4678012897033947,-1.512117300600527,0.2860309579255624
10958.9559166707,1.06219482421875,-0.3758392333984375,-0.0101318359375,-0.177019785025349,2.115089728275874,-0.5835222969700627
10989.056916671,0.3589019775390625,-1.272384643554688,0.015289306640625,0.133564719202417,1.37901969985331,-0.07577199301882548
11019.170916672,0.470123291015625,-0.92901611328125,-0.012481689453125,0.4002773728966536,0.4805740766075237,0.3602055869225583
11049.2769166704,0.22998046875,-0.93890380859375,0.05908203125,0.3493281717662387,0.2441311781792367,0.459306604774369
11079.3669166706,0.415374755859375,-0.9837646484375,0.048614501953125,0.3493281717662387,0.2441311781792367,0.459306604774369
11109.4569166708,0.4133148193359375,-0.93719482421875,0.0204010009765625,0.3116676118431012,0.6587829630595931,0.3349660103235504
11139.5779166705,0.2711639404296875,-0.919403076171875,0.0143890380859375,0.2615578390882792,0.1694699896510833,0.5858770640059109
11169.6699166714,0.2246246337890625,-0.9395751953125,0.0229339599609375,0.3065812404771588,0.09424660781681415,0.4801551613680543
11199.7889166705,0.2487335205078125,-0.9362335205078125,0.0493011474609375,0.3371844235115864,0.1067373659615038,0.3141102631949219
11229.8799166711,0.1719207763671875,-0.9547576904296875,0.0986785888671875,0.3194688096242703,-0.06448258684187058,0.1946520419705456
11260.0029166715,0.2772064208984375,-0.94805908203125,0.1164703369140625,0.2224876680001628,0.1010336738548811,0.05542810545171017
11290.090916671,0.136260986328125,-0.969451904296875,0.1533050537109375,0.09091685750588809,0.05962737785854712,-0.01991112388997742
11320.1819166716,0.2757415771484375,-0.976043701171875,0.0991363525390625,-0.006746053357279718,0.1300714508005601,-0.08396733864132631
11350.301916671,0.2868499755859375,-0.934173583984375,0.09283447265625,-0.006746053357279718,0.1300714508005601,-0.08396733864132631
11380.3919166712,0.177581787109375,-0.9884490966796875,0.0906219482421875,-0.03172224332447884,0.08274068664323582,-0.1392662807801676
11410.512916671,0.2570037841796875,-0.906982421875,0.12164306640625,-0.08507175154538217,0.07852277210876832,-0.242998003135408
11440.6049166719,0.2245330810546875,-0.9538421630859375,0.1066436767578125,-0.1858518924644877,0.03415610624470226,-0.3010336096104148
11470.7129166709,0.2779541015625,-0.96807861328125,0.151275634765625,-0.3254497368003703,0.1559195597086512,-0.4445758618368136
11500.8159166719,0.2889862060546875,-0.924835205078125,0.116729736328125,-0.4722924445657044,0.09666608966715115,-0.4879595549425315
11530.9149166715,0.37646484375,-1.003890991210938,0.09625244140625,-0.4722924445657044,0.09666608966715115,-0.4879595549425315
11561.0189166728,0.20697021484375,-1.1131591796875,0.1248016357421875,-0.6098164853607422,-0.07600075855646328,-0.4900765016930355
11591.1389166722,0.3192138671875,-1.589950561523438,0.046966552734375,-0.8736249618862474,-0.1259856290561605,-0.7815994304185593
11621.2369166715,0.068389892578125,-2.221420288085938,-0.032470703125,-1.284673489811726,-0.6094883839144444,-1.232429992391533
11651.3389166721,-0.439788818359375,-2.266891479492188,0.313323974609375,-2.280108510480999,-0.2073515919446974,-1.775361186974935
11681.4489166718,-0.0751190185546875,-0.9515533447265625,0.3549041748046875,-3.139032290517791,2.462544099899133,-1.683641919032606
11711.5499166721,0.712371826171875,-0.7308807373046875,0.3242034912109375,-3.139032290517791,2.462544099899133,-1.683641919032606
11741.6559166704,0.0424652099609375,-0.4630279541015625,0.8085479736328125,-3.553733343878314,4.257249690084077,-1.477534289633085
11771.757916671,0.41357421875,-0.5630340576171875,0.607513427734375,-3.360185448495715,4.529300383867268,-0.4389608529944906
11801.8569166707,0.130889892578125,-0.552734375,0.5850677490234375,-3.212441260701389,3.397569305981593,0.3629888565778002
11861.9312916708,0.5271453857421875,-0.5925140380859375,0.8436431884765625,-2.729882330133429,4.545457249568561,1.631651155599861
11892.0322916711,0.5812530517578125,-0.6319580078125,0.7773895263671875,-2.153932199090789,4.190023248371098,2.046387362686773
11922.1342916717,0.61163330078125,-0.574981689453125,0.7977142333984375,-2.153932199090789,4.190023248371098,2.046387362686773
11952.2392916733,0.738250732421875,-0.563140869140625,0.7711334228515625,-1.763436883194105,4.209862200595534,2.379565859286662
11982.343291671,0.7935028076171875,-0.532135009765625,0.5740966796875,-1.136839819804774,3.814267463843567,2.558424557044711
12012.4482916726,0.9165496826171875,-0.62548828125,0.4314727783203125,-0.4501240253357757,3.371212266989188,2.515375090655798
12042.55129167,1.071884155273438,-0.57647705078125,0.3831024169921875,-0.2158987411471977,2.852304915967173,2.449051194236247
12072.6532916706,1.045028686523438,-0.42974853515625,0.3167266845703125,-0.04433630582763916,2.712007725529035,1.905767663440627
12102.7562916715,0.9808349609375,-0.2849273681640625,0.1599578857421875,0.235234355925609,2.527271164929073,1.355075484808516
12132.8572916718,0.8564605712890625,-0.30255126953125,-0.0637054443359375,0.235234355925609,2.527271164929073,1.355075484808516
12162.9602916728,0.794952392578125,-0.6194610595703125,-0.181793212890625,0.6143944592745884,2.025367298518887,1.117171842522321
12193.0632916701,0.7294158935546875,-1.04876708984375,-0.315948486328125,0.8434436235684883,1.251137633784904,1.166402772117416
12223.1672916714,0.540924072265625,-1.1697998046875,-0.2106170654296875,0.4919580250031764,0.5801563276683116,1.159350721550887
12253.2682916717,0.4832000732421875,-1.11749267578125,-0.0948638916015625,0.238796866515808,0.9060819713554791,0.9241579109382829
12283.3732916733,0.5930328369140625,-1.32574462890625,-0.0914764404296875,0.2524652744945307,0.5098446138324756,0.09785199530056343
12313.483291673,0.467742919921875,-1.406951904296875,0.1092681884765625,0.3173241659984295,-0.8741924815145432,-0.102879244490306
12343.588291671,-0.5223388671875,-1.484893798828125,0.01275634765625,0.02230503939384965,-0.04443564173629911,-0.9775955697912678
12373.6922916723,-1.195297241210938,-1.437973022460938,0.6532745361328125,0.1831107007544692,-0.1097169105890844,-0.8267842193694976
12403.799291671,0.263214111328125,-1.285140991210938,0.3526763916015625,0.1831107007544692,-0.1097169105890844,-0.8267842193694976
12433.8862916702,-0.122528076171875,-1.248779296875,-0.0704193115234375,0.001098553949657686,1.176667660223018,-1.440323271301952
12463.9892916712,0.7245635986328125,-0.926666259765625,0.0824737548828125,-0.254022158467791,1.475029320311756,-1.290746029729325
12494.0922916721,0.085357666015625,-1.2991943359375,0.14306640625,-0.2620736933914276,1.287201096002321,-0.6173606880967186
12524.1962916734,0.20452880859375,-1.13458251953125,-0.035888671875,-0.008115184473689455,0.534226386244369,-0.7023112658125021
12554.3192916703,0.492340087890625,-0.9885406494140625,0.018890380859375,-0.008115184473689455,0.534226386244369,-0.7023112658125021
12584.4212916709,0.2574310302734375,-0.9453125,0.3002166748046875,0.1610701132568644,-0.1763918116403083,-0.1585262617836207
12614.5312916706,0.2687225341796875,-0.9128875732421875,0.24969482421875,0.1610701132568644,-0.1763918116403083,-0.1585262617836207
12644.6352916719,0.2399749755859375,-0.9180145263671875,0.211883544921875,0.02683134798254833,-0.06058584953486663,-0.004740426740341044
12674.7412916702,0.141265869140625,-0.96026611328125,0.2201385498046875,0.02459349371855474,-0.07963331028333137,0.007080812706302678
12704.8472916722,0.272674560546875,-0.9490966796875,0.1350860595703125,0.06041940196673669,-0.1989815429546874,-0.03238110937816445
12734.9512916699,0.1637420654296875,-0.927276611328125,0.254119873046875,0.06594759175752317,-0.2947272441491072,-0.03813220575219056
12765.0532916705,0.184478759765625,-0.9483642578125,0.19866943359375,-0.007873369446710261,-0.2276805658097083,-0.1339447522899713
12795.1532916704,0.2740478515625,-0.9484100341796875,0.143768310546875,-0.02108930635622848,-0.1666299946646228,-0.2036804243820232
12825.25229167,0.2128448486328125,-0.9261932373046875,0.1749267578125,-0.02108930635622848,-0.1666299946646228,-0.2036804243820232
12855.3502916729,0.2711639404296875,-0.9309234619140625,0.1637420654296875,0.008998821323377745,-0.2878027589987921,-0.2058860543968268
12885.4562916713,0.24560546875,-0.948760986328125,0.183502197265625,0.00798868432191069,-0.297412509476234,-0.2100954468158061
12915.5582916719,0.2276763916015625,-0.9037933349609375,0.1809539794921875,0.009281915347253169,-0.3220217158452203,-0.2280435546662861
12945.6612916729,0.229644775390625,-0.911834716796875,0.2413787841796875,0.01735049450186624,-0.2109236899148207,-0.2968617677628057
12975.7642916702,0.2075958251953125,-0.9613494873046875,0.1690521240234375,-0.01471503028712382,-0.2012135382642828,-0.3951886046857302
13005.8742916699,0.2299652099609375,-0.9624481201171875,0.1796722412109375,-0.01937662745919852,0.021543641638196,-0.5851947621346325
13035.9812916722,0.2638702392578125,-0.8938446044921875,0.1533355712890625,-0.01937662745919852,0.021543641638196,-0.5851947621346325
13066.0822916725,0.4337158203125,-0.8996124267578125,0.1258544921875,0.009084042478260281,-0.05201632977920966,-0.7400642374254655
13096.1932916725,0.400634765625,-0.93243408203125,0.1006622314453125,0.04491367915196834,-0.2382953932825461,-0.7716498605860233
13126.2992916709,0.1125946044921875,-1.038055419921875,0.1058807373046875,0.0731948520319558,-0.5613650630167125,-0.8791483579870717
13156.4052916729,0.4853057861328125,-0.7436065673828125,0.1625823974609375,-0.06823125239226611,-0.1219938168982407,-1.18982873601408
13186.5132916719,0.6373291015625,-0.8321380615234375,0.2791900634765625,-0.05678551865932356,-0.1004762742387275,-1.164304733810652
13216.6232916716,0.3682403564453125,-0.8261260986328125,0.262969970703125,0.1150986265199166,-0.8074866877946745,-1.071189703141012
13246.7362916723,0.53717041015625,-0.9768218994140625,-0.01190185546875,0.1150986265199166,-0.8074866877946745,-1.071189703141012
13276.85129167,0.446563720703125,-0.809844970703125,0.071441650390625,0.0949334370619456,-0.8743544017088201,-1.17427267945471
13306.9642916707,0.6493377685546875,-1.264572143554688,0.2226715087890625,0.1480880018910551,-0.5992860800944598,-1.483483791508322
13337.0742916704,0.6007537841796875,-1.794845581054688,0.1770782470703125,0.3132316863513047,-0.59915984625879,-1.645212770818872
13367.1822916731,0.3777008056640625,-1.618698120117188,0.1331634521484375,0.3987630995008346,-1.681951610688733,-1.818900941320531
13397.2642916706,0.2249603271484375,-1.056594848632812,-0.0067901611328125,0.2853332097199616,-1.687607365895734,-1.698287707131388
13427.387291671,0.4858245849609375,-0.2840576171875,0.06890869140625,-0.05250555247145722,-0.9722282349303222,-1.256839727994872
13457.4982916711,0.857513427734375,-0.14593505859375,0.212890625,-0.05250555247145722,-0.9722282349303222,-1.256839727994872
13487.6092916711,0.4707183837890625,-0.3831024169921875,0.31634521484375,-0.2249231288170402,1.157042027201897,-1.176664730745819
13517.7302916709,0.0763092041015625,-0.2761993408203125,0.1526336669921875,-0.4941679160757242,0.323928539185717,-0.269009896450539
13547.8082916707,0.0062103271484375,-0.289306640625,0.192230224609375,-0.7987597752185939,-0.5497824428037399,0.7526237051262792
13577.9432916715,0.08331298828125,-0.3287353515625,0.25445556640625,-0.6453640932750108,-0.2673438228725854,1.650187023102922
13608.0512916706,0.110107421875,-0.4141387939453125,0.167083740234375,-0.3512272719395742,-0.5998567955160639,2.347060912917809
13638.1592916732,0.0821685791015625,-0.48828125,0.0268402099609375,0.02334420485119857,-0.9693861094149896,2.918005632691646
13668.2682916726,0.085968017578125,-0.5904998779296875,-0.0741424560546875,0.02334420485119857,-0.9693861094149896,2.918005632691646
13698.3742916709,0.2172393798828125,-0.63916015625,-0.095001220703125,0.3799353495423014,-0.686606871180414,3.292959539414954
13728.4852916709,0.4577178955078125,-0.8194427490234375,-0.1184234619140625,0.7967070106503608,-0.220175245225647,3.610764938622361
13758.5952916706,0.729888916015625,-1.248062133789062,-0.0999298095703125,0.983987689039676,-0.4511480107749112,3.902385871676
13788.7062916707,0.8523712158203125,-1.216171264648438,-0.1681365966796875,0.9005188941544126,-0.3311837889434199,3.405573702953935
13818.81529167,0.7869720458984375,-0.99188232421875,-0.2167510986328125,0.7657171366256538,0.2206551468540792,2.56366752228275
13848.9262916701,0.805511474609375,-1.199722290039062,-0.1255950927734375,0.7562301578744645,0.8724070983197542,1.676295056533404
13879.0372916701,0.57147216796875,-1.157974243164062,-0.0943450927734375,0.7562301578744645,0.8724070983197542,1.676295056533404
13909.1452916728,0.366119384765625,-1.136322021484375,-0.0548858642578125,0.4162395615222615,1.446323905870119,0.7442320845314394
13939.2532916718,0.36724853515625,-1.20806884765625,-0.0253143310546875,0.2243635986720146,1.6913640209294,-0.01629268691688677
13969.3612916708,0.2433929443359375,-1.170806884765625,-0.0531463623046875,0.1178781677496323,0.8175912536026532,-0.4356886269631102
13999.4722916708,0.352691650390625,-1.225494384765625,-0.218536376953125,-0.09151313927395684,-0.09949969306699546,-0.9142086074218558
14029.5562916726,-0.7562103271484375,-1.6524658203125,-0.144012451171875,0.03122423220063403,-0.3434058341341205,-2.368148088745166
14059.6732916711,-1.061660766601562,-0.9472198486328125,0.566680908203125,0.5944732153724687,-0.01760855481149491,-0.7549212141986905
14089.779291673,0.5733489990234375,-1.801071166992188,0.615875244140625,0.03596439262486607,2.326521283010573,-1.546324273222049
14119.884291671,0.07928466796875,-0.1870880126953125,0.0615692138671875,0.03596439262486607,2.326521283010573,-1.546324273222049
14149.9892916727,0.2353973388671875,-2.7677001953125,-0.407073974609375,-0.05262086734665765,1.960535837574216,0.08428878218489888
14180.0972916717,0.115997314453125,-0.6747894287109375,-0.092315673828125,0.09823389260088079,-0.2555289750125579,-0.0658277495084696
14210.20329167,0.1172332763671875,-1.005645751953125,0.47674560546875,0.2954929029625049,-0.6497093069095841,-0.5838860847749676
14240.3242916735,0.1068572998046875,-0.8543548583984375,0.297576904296875,-0.01761760955920118,0.06391133878804858,-0.3563828854938586
14270.4332916728,0.196502685546875,-1.033294677734375,0.0520477294921875,-0.2945860966113329,0.4573651603397012,-0.2725593575513966
14300.5532916723,0.1771087646484375,-1.032363891601562,0.014739990234375,-0.167880615112524,0.1839269596285785,-0.2027475190521684
14330.6452916731,0.143341064453125,-0.94647216796875,0.1207427978515625,-0.167880615112524,0.1839269596285785,-0.2027475190521684
14360.7662916729,-0.019744873046875,-0.9600982666015625,0.21820068359375,-0.08061015777117243,-0.24669393809622,-0.2206876374193782
14390.8862916724,0.096282958984375,-0.8832855224609375,0.1832122802734375,-0.1877041210026378,-0.04022331984012078,-0.4177780696840003
14421.0062916718,0.0784912109375,-0.9863739013671875,0.1167449951171875,-0.2863891530921781,0.2430810937614185,-0.7111705374947598
14451.0982916727,0.1277618408203125,-0.93133544921875,0.0430145263671875,-0.2708128565085226,0.2855515889293481,-0.9734061510804641
14481.2182916721,0.2384490966796875,-0.98455810546875,0.0933990478515625,-0.217049226738112,0.1870393959945541,-1.19397900625686
14511.3382916716,0.17779541015625,-0.97161865234375,0.1233367919921875,-0.1836286855864896,-0.01262498146362964,-1.297947483633008
14541.4602916717,0.3834686279296875,-0.8979949951171875,0.13116455078125,-0.1836286855864896,-0.01262498146362964,-1.297947483633008
14571.5502916719,0.4744873046875,-0.9562530517578125,0.0419921875,-0.2691651587420906,0.3305747240021187,-1.430735625061558
14601.6562916702,0.33245849609375,-1.059127807617188,0.0741729736328125,-0.3040232742501378,-0.03655002174857449,-1.322169732695606
14631.7912916711,0.44305419921875,-0.860870361328125,0.0737152099609375,-0.3657915673089995,-0.2225513175502157,-1.415241620155586
14661.883291672,0.5909576416015625,-0.97137451171875,0.0474853515625,-0.2894912031299023,-0.3204568423886897,-1.447066128865924
14692.0022916711,0.2601470947265625,-1.058364868164062,-0.1020355224609375,-0.2128544817051282,-0.9368388187848041,-1.545963947526562
14722.1232916709,0.548583984375,-0.757415771484375,-0.1349334716796875,-0.4210047556607404,-0.286051730582065,-1.735960783911649
14752.2332916706,0.5543212890625,-1.126129150390625,0.1554718017578125,-0.4210047556607404,-0.286051730582065,-1.735960783911649
14782.3382916722,0.698883056640625,-1.040451049804688,-0.1764984130859375,-0.4516151292301111,-0.3754431294155557,-1.85816126211048
14812.4252916714,0.6251983642578125,-1.232437133789062,0.023651123046875,-0.665268292946154,-0.5321405984786191,-1.834332628256996
14842.5462916712,0.5563812255859375,-1.333511352539062,0.1188201904296875,-0.9656656733721489,-0.2943357594688655,-1.538766488364514
14872.6542916702,0.5626068115234375,-1.03326416015625,0.18731689453125,-1.031447882825978,-0.4482648725787914,-1.361455886148128
14902.7582916715,0.73590087890625,-0.8898162841796875,0.3356170654296875,-1.037113491729013,0.07464041587165081,-0.8981191196961421
14932.8752916699,1.029693603515625,0.19390869140625,0.0157928466796875,-1.042208385210443,1.186064890445472,-0.7591452540036652
14962.9852916732,0.146331787109375,-0.3531646728515625,0.2451934814453125,-1.042208385210443,1.186064890445472,-0.7591452540036652
14993.0932916723,0.1001129150390625,-0.2653961181640625,-0.0114593505859375,-0.6321015510464162,-0.4594791776130061,-0.05849180596973733
15023.2052916726,-0.049072265625,-0.26336669921875,-0.00738525390625,-0.3246276189718628,-1.056261886282791,0.8212570948431472
15053.3182916733,0.0570831298828125,-0.3408660888671875,0.0807952880859375,0.1005708164574253,-0.2463740924493015,1.505612529638008
15083.4272916727,0.147705078125,-0.4249114990234375,0.096832275390625,0.3527444748125924,0.253279935471986,2.029689875284194
15113.5262916723,0.4370269775390625,-0.5985260009765625,0.0598907470703125,0.6568590954881198,0.5290262978998803,2.219965278319304
15143.639291673,0.5202484130859375,-0.688507080078125,-0.0817413330078125,0.793588182697769,0.1035751284831437,2.667960106363561
15173.747291672,0.5296630859375,-0.788970947265625,-0.0621185302734375,0.8113512008524885,-0.02801139466156244,2.820208498509538
15203.85229167,0.5242919921875,-0.8708038330078125,-0.0923309326171875,0.8113512008524885,-0.02801139466156244,2.820208498509538
15233.9542916707,0.6369781494140625,-1.0570068359375,-0.0975189208984375,0.8192056618554592,0.5007584408253433,2.72001158986916
15264.0492916726,0.8335113525390625,-1.1116943359375,-0.154693603515625,0.7550937870373277,1.104669632784944,2.350304110493308
15294.1582916719,0.7828521728515625,-1.08489990234375,-0.2286376953125,0.4849789450505148,1.171660384741451,1.935478953825987
15324.2612916729,0.567962646484375,-1.080154418945312,-0.108154296875,0.12828899708297,0.7211083894184994,1.590339135506116
15354.3632916699,0.47216796875,-0.9798126220703125,-0.0500030517578125,0.08951097476643526,0.6386305567748545,1.034410383222582
15384.4652916705,0.3193359375,-0.9420318603515625,-0.0281982421875,0.08951097476643526,0.6386305567748545,1.034410383222582
15414.5682916715,0.230194091796875,-1.146774291992188,-0.0457305908203125,0.2270019923639561,0.5659339821828525,0.5724768363489592
15444.6722916728,0.1838226318359375,-1.114913940429688,-0.06939697265625,0.2270019923639561,0.5659339821828525,0.5724768363489592
15474.7752916701,0.079132080078125,-0.95367431640625,-0.0638275146484375,0.2447820547496521,0.3257722456083789,0.3386603473877083
15504.8772916707,0.1472015380859375,-0.9293060302734375,-0.04144287109375,0.2770483818848342,0.2589665833476322,0.226394525319309
15534.9772916707,0.25079345703125,-0.8663330078125,-0.03875732421875,0.4413164189786657,-0.07081984497182313,0.2861955412809293
15565.0822916723,0.34405517578125,-1.026519775390625,-0.0091552734375,0.6751800458912109,-0.8427099226881715,0.483541104377981
15595.1882916706,0.425689697265625,-0.984710693359375,-0.0023193359375,0.8273882243047277,-1.62037692944112,0.5279365323818199
15625.2942916726,0.524200439453125,-1.107376098632812,-0.207977294921875,0.5515760817979083,-2.754202849840251,0.09500401083083269
15655.3962916732,1.124191284179688,-1.254379272460938,0.2797393798828125,0.5515760817979083,-2.754202849840251,0.09500401083083269
15685.50829167,-1.129043579101562,-1.09051513671875,0.07421875,0.1313087554430109,-2.337778731254447,-1.696482083912314
15715.6122916713,-0.194976806640625,-1.501846313476562,0.0289764404296875,0.3945582344557085,-0.8319614045286117,-0.5372320298506325
15745.7122916712,0.017974853515625,-0.9423065185546875,0.1126251220703125,-0.1545871802152845,0.6265954654926774,-0.7988449963734764
15775.8062916728,0.130584716796875,-1.0919189453125,0.340240478515625,0.01314190103121402,0.5660333180915125,-1.09441619627203
15805.9202916702,0.0473480224609375,-1.0482177734375,0.2137603759765625,0.1327263560912601,0.04285771879042716,-1.126443105225214
15836.0282916728,0.1443023681640625,-1.138076782226562,0.2051239013671875,0.002259692184932234,0.3411618545996197,-1.147430678827801
15866.1352916715,0.3355865478515625,-1.136764526367188,0.04681396484375,0.002259692184932234,0.3411618545996197,-1.147430678827801
15896.2432916705,0.127197265625,-1.08587646484375,0.0166168212890625,0.070311181203618,-0.1866183502262125,-0.9550266111333914
15926.36329167,0.237823486328125,-1.172119140625,0.1981658935546875,-0.05230102169973914,0.122877453747929,-0.9131641156423268
15956.4682916716,0.26416015625,-1.102691650390625,0.1180572509765625,0.03355156867725428,-0.269010162766648,-1.002739805223251
15986.57429167,0.2496490478515625,-0.885894775390625,-0.06341552734375,0.1507165418869633,-0.6570492451899514,-1.024976135060977
16016.6752916703,0.39202880859375,-0.8539886474609375,0.3692779541015625,0.001825064295031302,-0.2011389697537606,-1.139782346493202
16046.7762916705,0.4187774658203125,-0.813751220703125,0.2153472900390625,-0.02340519124016139,-0.728019825079473,-1.311411360840013
16076.8782916712,0.265533447265625,-0.7024078369140625,0.111175537109375,-0.02340519124016139,-0.728019825079473,-1.311411360840013
16106.9842916731,0.545440673828125,-0.6066741943359375,0.1199951171875,-0.2186545802432117,-0.6573070391834711,-1.438019104326816
16137.0922916722,0.3356170654296875,-0.9714813232421875,0.2039947509765625,-0.2318641255661137,-0.5894574177754134,-1.708094265213387
16167.1972916702,0.3218536376953125,-1.084014892578125,-0.1347503662109375,-0.1966725822895887,-0.4067997207223667,-2.123407845624627
16197.3072916699,0.4684600830078125,-0.986083984375,-0.1738128662109375,-0.1164943892472271,-0.5377321715033494,-2.412825012876226
16227.4182916699,0.5178985595703125,-0.9892578125,0.22821044921875,-0.0644868478996147,-0.4946259797832178,-2.487270219039974
16257.5282916732,0.8435211181640625,-0.92437744140625,0.33514404296875,-0.09317069073642215,-0.2825693811406774,-2.428089719612342
16287.6382916729,1.072647094726562,-0.8423614501953125,0.3289031982421875,-0.09317069073642215,-0.2825693811406774,-2.428089719612342
16317.7482916726,0.8033294677734375,-0.7166900634765625,0.2400360107421875,-0.2625634487158932,-0.6356395605545865,-2.125684049408318
16347.8592916726,0.7499237060546875,-0.414276123046875,0.134521484375,-0.2949133991093037,-0.8488101594811071,-1.6728683671588
16377.9562916716,0.756927490234375,-0.3313446044921875,-0.093658447265625,-0.615860795770786,0.02632481474321526,-0.8348903490954809
16408.0742916703,0.4043121337890625,-0.349761962890625,-0.0850677490234375,-0.8722385202227521,0.3696539498379415,-0.2754211904587957
16438.1812916727,0.01483154296875,-0.406768798828125,0.006195068359375,-0.6926061741680354,0.02171142078687099,0.6433326339954983
16468.2882916713,-0.0554351806640625,-0.347076416015625,-0.0191497802734375,-0.4209355134723983,0.1963253060834423,1.579775707042317
16498.3962916704,-0.000701904296875,-0.3067474365234375,0.0146484375,-0.4209355134723983,0.1963253060834423,1.579775707042317
16528.4962916703,0.13348388671875,-0.3383331298828125,0.033111572265625,-0.1050688955385692,0.1584799227806533,2.404955904487259
16558.6032916726,0.14825439453125,-0.4227447509765625,-0.024383544921875,0.195608915750211,-0.6579190336019713,3.347818793657823
16588.709291671,0.3585968017578125,-0.594451904296875,-0.0630035400390625,0.4738980643869131,-1.057324221241624,3.937381672612404
16618.8162916733,0.4241180419921875,-0.7345428466796875,-0.1144866943359375,0.6808219526605438,-0.8200815755379862,4.132471804582267
16648.9242916723,0.47412109375,-0.9378662109375,-0.16632080078125,0.950176994788357,-0.07695017548507653,4.02124141954569
16679.0292916703,0.5646820068359375,-1.2703857421875,-0.128570556640625,0.9473127650359768,1.220113671298244,3.730777363669582
16709.1342916719,0.765106201171875,-1.35089111328125,-0.08966064453125,0.9473127650359768,1.220113671298244,3.730777363669582
16739.2392916699,1.018630981445312,-1.4649658203125,-0.061614990234375,0.6517404998729875,2.120625108601604,3.296694090211572
16769.3302916705,0.9260101318359375,-1.284866333007812,0.0363006591796875,0.5247612454141185,1.262892560520404,2.894085652412772
16799.4512916703,0.6340789794921875,-1.10394287109375,0.17340087890625,0.2775083098050908,-0.5717734955050692,2.075815559048257
16859.5180000011,0.3302459716796875,-1.119186401367188,0.0626678466796875,0.3517037114585894,-1.684402517839933,-0.2211355811147296
16889.6200000017,0.108367919921875,-1.062026977539062,0.0725555419921875,0.06810688276935942,-1.234676901403233,-1.01880905292468
16919.7330000025,0.7319488525390625,-1.052490234375,0.50537109375,-0.09249637834841408,0.1290882117261028,-2.541460487217015
16949.8320000021,-1.023681640625,-1.042251586914062,-0.0802764892578125,-0.09249637834841408,0.1290882117261028,-2.541460487217015
16979.926,0.1288604736328125,-1.624862670898438,0.3976898193359375,0.2831432923555895,-0.9977024360213661,-0.9824004450299888
17010.0530000018,-0.350555419921875,-1.178085327148438,0.091064453125,0.05181952217465281,1.208055676830692,-1.890794839159984
17040.1560000028,0.43017578125,-1.125534057617188,-0.1204376220703125,-0.1445414702673966,1.347005307757249,-2.121182508217757
17070.2369999999,0.3597412109375,-1.098648071289062,0.1608734130859375,-0.1764227043089532,0.8814727649864929,-1.581552834437727
17100.3600000004,0.441162109375,-0.84979248046875,0.1586761474609375,-0.1719272883888994,0.7036678800717885,-0.9837770329974508
17130.4570000029,0.24334716796875,-1.145950317382812,0.232452392578125,-0.3304306469871455,0.7127212961975129,-0.7453444869187655
17160.5530000015,0.3824005126953125,-1.153076171875,0.0084228515625,-0.3304306469871455,0.7127212961975129,-0.7453444869187655
17190.6840000011,0.40948486328125,-0.8920440673828125,-0.0315704345703125,-0.4774022517492393,0.5005917269411043,-0.7579420378231674
17220.7850000013,0.423919677734375,-0.9687347412109375,0.0386505126953125,-0.3367159734758415,0.03355210130947229,-0.5738781917145589
17250.8790000029,0.340118408203125,-0.95123291015625,0.07183837890625,-0.2336383234843245,-0.1210771568510355,-0.4069744240898759
17281.001000003,0.251922607421875,-0.9411773681640625,0.1166534423828125,-0.1755364042981748,-0.3486043245819552,-0.4189522574086162
17311.0900000029,0.376373291015625,-0.9192047119140625,0.051483154296875,-0.1746620885123018,-0.2154398784913771,-0.5167302168308755
17341.2110000027,0.3623046875,-0.926971435546875,0.0767974853515625,-0.21879732567764,-0.3319262782553339,-0.569614470809342
17371.3029999999,0.3453216552734375,-0.93060302734375,0.0677947998046875,-0.21879732567764,-0.3319262782553339,-0.569614470809342
17401.4220000026,0.42242431640625,-0.8713531494140625,0.0976715087890625,-0.2999411809312643,-0.4995845194168363,-0.7503147444611804
17431.5130000032,0.343292236328125,-0.929779052734375,0.065093994140625,-0.4865795048656524,-0.318417659942016,-0.8967236232849406
17461.6330000026,0.5239105224609375,-0.9801025390625,-0.0305023193359375,-0.5231388476780422,-0.5091122445327039,-1.049233804166072
17491.7240000032,0.4609222412109375,-0.98553466796875,-0.0526275634765625,-0.5265700644265002,-0.964258192736042,-1.171068097715017
17521.8450000029,0.51617431640625,-1.008834838867188,0.02423095703125,-0.6727408566488073,-1.002795997922252,-1.279566079473172
17551.9540000023,0.57171630859375,-1.197708129882812,0.005401611328125,-0.8910548185885979,-0.9584138857238631,-1.244245639199888
17582.0560000029,0.6121063232421875,-1.285873413085938,-0.0392303466796875,-0.8910548185885979,-0.9584138857238631,-1.244245639199888
17612.1700000003,0.4522552490234375,-1.240463256835938,-0.0745849609375,-1.091924542756151,-0.8430902220918348,-1.250784498624359
17642.2670000029,0.4911651611328125,-1.116668701171875,0.05096435546875,-1.331431141702466,-0.7239012464536656,-1.041368690518741
17672.383000001,0.5833740234375,-1.087432861328125,0.16986083984375,-1.547822301335219,0.2374482417397919,-0.6015827902185441
17702.489000003,0.669830322265625,-0.13623046875,-0.122955322265625,-1.219390090430069,0.3158588947666679,-0.3640727631414624
17732.5930000006,0.220367431640625,-0.3015594482421875,0.10565185546875,-0.7214948140926699,0.07948497221061396,-0.05509574294766829
17762.6980000023,0.1753997802734375,-0.3731231689453125,0.1327972412109375,-0.03403173662179556,0.9773558852931608,0.2642407075704251
17792.7980000022,0.2959747314453125,-0.493316650390625,-0.09039306640625,-0.03403173662179556,0.9773558852931608,0.2642407075704251
17822.9019999999,0.13543701171875,-0.525115966796875,-0.1555938720703125,0.415715984051952,0.4602472332713849,0.7152337223698937
17853.0060000012,0.26531982421875,-0.574737548828125,-0.170684814453125,0.6917640826313524,-0.06847200215480928,1.231008929633867
17883.1090000022,0.3256378173828125,-0.618194580078125,-0.1393585205078125,0.8756742643450633,0.2571332632532216,1.569198696456958
17913.2120000031,0.3589935302734375,-0.668792724609375,-0.172088623046875,1.028582587809162,0.4862202444346007,1.822518845661404
17943.3180000015,0.343292236328125,-0.7743682861328125,-0.23077392578125,1.017011419188877,0.5013390099429805,2.102537451110004
17973.4220000028,0.443939208984375,-0.890045166015625,-0.2039337158203125,0.8005632679087955,0.5969331772713748,2.156729583499808
18003.5260000004,0.7822113037109375,-0.91253662109375,-0.152191162109375,0.8005632679087955,0.5969331772713748,2.156729583499808
18033.6240000033,0.492584228515625,-0.911712646484375,-0.0653839111328125,0.4779466018760515,0.7688748467301607,1.844186324290289
18063.7390000011,0.4928131103515625,-0.7894439697265625,-0.09002685546875,0.4779466018760515,0.7688748467301607,1.844186324290289
18093.8170000009,0.426483154296875,-0.8162078857421875,-0.101837158203125,0.482871053047717,1.042038741849005,1.451511477357484
18123.936,0.366455078125,-0.9073333740234375,-0.0465850830078125,0.4598205948647542,0.5869386000164164,1.465897340933874
18154.047,0.3575897216796875,-0.929962158203125,-0.0768890380859375,0.4644371846144066,0.4028915318226754,1.456429536942534
18184.1490000006,0.2946319580078125,-0.820953369140625,-0.0855865478515625,0.615055455857146,0.1179311646553249,1.289977707754837
18214.2540000023,0.3548736572265625,-0.840118408203125,-0.1183624267578125,0.615055455857146,0.1179311646553249,1.289977707754837
18244.3600000006,0.3253936767578125,-0.9184722900390625,-0.1182708740234375,0.8746241799272451,-1.502965613830578,1.187057184267635
18274.4810000004,0.2328033447265625,-1.09552001953125,-0.093353271484375,0.8746241799272451,-1.502965613830578,1.187057184267635
18304.5840000013,0.2724609375,-1.124237060546875,-0.064483642578125,0.5874382090369153,-1.436249167466349,0.870119176627267
18334.6980000024,0.263641357421875,-1.147003173828125,0.0087127685546875,0.2656796135073949,-1.349758750008282,0.3887165906046197
18364.8030000004,0.19512939453125,-1.118423461914062,-0.0170135498046875,0.1687123203209558,-1.052724675722948,-0.1657737883741623
18394.9100000027,0.56829833984375,-1.103652954101562,0.29754638671875,0.09668366653034567,-1.15387100129194,-0.9050939385910597
18424.97,-0.3933563232421875,-1.330657958984375,0.105621337890625,0.09668366653034567,-1.15387100129194,-0.9050939385910597
18455.0770000023,-0.767059326171875,-1.430709838867188,0.555084228515625,0.02024029060071122,-0.6736223629696236,-0.8074744372536602
18485.2000000028,-0.1644439697265625,-1.380340576171875,0.2318267822265625,0.09980116290239242,0.6381836783439392,-1.515032663045836
18515.2880000023,0.036895751953125,-1.230087280273438,-0.190643310546875,0.04474616631940236,0.7959437486819441,-1.579304593845482
18545.4080000018,0.4481964111328125,-0.985382080078125,0.007598876953125,-0.07140254461833247,1.137068319026303,-1.447029909875099
18575.5130000034,0.4343719482421875,-0.8719635009765625,0.3482513427734375,-0.00131480263017212,0.9053376178308019,-1.082798954964886
18605.6180000014,0.1073455810546875,-1.27301025390625,0.2926483154296875,0.073873958109926,-0.05262033471443964,-0.7065307782436238
18635.7240000034,0.2218780517578125,-1.078521728515625,0.085845947265625,0.073873958109926,-0.05262033471443964,-0.7065307782436238
18665.820000002,0.307342529296875,-1.052322387695312,0.1821136474609375,-0.03614202546957435,0.4408698068638594,-0.6667862947674992
18695.9200000019,0.32080078125,-0.91644287109375,0.199737548828125,-0.1623252610786187,0.2698338784918095,-0.7306193366194994
18726.0330000026,0.34307861328125,-0.8660125732421875,0.1416473388671875,-0.1927252449218732,0.07361137042644419,-0.6603765986558965
18756.1380000006,0.3563995361328125,-0.8033447265625,0.1611785888671875,-0.2393758377367912,0.1537384307758762,-0.6026413967518507
18786.247,0.294464111328125,-0.9455108642578125,0.096893310546875,-0.2114770947893392,0.05703612211790002,-0.6028861412560289
18816.358,0.2079925537109375,-1.006500244140625,0.124847412109375,-0.2308372106497792,0.04158685831824135,-0.7872554519416696
18846.461000001,0.3202667236328125,-1.0185546875,0.1624603271484375,-0.2073984635798828,0.1039564931512431,-1.087909294780639
18876.5710000007,0.471038818359375,-0.9060516357421875,0.09722900390625,-0.2073984635798828,0.1039564931512431,-1.087909294780639
18906.6760000023,0.3934173583984375,-0.8494110107421875,0.154266357421875,-0.1913928654285066,-0.1443633047904703,-1.155484610596419
18936.7770000026,0.57086181640625,-0.8068389892578125,0.1346282958984375,-0.1946887935935886,-0.3480549144490718,-1.22135763384342
18966.883000001,0.4728546142578125,-0.7933807373046875,0.080902099609375,-0.2040814964421891,-0.4130573503357259,-1.233808977203976
18997.0100000028,0.5938720703125,-1.080780029296875,0.11346435546875,-0.2631994115842041,-0.394641591397828,-1.300437539252232
19027.0980000023,0.4856719970703125,-1.090927124023438,0.029541015625,-0.2741228994273821,-0.8761384533230642,-1.516986624337628
19057.213,0.5378570556640625,-0.9709320068359375,-0.055999755859375,-0.2741228994273821,-0.8761384533230642,-1.516986624337628
19087.3090000023,0.5460205078125,-1.250030517578125,-0.001678466796875,-0.3580215285125844,-0.9578953682596247,-1.84953341912695
19117.4310000024,0.6052703857421875,-1.33355712890625,0.0234527587890625,-0.4799652779823316,-0.7866032437907091,-2.051846043973109
19147.5210000026,0.4267730712890625,-0.9856719970703125,0.090240478515625,-0.7164835438694679,-0.4770749492512686,-1.845727761929227
19177.6250000003,0.51898193359375,-0.635955810546875,0.2016448974609375,-0.9346246666545123,-0.4515344354490817,-1.525823791782837
19207.7320000026,0.7003173828125,-0.5213623046875,0.2607879638671875,-0.9766799750084986,0.2234653144363309,-1.173456953212818
19237.8330000029,0.618133544921875,-0.0525360107421875,0.225677490234375,-0.8442441697921662,0.8635411687347713,-0.3571320327084979
19267.955000003,0.3470001220703125,-0.091705322265625,0.0874786376953125,-0.8442441697921662,0.8635411687347713,-0.3571320327084979
19298.0400000015,0.0692291259765625,-0.4218902587890625,-0.0306854248046875,-0.7203565790427701,-0.4664119185627004,0.4032555859436893
19328.1550000029,0.117431640625,-0.32965087890625,-0.02581787109375,-0.5574355688283006,-1.296586608315978,1.644517419458252
19358.2560000032,0.154510498046875,-0.4426727294921875,0.0419769287109375,-0.1262402272563721,-0.5762260345315727,2.179256197896352
19388.3510000014,0.260528564453125,-0.5379486083984375,0.0595703125,0.2914214622879918,-0.2203499485931562,2.626674185248499
19418.447,0.4337615966796875,-0.6493988037109375,-0.0755615234375,0.7626467782049013,-0.03485252286975798,2.781519159457303
19448.5510000013,0.4348907470703125,-0.8071136474609375,-0.207183837890625,0.9940637590239908,-0.5188215972349147,3.071867367825992
19478.6660000027,0.4531097412109375,-0.9929656982421875,-0.2277679443359375,0.9940637590239908,-0.5188215972349147,3.071867367825992
19508.7700000004,0.4815216064453125,-1.0821533203125,-0.248565673828125,0.9822358616746218,-0.1588692769320229,3.134515569309017
19538.878000003,0.578857421875,-0.881744384765625,-0.1916961669921875,0.9037615590976931,0.5080613611665585,2.801592203541557
19568.9840000014,0.7160797119140625,-0.9897003173828125,-0.2348785400390625,0.8378464579054689,1.436996983100444,2.261504199737923
19599.089000003,0.6953125,-1.180130004882812,-0.0843658447265625,0.6971591143676349,0.994035795832545,1.990438342925843
19629.1760000022,0.594390869140625,-1.061187744140625,0.001708984375,0.475878124657387,-0.006697850141549284,1.933185972127429
19659.3010000033,0.40753173828125,-0.9853363037109375,0.089385986328125,0.3424774561781189,-0.6158477462814446,1.501273174957833
19689.4060000013,0.3414154052734375,-0.9742279052734375,0.112457275390625,0.3424774561781189,-0.6158477462814446,1.501273174957833
19719.508000002,0.34686279296875,-1.007843017578125,0.0233917236328125,0.4308869475176973,-0.6715006225291574,0.9333772419999192
19749.6100000026,0.3212432861328125,-1.067657470703125,-0.005584716796875,0.6093568237565945,-1.006800060621186,0.4670103308596412
19779.7160000009,0.1709136962890625,-1.11737060546875,0.073699951171875,0.6707346973996506,-1.776589969501898,0.2165996851461066
19809.8239999999,0.15960693359375,-1.04974365234375,-0.01605224609375,0.4949522170167525,-1.81904368675496,-0.2170532214797471
19839.9280000012,-0.077606201171875,-1.379852294921875,-0.0690460205078125,0.3328051214150601,-1.436096834651997,-1.276524483192193
19870.0360000003,-0.6151275634765625,-1.488296508789062,0.5441131591796875,0.2024066344326383,-0.3969731889321923,-1.096518495636538
19900.1420000022,-0.3787078857421875,-1.102005004882812,0.360687255859375,0.2024066344326383,-0.3969731889321923,-1.096518495636538
19930.2470000002,0.2423553466796875,-1.226364135742188,-0.13787841796875,0.189556349540788,0.568908200488253,-1.311476341970611
19960.3500000012,-0.215423583984375,-0.95849609375,-0.01995849609375,0.002983006736997755,0.5885468829987153,-1.444090046347761
19990.428000001,0.3858795166015625,-1.37933349609375,0.357391357421875,-0.03310362498190295,1.056336188477205,-1.323706376644582
20020.5610000012,0.351776123046875,-1.09765625,0.0633392333984375,-0.1004656215943672,1.244037380002643,-1.240168872203194
20050.6660000028,0.1146697998046875,-1.1614990234375,0.100921630859375,0.04535895968622958,-0.00918044890972115,-0.8412648914806945
20080.7700000005,0.34808349609375,-0.950225830078125,0.1712646484375,-0.03887522769632267,0.1925446825999659,-0.9784855982275723
20110.8720000011,0.273223876953125,-0.87744140625,0.1947174072265625,-0.030920898152474,-0.104423345290334,-0.8870731264428204
20140.9740000017,0.3782501220703125,-0.8365020751953125,0.1434783935546875,-0.0734435912777692,0.09056265708090755,-0.8300239548355791
20171.0760000024,0.3509521484375,-0.7439117431640625,0.174407958984375,-0.0734435912777692,0.09056265708090755,-0.8300239548355791
20201.1770000026,0.2740631103515625,-0.9666900634765625,0.172271728515625,-0.1224524132379524,0.2263167610154787,-0.8578875440566421
20231.28,0.3463287353515625,-1.014251708984375,0.1623077392578125,-0.1133204338600707,0.182533593746249,-1.006700458396417
20261.3820000006,0.45721435546875,-0.8845977783203125,0.103912353515625,-0.05996027299480702,0.177826989151752,-1.201227598111838
20291.4860000019,0.464508056640625,-0.7716522216796875,0.0859375,-0.08055316612384474,-0.1139201777375565,-1.236852704013828
20321.5930000006,0.4752655029296875,-0.90740966796875,0.115966796875,-0.08055316612384474,-0.1139201777375565,-1.236852704013828
20351.676000002,0.6392059326171875,-0.9018402099609375,0.0432891845703125,-0.1630890556792535,-0.1049754185843074,-1.409079065393143
20381.7970000018,0.58062744140625,-1.066848754882812,0.113006591796875,-0.1630890556792535,-0.1049754185843074,-1.409079065393143
20411.8780000026,0.546875,-1.095962524414062,0.1505279541015625,-0.1381472204901164,-0.6518869737329419,-1.575932499273223
20441.9850000013,0.575469970703125,-1.460739135742188,0.142059326171875,-0.1330904102122739,-0.9654584794393407,-1.809388662538987
20472.0930000003,0.5057373046875,-1.502227783203125,0.0569305419921875,-0.1239472455578139,-1.073408648961267,-2.249722641391522
20502.1900000029,0.48486328125,-1.1290283203125,0.0439453125,-0.395517771396464,-0.8969201645733884,-2.045175091758569
20532.3080000016,0.4125518798828125,-0.688690185546875,0.1627655029296875,-0.7000044356762756,-0.7893076838776846,-1.551725962861057
20562.3960000012,0.5378875732421875,-0.4855804443359375,0.3196563720703125,-0.7000044356762756,-0.7893076838776846,-1.551725962861057
20592.4980000018,0.8183441162109375,0.0292510986328125,0.341094970703125,-0.7680505983727811,-0.1886724463749906,-1.057396126591056
20622.6020000031,0.3083343505859375,-0.090362548828125,0.1427764892578125,-0.5622481672341828,0.7280818767328719,-0.7419095417447814
20652.7190000015,0.098297119140625,-0.3853302001953125,-0.0421295166015625,-0.3967558749872419,-1.226394736729195,0.5969603415144936
20682.8220000025,0.1977996826171875,-0.3318634033203125,-0.04248046875,-0.4056305930038219,-1.505578973808273,1.656588729731254
20712.9240000031,0.2391510009765625,-0.386962890625,0.0543975830078125,-0.02394501399312045,-0.5568589944522985,2.298188178489329
20743.010000002,0.2211151123046875,-0.4790191650390625,0.0206146240234375,0.2518530137599215,-0.4413829980059177,2.658646233083227
20773.121000002,0.3714447021484375,-0.6099395751953125,-0.0710906982421875,0.5773536169371123,-0.1632600306212365,2.746793136739324
20803.2220000023,0.4192047119140625,-0.732513427734375,-0.141448974609375,0.5773536169371123,-0.1632600306212365,2.746793136739324
20833.3240000029,0.411102294921875,-0.7657623291015625,-0.1316375732421875,0.7226160049115933,-0.1027570053962714,2.937183322017415
20863.4250000032,0.339599609375,-0.7075653076171875,-0.0630950927734375,0.6561440367354335,0.598416557998549,2.87475296711156
20893.5210000018,0.310211181640625,-0.7835693359375,0.0173797607421875,0.7548402541015521,1.575692282142898,2.713858622486641
20923.6270000001,0.5475616455078125,-1.245330810546875,0.060455322265625,0.7425697393790121,2.146124343406894,2.891317296459635
20953.7150000033,1.0313720703125,-1.429916381835938,-0.0002288818359375,0.6636749236659596,1.69027132593414,2.834958149890833
20983.825000003,0.78314208984375,-1.050765991210938,0.0215911865234375,0.3259876953405663,-0.7653357719575544,2.557900979574401
21013.9280000003,0.495635986328125,-1.0057373046875,0.1327362060546875,0.3259876953405663,-0.7653357719575544,2.557900979574401
21044.0290000006,0.3643951416015625,-1.033889770507812,0.0195465087890625,0.4409449080065996,-1.995739897707864,1.65129622969694
21074.1310000012,0.350799560546875,-1.132965087890625,-0.08685302734375,0.6206558173134736,-1.571164908289764,0.8765469822342823
21104.2350000025,0.1990814208984375,-1.110549926757812,0.0819549560546875,0.3924210476809199,-1.104154843746231,0.0930447232168614
21134.3390000002,0.2537384033203125,-1.112396240234375,0.06463623046875,0.08588801041949147,-0.2442366393584039,-0.6082875645789276
21164.4410000008,0.0137786865234375,-1.48382568359375,-0.2801055908203125,0.03971838449744176,0.5182202554607749,-2.46935540070312
21194.5470000028,-0.989715576171875,-1.580001831054688,0.3071136474609375,0.5554424590684853,-1.980886383044056,-0.7578664040482092
21224.6490000034,-0.6029205322265625,-1.424209594726562,0.2008819580078125,0.5554424590684853,-1.980886383044056,-0.7578664040482092
21254.7520000007,0.1174468994140625,-1.112274169921875,0.1638946533203125,0.1276714100261807,0.6496483205206213,-1.426459387299218
21284.856000002,0.4533538818359375,-1.265396118164062,0.3610687255859375,-0.2152742298715742,2.043049090260359,-1.786215965261989
21314.9570000023,0.154693603515625,-1.116729736328125,0.1233673095703125,0.01941417803056864,0.6951319161458666,-1.296537073519702
21345.0600000033,0.163818359375,-1.062637329101562,0.1430206298828125,0.04581702339372321,0.3253117850559041,-1.024471998666625
21375.164000001,0.4025726318359375,-0.8646240234375,0.1545867919921875,-0.09050087174361771,0.4351229715475774,-1.074158062492015
21405.2710000033,0.3450164794921875,-0.9512939453125,0.077789306640625,-0.1862449750413834,0.1919220355371054,-0.8805403922888561
21435.3780000019,0.2558746337890625,-0.95550537109375,0.15460205078125,-0.1862449750413834,0.1919220355371054,-0.8805403922888561
21465.4820000032,0.362823486328125,-0.986663818359375,0.0834503173828125,-0.1846303004724684,0.2824245051773771,-0.7436557764715463
21495.5680000021,0.3054962158203125,-0.9218292236328125,0.128997802734375,-0.1544620116440508,0.1611883576092639,-0.7533182575385718
21525.6720000034,0.37957763671875,-0.8929595947265625,0.1180419921875,-0.1382098047757332,0.08455882671943292,-0.7654982247840492
21555.7770000014,0.309814453125,-0.905548095703125,0.149139404296875,-0.1471311281113896,-0.1284826088942188,-0.8036557305665956
21585.8870000011,0.360626220703125,-0.9794158935546875,0.15673828125,-0.134338633815194,-0.003919906808487631,-0.9162033150783252
21616.0080000009,0.424896240234375,-0.91229248046875,0.058746337890625,-0.08466881527245319,-0.2504657731480992,-1.035733974284352
21646.1120000022,0.4212493896484375,-0.8809661865234375,0.12640380859375,-0.08466881527245319,-0.2504657731480992,-1.035733974284352
21676.198000001,0.3527984619140625,-1.283187866210938,0.1800537109375,-0.1068606703199745,-0.4502191001866916,-1.132674902175999
21706.3230000022,0.3863525390625,-0.8625640869140625,0.02471923828125,-0.1178755045885422,-0.7308600863820426,-1.3653960329809
21736.4290000005,0.6853179931640625,-0.8347320556640625,0.017181396484375,-0.2248363097655036,-0.6764104263148275,-1.55620806297566
21766.5370000032,0.509979248046875,-0.8134918212890625,0.1238861083984375,-0.2951815794310746,-0.7625479749284594,-1.658493955175097
21796.6460000025,0.589935302734375,-1.220413208007812,0.081024169921875,-0.3379498160088752,-1.03287826664746,-1.919226214325451
21856.7248750005,0.483612060546875,-1.0362548828125,0.075531005859375,-0.5921173830721845,-0.8136689499491845,-1.948135626906589
21886.8288750018,0.585205078125,-0.722015380859375,0.1512451171875,-0.9607484127354265,-0.6303212278576982,-1.65701936287952
21916.8998750029,0.62115478515625,-0.497283935546875,0.269317626953125,-1.284183734487261,-0.16602945183881,-1.233067553156498
21947.0378750011,0.5727081298828125,-0.1807708740234375,0.2294158935546875,-1.248759164615354,-0.0005789712209832264,-0.6734218269395407
21977.1428750028,0.3301544189453125,0.02685546875,0.1329193115234375,-1.100812576578182,0.2441170634254593,0.04001932170062071
22007.2288750016,0.2070465087890625,-0.4352264404296875,0.0545806884765625,-0.7405412095766987,-0.2976508623937961,0.8697591172478883
22037.337875001,0.4151458740234375,-0.3585205078125,-0.05108642578125,-0.2296244070893571,-0.4394016061548987,1.545811881028318
22067.4418750023,0.28582763671875,-0.524993896484375,-0.12030029296875,0.2964306019823219,-0.7671701573164009,2.227406416721094
22097.5488750009,0.2646942138671875,-0.61376953125,-0.1376953125,0.2964306019823219,-0.7671701573164009,2.227406416721094
22127.6518750019,0.4263153076171875,-0.6827545166015625,-0.137451171875,0.6957100884185228,-0.1661791214920724,2.367377103609587
22157.7608750013,0.465301513671875,-0.69512939453125,-0.148895263671875,0.9567797700789905,-0.02796585460692208,2.405825160267062
22187.8588750005,0.568695068359375,-0.82586669921875,-0.15069580078125,1.124800201148744,-0.08005728552887198,2.479900453355397
22217.9668750032,0.6445465087890625,-0.81634521484375,-0.1427154541015625,1.182288794335848,-0.08591623992704631,2.398345938661683
22248.0618750014,0.5565338134765625,-0.8057098388671875,-0.140350341796875,1.222994412649382,-0.3011297497257667,2.214625374017586
22278.1858750022,0.4948577880859375,-0.86370849609375,-0.1203765869140625,1.278837704915036,-0.5100757762150945,2.012870947735908
22308.2718750011,0.528778076171875,-0.9394989013671875,-0.1195220947265625,1.278837704915036,-0.5100757762150945,2.012870947735908
22338.374875002,0.5121307373046875,-0.910858154296875,-0.093505859375,1.248230527138973,-0.596067649917099,1.790500725139818
22368.4878750028,0.42462158203125,-0.9055023193359375,-0.04217529296875,1.192803486951699,-0.7263268535745098,1.497897884592267
22398.6088750025,0.4216766357421875,-1.012176513671875,0.028594970703125,1.122820939826597,-0.8070094493273323,1.162255963984054
22428.6978750024,0.4947509765625,-0.98980712890625,-0.0036773681640625,1.068468218823061,-1.097685226510102,0.8887762179599261
22458.8058750014,0.4951019287109375,-0.9922332763671875,-0.0560150146484375,0.9162824109627006,-1.879549108824906,0.5366378786114359
22488.9098750027,0.2289581298828125,-1.016143798828125,-0.0379791259765625,0.5829758163143786,-2.673934375636936,0.1448197706013099
22519.0308750025,1.51068115234375,-1.535552978515625,0.3188018798828125,0.5829758163143786,-2.673934375636936,0.1448197706013099
22549.1198750024,-1.719207763671875,-1.555099487304688,0.19329833984375,0.3062331653226855,-1.282419123948974,-2.202466712060829
22579.2418750025,-0.723052978515625,-1.670379638671875,0.885406494140625,0.1029250508610554,0.6118865604760607,-0.6092457699391381
22609.3308750023,0.728057861328125,-1.009170532226562,0.016693115234375,-0.4113867493839192,3.119222633065346,-2.353802971533454
22639.4528750025,0.4574432373046875,-1.391372680664062,0.210174560546875,-0.2885905220492376,1.707067083980943,-1.87950516666692
22669.5428750027,0.3752288818359375,-1.243911743164062,0.060455322265625,-0.1917638437683546,0.4470251710913595,-1.392509143406779
22699.6638750024,0.3842315673828125,-0.788177490234375,0.0015716552734375,-0.1495149236031196,0.2029576424621757,-1.219125105901606
22729.7538750026,0.51678466796875,-0.978546142578125,0.3100128173828125,-0.1495149236031196,0.2029576424621757,-1.219125105901606
22759.8748750024,0.491241455078125,-0.992523193359375,0.282928466796875,-0.1343681949032939,0.5495864341475101,-0.9814574196879917
22789.9778750034,0.423248291015625,-0.8247833251953125,0.14556884765625,-0.07465959063149938,-0.09863602992548276,-0.6935436068717433
22820.1058750019,0.537689208984375,-0.7698822021484375,0.1737060546875,-0.118876320526194,-0.1984904560496768,-0.5419737881715185
22850.2148750013,0.44390869140625,-0.8324737548828125,0.2381134033203125,-0.0905040675369258,-0.1918871481268253,-0.4000957453103102
22880.3218749999,0.4743194580078125,-0.7943115234375,0.1284942626953125,-0.01630600272233716,-0.3134117160409941,-0.3327057855064001
22910.4308750029,0.4655303955078125,-0.9086761474609375,0.1856536865234375,0.03511351265658575,-0.4950582108281377,-0.3247794191539973
22940.5378750016,0.458587646484375,-0.8983001708984375,0.1401824951171875,0.03511351265658575,-0.4950582108281377,-0.3247794191539973
22970.6298750025,0.4826507568359375,-0.8753814697265625,0.088287353515625,0.1017114483523063,-0.5567982743794446,-0.3526435410072783
23000.7498750019,0.49493408203125,-0.6825408935546875,0.1504974365234375,0.1721704349964236,-0.7231592897739695,-0.4288325850528102
23030.8578750009,0.5059661865234375,-1.082809448242188,0.2080535888671875,0.2630603945753019,-0.6909166647724891,-0.5423287875448262
23060.9648750033,0.4654998779296875,-0.860870361328125,0.0291595458984375,0.3871863382422601,-1.054941757330439,-0.6189972005865723
23091.0698750013,0.564727783203125,-0.91796875,0.0996856689453125,0.3418888975772114,-1.123550912281388,-0.6689935226789568
23121.1738750026,0.555145263671875,-0.715240478515625,0.1383056640625,0.3299345000760637,-1.134890119570727,-0.7478555815106013
23151.2838750023,0.6649932861328125,-0.659637451171875,0.1438751220703125,0.3299345000760637,-1.134890119570727,-0.7478555815106013
23181.3898750006,0.647796630859375,-0.8012847900390625,0.19488525390625,0.5233942448265808,-1.391148268089748,-0.929070644201152
23211.4948750022,0.6879119873046875,-0.7689666748046875,0.0918426513671875,0.5233942448265808,-1.391148268089748,-0.929070644201152
23241.5988749999,0.713897705078125,-1.098892211914062,0.2277984619140625,0.4714506193451303,-1.348254862940714,-0.8711436946986205
23271.6868750031,0.821044921875,-1.252914428710938,0.2914581298828125,0.4864838973825186,-1.264568487794391,-0.7895138125460568
23301.8088750032,0.711944580078125,-0.9492034912109375,0.09295654296875,0.624870269738524,-1.679644247920288,-0.4971208290924041
23331.9108750002,0.6686553955078125,-0.6556396484375,-0.109619140625,0.6346952036320443,-2.224353635163536,-0.1516430556302019
23362.0138750011,0.735321044921875,-0.5562286376953125,-0.0396881103515625,0.5334399547744687,-1.855104219495178,0.2810167582251612
23392.1218750002,0.986419677734375,-0.455169677734375,-0.0160675048828125,0.5334399547744687,-1.855104219495178,0.2810167582251612
23422.2298750028,0.9586181640625,-0.5931549072265625,-0.0333251953125,0.4726045670454616,-1.010101581424557,0.3722153781743797
23452.3328750001,0.7619171142578125,-0.7204132080078125,-0.1904754638671875,1.058250202352645,-1.59800211522671,0.2110278195134428
23482.4398750025,0.6417999267578125,-0.527191162109375,-0.3378448486328125,1.424822075861037,-2.624717827111726,0.4141907916956636
23512.532875,0.6117706298828125,-0.584259033203125,-0.2668609619140625,1.54304645455238,-2.25082918482445,0.1996875469596674
23542.6368750013,0.6322784423828125,-0.5748443603515625,-0.2655029296875,1.541598760183813,-2.118370742738852,0.01985945856482989
23572.7428750033,0.55572509765625,-0.6688385009765625,-0.2398834228515625,1.514890716559735,-2.451798244900663,-0.03792607708381843
23602.8638750031,0.533721923828125,-0.6167755126953125,-0.199066162109375,1.514890716559735,-2.451798244900663,-0.03792607708381843
23632.9688750011,0.3151702880859375,-0.5728912353515625,-0.1605377197265625,1.477310317785409,-2.965916433334389,0.0438369631232493
23663.0748750031,0.210296630859375,-0.5447540283203125,-0.1433258056640625,1.502570400724811,-3.644608389755088,0.2613573030581963
23693.1788750007,0.1493072509765625,-0.5474395751953125,-0.149932861328125,1.645264702460128,-3.55274637637833,0.3886723821305244
23723.2848750027,0.2648162841796875,-0.6200103759765625,-0.0902252197265625,1.780364201398758,-3.19203665306142,0.4940051969331203
23753.3758750033,0.3926849365234375,-0.600616455078125,-0.043304443359375,1.841935420536954,-3.031375867664101,0.6085421627791392
23783.4978750034,0.4292144775390625,-0.6477203369140625,0.010833740234375,1.890748233840907,-2.663422346182175,0.5927698575392539
23813.6078750031,0.5269622802734375,-0.6288604736328125,0.037445068359375,1.937379918212086,-1.818014907625862,0.3236246725053389
23843.7108750004,0.7261505126953125,-0.5615081787109375,-0.0424957275390625,1.937379918212086,-1.818014907625862,0.3236246725053389
23873.8148750017,1.153701782226562,-1.367431640625,-0.4909820556640625,1.918829935955248,-1.301868722022041,-0.001499359693714611
23903.9148750016,-0.265625,-1.126815795898438,-0.5453643798828125,1.289887160277775,-1.083513214769245,-0.636329052960808
23934.023875001,0.2718963623046875,-1.108551025390625,-0.1323394775390625,0.7980974470554911,-0.2821568574878242,-0.2903673831285384
23964.129875003,0.9216766357421875,-1.274765014648438,0.5389251708984375,0.560235350082301,2.254481710259494,-0.4316550031760762
23994.234875001,0.72320556640625,-1.303024291992188,0.678253173828125,1.007441083495568,0.6757710013370996,-0.01133467991548625
24024.3388750023,0.439483642578125,-0.6700897216796875,-0.14404296875,1.280822558875472,-1.113325705276028,0.6092510962613183
24054.448875002,0.2644500732421875,-0.92755126953125,0.1884307861328125,1.280822558875472,-1.113325705276028,0.6092510962613183
24084.5588750017,0.4792633056640625,-1.023468017578125,0.2119598388671875,0.8040932879336955,-0.04663035279063341,0.5147219270528467
24114.664875,0.503936767578125,-1.063735961914062,0.040985107421875,0.5605157809450863,0.5179416888107525,0.4517733209988618
24144.7688750013,0.3500823974609375,-0.846527099609375,0.1183319091796875,0.2607738044633599,0.0372965058021237,0.6751262500371913
24174.8728750026,0.23590087890625,-1.008346557617188,0.1420440673828125,0.07422096799996333,0.03142263770184493,0.5437375997614781
24204.978875001,0.237640380859375,-1.0059814453125,0.128326416015625,0.09310304644473413,0.3213482024055392,0.2416259425417992
24235.0818750019,0.38885498046875,-0.922088623046875,0.126495361328125,0.2400464216992732,0.2024777408337434,0.09861179515956305
24265.1868749999,0.3270263671875,-0.9539642333984375,0.1511688232421875,0.2400464216992732,0.2024777408337434,0.09861179515956305
24295.2918750016,0.3856353759765625,-0.929901123046875,0.2433319091796875,0.3258806362647451,-0.03450764350859272,0.0911695914933366
24325.3988750002,0.3456268310546875,-0.9540252685546875,0.21868896484375,0.2778081817438338,-0.003818973003173627,0.08847447247017642
24355.5058750026,0.3585052490234375,-0.93017578125,0.2321319580078125,0.1607699750020125,-0.2469144478344786,0.176450933816508
24385.6068750028,0.3395538330078125,-0.9291229248046875,0.2064666748046875,0.03739584171078365,-0.2000633189894776,0.2220802043533807
24415.7208750003,0.3033447265625,-0.9369049072265625,0.1488189697265625,-0.04062119610697862,-0.2267897384250768,0.2301660940550792
24445.8288750029,0.23089599609375,-0.9933013916015625,0.189239501953125,-0.08007406344373948,-0.451948556998589,0.1524276228873392
24475.9408750033,0.2864227294921875,-0.930419921875,0.1717681884765625,-0.08007406344373948,-0.451948556998589,0.1524276228873392
24506.0348750012,0.2205963134765625,-1.074356079101562,0.1324310302734375,-0.1405336791429364,-0.3459917635525874,0.001074052867628957
24536.1548750006,0.3050384521484375,-0.9868011474609375,0.2423248291015625,-0.1871634993013518,-0.5172274290063933,-0.1111502238877651
24566.2438750005,0.4914398193359375,-1.126739501953125,0.0714111328125,-0.2435942849034768,0.005158276715374477,-0.1915625087899446
24596.3518750032,0.3716888427734375,-1.225112915039062,0.0099639892578125,-0.1769010080407314,-0.9303367109833757,0.07795844827378053
24626.4578750015,0.2543182373046875,-1.352615356445312,-0.0435028076171875,0.1909193553866905,-1.635301017873815,0.2247838454920291
24656.5658750005,-0.0328826904296875,-1.563644409179688,0.1362762451171875,0.2575772122069378,-2.079748515346087,0.3378158590060442
24686.6868750003,-0.201690673828125,-1.122024536132812,0.228057861328125,0.2575772122069378,-2.079748515346087,0.3378158590060442
24716.794875003,0.3517608642578125,-1.10986328125,0.1917572021484375,0.2135378488408425,-1.968121052990979,0.3474309358056663
24746.9018750016,0.9290008544921875,-1.575241088867188,0.1172332763671875,0.04936089185629166,-1.112936617440768,-1.078312860108648
24777.0068750033,0.59674072265625,-1.633987426757812,-0.0720672607421875,0.3208134396586513,-0.6574247509036526,-2.244615497369077
24807.1128750016,0.8348388671875,-1.7061767578125,0.0268707275390625,0.4060585629909976,-0.7354268750193105,-2.813461646203931
24837.2208750006,0.6535797119140625,-1.533447265625,-0.017669677734375,0.3296143881130362,-1.193634925844022,-3.396099507375979
24867.3158750025,0.5992279052734375,-1.308456420898438,-0.0522918701171875,0.1865224764269697,-1.616217604450634,-3.147391420547332
24897.4378750027,0.431396484375,-0.9403533935546875,-0.108367919921875,0.1865224764269697,-1.616217604450634,-3.147391420547332
24927.5448750013,0.23724365234375,-0.6288604736328125,-0.1114044189453125,0.1034433020091848,-1.65955602381782,-2.466967344153646
24957.6528750003,0.1283111572265625,-0.46685791015625,-0.186737060546875,0.1464184662036845,-1.791184358591641,-1.579390613948691
24987.7598750027,0.0678253173828125,-0.34478759765625,-0.0212860107421875,0.292435860347203,-1.814799140609592,-0.653335999682054
25017.8708750027,0.0939483642578125,-0.0910797119140625,0.0489044189453125,0.5988037816210465,-0.6540148394439151,0.3123696211064461
25047.976875001,-0.00152587890625,-0.1074066162109375,0.1911773681640625,0.9574399677132212,0.7190127479567161,0.9596613103784563
25078.0838750034,0.3175506591796875,-0.0496063232421875,0.0575714111328125,1.000125113665011,0.6084433595026972,1.573293839265173
25108.1888750014,0.1815338134765625,0.030670166015625,-0.006011962890625,1.000125113665011,0.6084433595026972,1.573293839265173
25138.2928750027,0.3710174560546875,0.039154052734375,0.03759765625,1.014882488213467,-0.2164018122771137,2.488424433056414
25168.3998750013,0.69451904296875,-0.05096435546875,0.1245269775390625,1.089886159257805,0.08488319974020457,2.627756227599398
25198.5038750026,0.86810302734375,-0.27239990234375,0.032623291015625,1.194136665393393,0.07126379392553935,2.369754507514701
25228.609875001,0.9353179931640625,-0.3012237548828125,-0.0150604248046875,1.01831796601967,0.1153188699420661,1.72993644720978
25258.7198750007,0.9510650634765625,-0.31072998046875,0.0243682861328125,0.755140126040295,0.3470024331862725,1.046717649568165
25288.8318750011,0.8415985107421875,-0.29559326171875,-0.020660400390625,0.6032374122038104,0.1855405689330575,0.4925369962241597
25318.9298750003,2.330886840820312,-0.701446533203125,0.0751190185546875,0.5510767390935184,0.3393301324018632,-0.5369489358267571
25349.0328750013,0.10211181640625,-2.520751953125,0.021026611328125,0.04241696563001905,-0.3302378341242237,-0.3289493967888434
25379.1538750011,0.0604400634765625,-1.783004760742188,0.5259246826171875,0.04241696563001905,-0.3302378341242237,-0.3289493967888434
25409.2668750018,0.7094879150390625,-0.8847808837890625,-0.4631195068359375,0.2609066962017549,0.1853131349759647,-0.5488884196258004
25439.3708750031,0.4287261962890625,-0.6854095458984375,0.2923126220703125,0.2052045514738755,-0.02272262305277408,-0.1101360921446629
25469.4898750022,0.7756805419921875,-0.742034912109375,0.60992431640625,0.1714705562619508,1.136704264905289,-0.1943548331928927
25499.5888750018,0.571380615234375,-0.8544769287109375,0.200836181640625,0.6150285579301362,-0.4287010248949603,0.1661911057169778
25529.6968750008,0.3614501953125,-0.9502716064453125,0.264312744140625,0.3794493226433619,-0.4853627065635952,0.3298585999849964
25559.8068750005,0.4859466552734375,-0.9257354736328125,0.3014678955078125,0.3794493226433619,-0.4853627065635952,0.3298585999849964
25589.9138750028,0.4469146728515625,-0.813079833984375,0.2774658203125,0.06645998395125441,0.08539026561175565,0.2652681551189777
25620.0128750024,0.469329833984375,-0.8569183349609375,0.252655029296875,-0.09415898981695055,0.1267222594136764,0.298923853394854
25650.1338750022,0.4225006103515625,-0.910919189453125,0.168701171875,-0.1388460339601532,0.07950973960875168,0.3883671838696013
25680.2248750028,0.4314422607421875,-0.8776092529296875,0.1605682373046875,-0.1468086193033811,0.0756249865266531,0.4341423956342103
25710.3448750022,0.412139892578125,-0.9228973388671875,0.16058349609375,-0.05763852915647594,-0.03525173071716086,0.4983855642940827
25740.465875002,0.4141082763671875,-0.9125213623046875,0.1820068359375,0.03398912604435429,-0.2568610881898155,0.5462934354596272
25770.5558750022,0.411163330078125,-0.8450775146484375,0.207366943359375,0.03398912604435429,-0.2568610881898155,0.5462934354596272
25800.676875002,0.2923736572265625,-0.955657958984375,0.1841278076171875,0.160248794376684,-0.8261266848963571,0.5945120975243838
25830.8078750015,0.2498779296875,-0.914825439453125,0.161102294921875,0.160248794376684,-0.8261266848963571,0.5945120975243838
25860.9148750002,0.1847076416015625,-0.900299072265625,0.21844482421875,0.1346371741733919,-0.6738660422093659,0.3749528414588721
25891.0238750032,0.2457275390625,-0.93011474609375,0.221588134765625,0.08805102985685383,-0.563399185457315,0.1245954589671391
25921.1148750001,0.190216064453125,-0.8972930908203125,0.261810302734375,0.009113603566360162,-0.5133261643255362,-0.08941110622555729
25951.2358750035,0.3267822265625,-0.9406890869140625,0.263671875,-0.09427030995051587,-0.06843391895122114,-0.2634588034743778
25981.3268750004,0.4177398681640625,-1.07794189453125,0.246063232421875,-0.1898892446770478,0.09089581853327647,-0.1309540223858123
26011.4538750022,0.4137420654296875,-1.144317626953125,0.102203369140625,-0.1898892446770478,0.09089581853327647,-0.1309540223858123
26041.5578749999,0.4764862060546875,-1.291259765625,-0.0821533203125,0.0784213056712363,-0.5757418718453963,0.4261089702059862
26071.6618750012,0.198760986328125,-1.564010620117188,0.0994415283203125,0.0784213056712363,-0.5757418718453963,0.4261089702059862
26101.7608750008,-0.0466156005859375,-1.478424072265625,0.3393402099609375,0.2375230765664231,-1.710939320205918,0.5686797012667242
26131.8708750005,-0.482391357421875,-1.197830200195312,0.321075439453125,0.358109945460775,-4.181102457667659,-0.3120194154231006
26161.9728750011,-0.267608642578125,-1.554611206054688,0.117706298828125,-0.04445641439280173,-3.534828095932059,-1.094796761991802
26192.0638750016,0.615081787109375,-1.563217163085938,0.118133544921875,-0.04445641439280173,-3.534828095932059,-1.094796761991802
26222.1548750022,1.011489868164062,-1.568771362304688,0.061981201171875,-0.1077291271514493,1.988188238120835,-3.638852766007208
26252.2738750013,0.926727294921875,-1.532867431640625,0.0374755859375,-0.1077291271514493,1.988188238120835,-3.638852766007208
26282.3778750026,0.6884307861328125,-1.258575439453125,0.0634613037109375,-0.3745584273014314,0.7021099308340922,-3.596656576431557
26312.4858750016,0.62567138671875,-0.8741455078125,0.1071929931640625,-0.8004247835321114,-0.5105498188891286,-2.87642010595395
26342.5908750032,0.568206787109375,-0.632080078125,0.1622772216796875,-1.17450064604402,-0.28847174506462,-2.281946357949263
26372.7128750033,0.41070556640625,-0.4828033447265625,0.2569580078125,-1.3212264410375,-0.4124312411634483,-1.433176678516725
26402.8188750017,0.284149169921875,-0.38995361328125,0.2258148193359375,-1.3212264410375,-0.4124312411634483,-1.433176678516725
26432.9208750023,0.51971435546875,-0.2911529541015625,0.1394195556640625,-1.347958453111388,0.4023045711184219,-0.03852848412239435
26463.0258750003,0.07586669921875,-0.2661590576171875,0.2410430908203125,-1.347958453111388,0.4023045711184219,-0.03852848412239435
26493.130875002,-0.1149444580078125,-0.14178466796875,0.2305755615234375,-1.0738856211125,0.7912952009992108,1.344065177913802
26523.2378750006,0.1658782958984375,-0.0906982421875,0.3428192138671875,-0.8528704148790418,0.9293979466991228,1.631509475429869
26553.3428750023,0.149383544921875,-0.02630615234375,0.3726959228515625,-0.4531634910878832,1.235553081401869,2.364628987680735
26583.4468749999,0.34637451171875,-0.1078338623046875,0.2957763671875,-0.1050723576479863,1.248868354220047,2.569670553695897
26613.5518750016,0.578826904296875,-0.1563873291015625,0.134979248046875,0.09174882903042884,0.8579935378680272,2.688703201778079
26643.6528750019,0.952117919921875,-0.2885284423828125,-0.0117340087890625,0.02488590880624544,0.9025282491968774,2.444993335683293
26673.7558750028,1.22613525390625,-0.30377197265625,-0.0361785888671875,0.02488590880624544,0.9025282491968774,2.444993335683293
26703.8618750012,1.3253173828125,-0.1077423095703125,-0.0029144287109375,-0.2408941058742454,1.305195276539659,1.485809796404397
26733.9638750018,2.892898559570312,-0.8885498046875,0.3295440673828125,-0.28658729227728,1.410732089481755,0.1583608794799268
26764.053875002,-0.4711761474609375,-1.137161254882812,-0.0525360107421875,-0.24921462006798,1.250892090332398,-1.511978283591624
26794.1668750027,0.6473846435546875,-1.564804077148438,0.1610870361328125,0.2726717429493979,-1.726046634121611,-0.2161605298823525
26824.1738750003,0.899200439453125,-0.99609375,-0.4438629150390625,0.1431257338319105,1.269461779981303,-0.4553643274127246
26854.2808750026,0.5313568115234375,-0.9549713134765625,0.2684326171875,0.1186235865387455,0.5091234298092822,-0.06938440114427043
26884.3828750032,0.7733001708984375,-0.8527679443359375,0.251922607421875,0.1186235865387455,0.5091234298092822,-0.06938440114427043
26914.460875003,0.4174346923828125,-0.965667724609375,0.1039276123046875,0.4626118540032663,-0.1025817693965442,0.2961477742745554
26944.5918750025,0.5329132080078125,-0.892242431640625,0.215057373046875,0.4861763022766144,-0.3622154745972412,0.5206240246606804
26974.6948749998,0.5400238037109375,-0.931610107421875,0.2188720703125,0.3962216448725719,0.09836385486207666,0.6853826160273044
27004.8008750018,0.445892333984375,-0.9090423583984375,0.2139739990234375,0.2619439974463407,-0.2298606294780471,0.8973452050833651
27034.9068750002,0.3905487060546875,-0.837921142578125,0.2114715576171875,0.143109488549261,-0.2873196615770517,0.9308768000524438
27064.9918750023,0.3312530517578125,-0.8856964111328125,0.1526641845703125,0.1356411859043518,-0.4241736510418256,0.8475070747597313
27095.1288750002,0.3647308349609375,-0.972900390625,0.17974853515625,0.1356411859043518,-0.4241736510418256,0.8475070747597313
27125.2398750003,0.2649078369140625,-0.87835693359375,0.1441497802734375,0.1245296788882142,-0.2708831639613007,0.8688363319301758
27155.3418750009,0.29486083984375,-0.921112060546875,0.1547393798828125,0.1200694166945495,-0.4798132114840881,0.8125757223217069
27185.4578750026,0.1228790283203125,-0.9420623779296875,0.1435699462890625,0.1291324202001981,-0.6178757434515399,0.5823150860479299
27215.5508750002,0.2380523681640625,-0.8957061767578125,0.1698455810546875,0.04204998203180613,-0.5479565795603816,0.328701190175248
27245.6768750017,0.230316162109375,-0.924407958984375,0.201263427734375,-0.03325036515796631,-0.2742770964544977,0.1463526861247595
27275.7768750016,0.153350830078125,-0.956573486328125,0.153411865234375,-0.0291863813345054,-0.443646684932485,-0.01236851905065501
27305.8798750026,0.2044830322265625,-0.9700775146484375,0.202880859375,-0.0291863813345054,-0.443646684932485,-0.01236851905065501
27335.9988750017,0.2216949462890625,-1.03094482421875,0.110595703125,-0.07102490837575924,-0.09791830801170641,-0.2364591437109365
27366.1118750024,0.410797119140625,-1.075592041015625,0.1338348388671875,-0.1174275608931909,-0.1367551861883319,-0.2866501428790058
27396.2178750007,0.3538360595703125,-1.302169799804688,0.077392578125,-0.07632113683559982,-0.09287055248157022,-0.1417102637125334
27426.3288750008,0.1279144287109375,-1.43841552734375,0.0428619384765625,-0.007689611331494792,-0.7243720933343916,0.1088788137940365
27456.4528750016,0.04644775390625,-1.268020629882812,0.039154052734375,0.03081410539276182,-0.9718396797272796,0.1341631314993578
27486.532875002,-0.1448822021484375,-1.349990844726562,0.1949615478515625,-0.1570727084606555,-1.295147968695117,0.06654227562893786
27516.6538750018,0.0869598388671875,-1.171798706054688,0.242584228515625,-0.4206841110654948,-0.5591389266615153,-0.8371761402590959
27546.7518750011,0.59881591796875,-1.426116943359375,0.1868896484375,-0.4206841110654948,-0.5591389266615153,-0.8371761402590959
27576.8618750008,0.4825439453125,-1.425918579101562,-0.0951690673828125,-0.3949670296830357,0.9870335463783997,-2.228478871692069
27606.9638750014,0.4272613525390625,-1.48248291015625,0.0122222900390625,-0.407715848137354,0.5343986927668972,-2.67641644177289
27637.0718750004,0.616943359375,-1.391510009765625,0.17913818359375,-0.4592890279111744,0.9392596322156862,-2.697458876493933
27667.1978750019,0.7546539306640625,-1.300628662109375,0.1895751953125,-0.3935587500986018,0.5257213149870921,-2.700756935187887
