time(ms),accelerometerAccelerationX,accelerometerAccelerationY,accelerometerAccelerationZ,gyroRotationX,gyroRotationY,gyroRotationZ
0,0.2035675048828125,-0.8924713134765625,-0.1218719482421875,0.238056507732766,-0.1182574018888596,0.02495728152345957
30.1070000000436,0.234466552734375,-0.969696044921875,-0.0756988525390625,0.238056507732766,-0.1182574018888596,0.02495728152345957
60.2030000000013,0.2073516845703125,-0.9539947509765625,-0.051239013671875,0.3050536512758894,-0.1059488039627313,-0.04917926426994825
90.2930000002016,0.1862640380859375,-0.9833831787109375,0.0099639892578125,0.3102550712009232,-0.1600045825047237,-0.02962367238549641
120.383999999831,0.19830322265625,-0.9293060302734375,-0.003662109375,0.2881066256791702,0.05643291613099707,-0.08228794925792235
150.474000000031,0.255096435546875,-0.9698486328125,-0.0445098876953125,0.2443178657716513,0.2146055101218552,-0.1017279599510648
180.564000000231,0.23187255859375,-0.960479736328125,-0.09356689453125,0.2206482226352451,0.2083055362471638,-0.08482540914454985
210.656000000199,0.226409912109375,-0.9561920166015625,0.0666656494140625,0.2312252332206038,0.2169144707869539,-0.07627399888430542
240.745000000061,0.15673828125,-1.023635864257812,0.116119384765625,0.2312252332206038,0.2169144707869539,-0.07627399888430542
270.833999999923,0.2845916748046875,-0.9036407470703125,0.021514892578125,0.2926654248331678,0.4913500253263113,0.03648530693408556
300.913999999921,0.2487335205078125,-0.955780029296875,-0.116058349609375,0.1958589865765695,0.5662136140973107,-0.00841452378021436
331.007000000227,0.2669525146484375,-0.9543304443359375,-0.0392913818359375,0.3344102086040509,0.4119276374013143,-0.0617778804387861
361.084000000119,0.2709503173828125,-0.9354248046875,-0.00274658203125,0.5072957023531608,0.2148995231062,-0.02511360907944721
391.19699999992,0.3426666259765625,-0.982757568359375,-0.01702880859375,0.6603813923458586,0.07670409940035321,0.05790750842657395
421.288000000004,0.2811126708984375,-0.9926300048828125,0.0902557373046875,0.7246671715831723,-0.4440514854181771,0.202295047982964
451.376999999866,0.176727294921875,-0.9632415771484375,0.15557861328125,0.6510744432843587,-0.6291766012211821,0.2156670461323608
481.47599999993,0.20965576171875,-0.9966888427734375,0.14971923828125,0.6510744432843587,-0.6291766012211821,0.2156670461323608
511.559000000034,0.19073486328125,-0.97259521484375,0.1735992431640625,0.5305773229187425,-0.662581696038482,0.2021573625546069
541.653000000224,0.1345062255859375,-0.9501190185546875,0.2033233642578125,0.4169503592172037,-0.4806784725222548,0.1191687356138847
571.73899999998,0.138336181640625,-0.9160308837890625,0.19561767578125,0.3208765565764862,-0.424454081904611,0.008335694211948016
601.82900000018,0.09906005859375,-0.96453857421875,0.170440673828125,0.296234060693874,-0.3486013951047561,-0.1926264416454313
631.918999999925,0.1549835205078125,-0.97528076171875,0.198486328125,0.3135861530923943,-0.3748929203343453,-0.4128674669500032
662.009000000126,0.18768310546875,-0.9057159423828125,0.26678466796875,0.2345017203097282,-0.2439652632433248,-0.6231189750056879
692.106999999851,0.1944122314453125,-0.981781005859375,0.1399688720703125,0.2177858570956279,-0.2876466977589135,-0.7518900042459623
722.200000000157,0.3587493896484375,-0.890472412109375,0.1924285888671875,0.2177858570956279,-0.2876466977589135,-0.7518900042459623
782.253750000109,0.347412109375,-0.9673004150390625,0.1243133544921875,0.127379261254599,-0.2189184995072386,-0.894719594564656
812.343749999854,0.41143798828125,-0.99114990234375,0.1869049072265625,0.1194592864888123,-0.1503823151701584,-0.9612647996707929
842.437750000045,0.390777587890625,-0.9336700439453125,0.409759521484375,0.1004544363177889,-0.3609520709761075,-0.9558340815759033
872.531750000235,0.4129638671875,-0.9568939208984375,0.16729736328125,0.03930532821237047,-0.3407152424848134,-0.9329953446996018
902.600750000147,0.412200927734375,-0.931884765625,0.141326904296875,0.0291158075656183,-0.3390070909616366,-0.9788975892482076
932.721749999928,0.4753570556640625,-0.95355224609375,0.1331634521484375,0.0291158075656183,-0.3390070909616366,-0.9788975892482076
962.814750000234,0.4376678466796875,-0.8139190673828125,0.195465087890625,0.01264362359126019,-0.2726120881409801,-1.044430260507896
992.905749999863,0.38812255859375,-1.181533813476562,0.278076171875,0.02981568630009112,-0.3406228307949877,-1.043872061943416
1022.99875000017,0.387420654296875,-1.24261474609375,0.1419525146484375,0.2051294503311353,-0.6710870336118682,-1.31638907523348
1053.09075000014,0.350555419921875,-1.167892456054688,0.1916961669921875,0.5706712131298854,-0.8855444719771149,-2.012190510077393
1083.17875000012,0.5045013427734375,-1.362396240234375,0.3890228271484375,1.146417612349135,-0.8205324487105367,-2.425776764205608
1113.26675000009,1.161590576171875,-1.744644165039062,0.3361358642578125,1.124797005355435,-2.146193319279128,-2.238668392338821
1143.35274999985,0.3672943115234375,-1.271560668945312,0.086029052734375,1.124797005355435,-2.146193319279128,-2.238668392338821
1173.44474999982,0.3723602294921875,-1.042160034179688,-0.1507720947265625,1.179143601088465,-1.403787364307155,-2.616847120826106
1203.5357499999,0.3065185546875,-0.626312255859375,-0.2018585205078125,1.065386142493512,-0.2032175669845674,-2.216116211595812
1233.62774999987,0.3410491943359375,-0.4604644775390625,-0.2154998779296875,0.9360449304638515,-0.8600316550502649,-1.130556091212732
1263.71675000019,0.0943603515625,-0.3834228515625,-0.0856781005859375,0.6974073209812303,-1.393836462894074,0.0727141514551965
1293.80575000005,0.3411865234375,-0.4310760498046875,-0.08056640625,0.5398730867036641,-0.8208232659015733,0.8477915003641517
1323.88674999993,0.32147216796875,-0.4340362548828125,0.0324249267578125,0.2590723108429083,-0.6555136665054118,1.61487377336458
1353.98075000012,0.460113525390625,-0.5933685302734375,0.079345703125,0.2590723108429083,-0.6555136665054118,1.61487377336458
1384.08674999982,0.3926849365234375,-0.6581268310546875,0.08685302734375,-0.02141980464750731,-0.4657991251958731,2.250760475268326
1414.17975000013,0.4653167724609375,-0.711212158203125,0.0675048828125,-0.2337427193990556,0.2651935866084554,2.737830534406771
1444.27274999998,0.6209564208984375,-0.819488525390625,0.1537322998046875,-0.4924088981757269,1.116869573738597,3.050125320686586
1474.36474999995,0.7161407470703125,-0.8698577880859375,0.2030029296875,-0.7744951818946639,1.098789905730267,3.263265559576679
1504.45775000026,0.7266845703125,-0.8496246337890625,0.2383575439453125,-0.8809140337897943,0.7665339281319811,3.367862809286196
1534.55174999999,0.656402587890625,-0.8458404541015625,0.242919921875,-0.7347352520842169,0.7525930787737433,3.183701225165581
1564.64074999985,0.5244598388671875,-0.8603057861328125,0.1455535888671875,-0.7347352520842169,0.7525930787737433,3.183701225165581
1594.73775000015,0.5443267822265625,-0.9256591796875,0.158599853515625,-0.5233143499938784,1.680207772806949,2.775750219903973
1624.83275000022,0.5050506591796875,-0.8333740234375,0.0839691162109375,-0.5423391738730775,1.470083830167479,2.58407718992879
1654.92774999984,0.4339447021484375,-0.9151153564453125,0.0838775634765625,-0.5749961867401742,0.8526293988003897,2.518432399587209
1685.01974999981,0.4908905029296875,-0.888214111328125,0.0752716064453125,-0.5202871347827853,0.9739078906298351,2.381725682930717
1715.11074999989,0.5470428466796875,-0.8847198486328125,0.0064849853515625,-0.2351725705883192,0.6936155122211755,2.221613775034063
1745.20475000008,0.467010498046875,-1.090499877929688,-0.13153076171875,-0.2414027696424506,0.006548979436613854,2.090553492520756
1775.29575000017,0.2501220703125,-1.064285278320312,-0.0955047607421875,-0.2414027696424506,0.006548979436613854,2.090553492520756
1805.38675000025,0.1341705322265625,-1.079635620117188,0.016387939453125,-0.3627883205477172,-0.3414430844107321,1.601699914400285
1835.48174999987,0.1898040771484375,-1.079269409179688,0.0949554443359375,-0.3643244318644749,0.5706459130995297,0.936497667849165
1865.57075000019,0.0227813720703125,-0.9778289794921875,-0.0948333740234375,-0.3241455868145585,1.162183259686295,0.2054362464887124
1895.65774999983,-0.0117340087890625,-0.966217041015625,-0.0323638916015625,-0.2974178357984142,1.00395607089309,-0.2749327667148752
1925.74575000026,-0.253692626953125,-0.9780731201171875,-0.1238555908203125,-0.01291846181575637,0.331928941416424,-0.2301727519578044
1955.84074999988,-0.1663055419921875,-0.8758087158203125,-0.133575439453125,0.1520262845110643,0.4087014840567923,-0.3827937203402834
1985.92874999986,-0.02825927734375,-0.939117431640625,-0.045623779296875,0.1520262845110643,0.4087014840567923,-0.3827937203402834
2016.01875000006,-0.0978546142578125,-0.930755615234375,0.0308685302734375,0.1750623616241407,0.1471585586706175,-0.506698621636765
2046.10675000004,-0.045257568359375,-0.913360595703125,0.100189208984375,0.4002334307386673,-0.2931719580725008,-0.8335438548483368
2076.19475000001,-0.1299896240234375,-0.770111083984375,0.07061767578125,0.6530651561991929,-0.1955801536104382,-1.315891064109635
2106.2857500001,0.278289794921875,-1.246734619140625,-0.341278076171875,1.124494736571712,0.3507388481956537,-1.124945343428153
2136.37675000018,-1.016815185546875,-2.394729614257812,-0.967193603515625,0.7971536227651671,0.1533299018646581,-1.349983520804285
2166.47175000026,0.70831298828125,-0.3469696044921875,-0.1752166748046875,1.028473664520578,1.804351027020993,-2.108560722547436
2196.54274999994,0.383941650390625,-1.17108154296875,0.120361328125,1.028473664520578,1.804351027020993,-2.108560722547436
2226.65474999985,0.0908966064453125,-1.035140991210938,0.198638916015625,0.9440903401169809,-0.2028814760549994,-0.767035401365243
2256.73675000007,0.1175079345703125,-1.005401611328125,0.2447357177734375,0.7133663138135301,-0.295695303205351,-0.3548638184080774
2286.82075000006,0.1265716552734375,-1.013458251953125,0.2014923095703125,0.3998006670615294,0.007586813313417734,-0.2334708106517586
2316.91275000003,0.12738037109375,-0.962554931640625,0.1080322265625,0.1508832557712023,0.2041422165150429,-0.05231220697631747
2347.0077500001,0.0702056884765625,-0.9448394775390625,0.1428680419921875,0.09749965908834594,0.09647354312033841,0.05874986627936601
2377.10874999993,0.155792236328125,-0.95947265625,0.087310791015625,0.1016320861518219,0.1072188654865901,0.07043421924597966
2407.19775000025,0.0380096435546875,-0.9411163330078125,0.125396728515625,0.1016320861518219,0.1072188654865901,0.07043421924597966
2437.28575000023,-0.041473388671875,-0.987823486328125,0.13653564453125,0.09803974815741402,-0.06670765793263178,0.1279603630044543
2467.37974999996,0.026123046875,-0.9430084228515625,0.2323150634765625,0.2002838287277361,0.1392556281358073,-0.06963580355117391
2497.47274999982,0.093170166015625,-0.9885406494140625,0.1680450439453125,0.2256640202323003,0.4637546164270193,-0.1854665330547533
2527.56675000001,0.074310302734375,-0.98382568359375,0.0460968017578125,0.2079998053540227,0.3368976010621849,-0.215707259864821
2557.66175000008,0.1629486083984375,-1.02301025390625,0.0963592529296875,0.2438946894744377,0.2812356700667658,-0.2694170937812121
2587.75675000015,0.145599365234375,-0.97235107421875,0.159027099609375,0.2272225021022146,0.1391387153639529,-0.09179996172335836
2617.8467499999,0.1297149658203125,-0.9709625244140625,0.172943115234375,0.2272225021022146,0.1391387153639529,-0.09179996172335836
2647.93975000021,0.0741119384765625,-0.9689788818359375,0.1417999267578125,0.2101998427305372,-0.04602235311376832,0.02428989335428571
2678.02174999997,0.08709716796875,-0.9561309814453125,0.1695098876953125,0.2007091355538218,-0.1332565914642948,0.02369627474730705
2708.12174999992,0.0460968017578125,-0.949951171875,0.2094268798828125,0.1929252483197382,-0.1551275356004616,-0.04441353749925146
2738.20775000013,0.058319091796875,-0.97027587890625,0.2294769287109375,0.1641718969784797,-0.1040627532787372,-0.1578889673347647
2768.29475000022,0.105072021484375,-0.9477386474609375,0.1908721923828125,0.1245291462559962,-0.09535501546250513,-0.2466795570263336
2798.37875000021,0.11578369140625,-0.989990234375,0.1926116943359375,0.1046395939708484,-0.1233488332608731,-0.2807517736966983
2828.45975000009,0.0767669677734375,-0.94024658203125,0.2397613525390625,0.1046395939708484,-0.1233488332608731,-0.2807517736966983
2858.55274999994,0.1179046630859375,-0.971649169921875,0.20452880859375,0.05811230551440104,-0.2545113811600386,-0.3079929821710098
2888.64275000014,0.1013336181640625,-0.983489990234375,0.2280120849609375,0.02883777354781402,-0.1892239870367461,-0.3746833295565561
2918.73475000011,0.1334228515625,-0.94140625,0.2078704833984375,-0.02368988316069085,-0.1613739799372424,-0.4594317733456027
2948.82474999986,0.1281280517578125,-0.9992218017578125,0.1558685302734375,-0.01475630928402005,-0.06179838677917972,-0.5079284694281636
2978.91274999984,0.2014923095703125,-1.001571655273438,0.2285003662109375,-0.07005178931344429,0.05047089739863668,-0.5442172350738014
3009.00175000015,0.1722259521484375,-0.9512481689453125,0.226226806640625,-0.1102008069591519,-0.2400030121735049,-0.5491049346224237
3039.09375000012,0.14556884765625,-0.9337615966796875,0.2357940673828125,-0.1102008069591519,-0.2400030121735049,-0.5491049346224237
3069.1847500002,0.183868408203125,-0.9643707275390625,0.140838623046875,-0.1389243308962015,-0.3589373896114626,-0.6444708690453982
3099.27474999995,0.21795654296875,-0.9938812255859375,0.1613616943359375,-0.1246852074958748,-0.3632152252704569,-0.7764446158126019
3129.36575000003,0.2020263671875,-1.011459350585938,0.098419189453125,-0.1200036366156245,-0.4196169824167,-0.9071011631046524
3159.45775,0.261993408203125,-1.040237426757812,0.1014862060546875,-0.1768512069283469,-0.1280634273386403,-1.119249907120909
3189.52674999991,0.300689697265625,-1.039459228515625,0.1241912841796875,-0.193186770738784,-0.05518735568916702,-1.297755469718414
3219.64274999982,0.2397308349609375,-1.155181884765625,0.157501220703125,-0.1855046162583414,-0.3088012515618489,-1.484688072953256
3249.72375000016,0.3057403564453125,-1.218307495117188,0.024932861328125,-0.1855046162583414,-0.3088012515618489,-1.484688072953256
3279.82474999999,0.2974395751953125,-1.419479370117188,-0.03192138671875,-0.08449517716938003,-0.688694789475036,-1.793695719499586
3309.91875000018,0.0879974365234375,-1.11102294921875,0.2824554443359375,-0.150603623856744,-1.816310750844321,-2.063100030107565
3340.01274999991,0.6412353515625,-1.348617553710938,0.3146514892578125,0.4769151595858639,-2.305273518569485,-1.859146099081591
3370.10275000011,0.975555419921875,-1.192825317382812,0.0177764892578125,0.4960979089177046,0.01031069447635078,-2.438139956934083
3400.17775000024,0.42816162109375,-0.7607269287109375,0.043060302734375,0.3703682096423007,-0.8331323964599195,-2.163227430243492
3430.26874999987,0.4007415771484375,-0.763519287109375,-0.081756591796875,0.4514068700328669,-0.0940631160177077,-1.943483617114438
3460.35974999995,0.6063079833984375,-0.660797119140625,-0.2086029052734375,0.5715897373898537,-0.1592205478798044,-1.391328297779438
3490.44175000017,0.502105712890625,-0.726287841796875,-0.2197265625,0.5715897373898537,-0.1592205478798044,-1.391328297779438
3520.53475000002,0.4251708984375,-0.69744873046875,-0.289520263671875,0.6834678032035375,-1.325396951304564,-0.6267304877599443
3550.62575000011,0.4135589599609375,-0.7066650390625,-0.3230438232421875,0.5831989892137271,-1.213598247691365,0.04406732655754116
3580.71675000019,0.3571319580078125,-0.6664276123046875,-0.1949310302734375,0.3927004132792692,-1.070608335075048,0.6596351746084184
3610.80674999994,0.4041900634765625,-0.6251678466796875,-0.0811614990234375,0.196851014082624,-0.6505665784644806,1.341615868659256
3640.89375000003,0.5049896240234375,-0.65936279296875,0.100250244140625,-0.0262254788345553,-0.4052521578129216,1.994646403764277
3670.99774999997,0.5382232666015625,-0.6212310791015625,0.1873931884765625,-0.1375940819317069,-0.3966152600816857,2.418828044289373
3701.08274999984,0.5443267822265625,-0.6152496337890625,0.17266845703125,-0.1375940819317069,-0.3966152600816857,2.418828044289373
3731.16775000017,0.6449127197265625,-0.683807373046875,0.2316436767578125,-0.2241470836753912,0.1740855141362996,2.651110818778847
3761.25975000014,0.61279296875,-0.697052001953125,0.2323760986328125,-0.3257413529397339,0.5455253798012483,2.717253353928164
3791.36375000007,0.6136474609375,-0.73223876953125,0.2316741943359375,-0.3342741210723478,0.6740375497835669,2.700402734762906
3821.45475000016,0.5050201416015625,-0.7659149169921875,0.1732940673828125,-0.2859374809713006,0.8343625105674272,2.655027796110136
3851.5447499999,0.533172607421875,-0.85345458984375,0.1774444580078125,-0.2254807947493028,1.06241511998142,2.566706988034857
3881.63574999999,0.443145751953125,-0.8400421142578125,0.1575775146484375,-0.1535770432138174,0.7321575784651292,2.47557255026791
3911.72675000007,0.393798828125,-0.840179443359375,0.080169677734375,-0.1535770432138174,0.7321575784651292,2.47557255026791
3941.82675000002,0.3482513427734375,-0.913360595703125,-0.1030731201171875,-0.01666446420506183,0.4608294002856763,2.290817347540317
3971.93675000017,0.228790283203125,-1.001617431640625,-0.07177734375,-0.06426394131637507,0.3298823021186981,2.164483377013574
4002.02775000025,0.3104400634765625,-0.97808837890625,-0.064697265625,-0.1741720668717272,0.4933271561195862,2.035826331067955
4032.11575000023,0.1289215087890625,-0.8948211669921875,0.037628173828125,-0.1783748013879813,0.5109034866818911,1.728845882743393
4062.20875000008,0.1554718017578125,-1.043777465820312,-0.0345611572265625,-0.0554153222784778,0.3776977615944168,1.533530447345309
4092.29774999994,0.3017578125,-1.007781982421875,-0.07110595703125,-0.09544689452011287,-0.1714367341161068,1.251123252715017
4122.38875000003,0.0174102783203125,-0.9622039794921875,-0.1470184326171875,-0.09030060202964375,-0.2796159354917795,0.7851899042002041
4152.47875000023,-0.1046905517578125,-0.946563720703125,-0.1070404052734375,-0.09030060202964375,-0.2796159354917795,0.7851899042002041
4182.59975000001,-0.05108642578125,-1.008148193359375,-0.1999969482421875,0.1802949405339284,0.2736517862305471,0.4823168492248716
4212.67175000003,-0.1414794921875,-0.898529052734375,-0.1850433349609375,0.1987138952651344,0.38802390240509,0.04599199307734142
4242.78074999984,0.009063720703125,-0.88043212890625,-0.0844879150390625,0.05208503933533371,0.6696148381612723,-0.05918369522093992
4272.86074999984,-0.0367431640625,-0.9387359619140625,-0.0040740966796875,0.1176848222544925,0.5430134862610855,-0.08558467637133144
4302.94774999993,0.0142974853515625,-0.9322357177734375,-0.052337646484375,0.214529343714679,0.248643904646376,-0.2161703835783858
4333.05974999985,0.017333984375,-0.9951019287109375,-0.0264129638671875,0.214529343714679,0.248643904646376,-0.2161703835783858
4363.13074999998,-0.02606201171875,-1.000503540039062,-0.0152740478515625,0.317981167839352,-0.09918570637447512,-0.7565534656308001
4393.21074999998,-0.2173919677734375,-1.0343017578125,-0.0342254638671875,0.317981167839352,-0.09918570637447512,-0.7565534656308001
4423.3227499999,-2.90496826171875,-1.9483642578125,-1.26434326171875,0.2427862818287467,-0.3478471878840457,-0.586181463318507
4453.39675000014,1.234375,-1.123748779296875,0.866546630859375,0.09429880577417972,-1.394655917561492,0.5400230226730356
4483.51675000004,-0.086456298828125,-0.8654632568359375,-0.33831787109375,0.8148383439838383,2.400843717448069,-2.17893475435278
4513.61475000022,0.092559814453125,-0.805450439453125,0.264404296875,0.7778582217192159,0.3702558242442994,-0.9722032012160754
4543.71175000006,0.0830078125,-1.178466796875,0.1767425537109375,0.7778582217192159,0.3702558242442994,-0.9722032012160754
4573.80474999991,-0.2779998779296875,-0.8692779541015625,0.2331085205078125,0.3846912226169649,-0.520947865049234,-0.3528059938337732
4603.89574999999,-0.114105224609375,-0.9983978271484375,0.06610107421875,0.3846912226169649,-0.520947865049234,-0.3528059938337732
4633.99274999983,0.0521392822265625,-0.9945068359375,0.0575103759765625,0.4774299486245762,0.6299643642716276,-0.4775426003386865
4664.08475000026,0.0218353271484375,-0.975494384765625,0.1185455322265625,0.5245599104357085,0.6850087082102574,-0.3976158097032285
4694.17574999989,0.0155181884765625,-1.000411987304688,0.0887908935546875,0.4103433228688261,0.1989466555444074,-0.244174055072787
4724.26774999985,-0.012939453125,-0.9772796630859375,0.145904541015625,0.3769840344222756,-0.0006649913241927858,-0.1963066639558118
4754.35874999994,-0.0276947021484375,-0.9848785400390625,0.11541748046875,0.3769840344222756,-0.0006649913241927858,-0.1963066639558118
4784.45275000013,0.0275115966796875,-0.981048583984375,0.1361083984375,0.3309291907432083,-0.0399918911413929,-0.1793710899517799
4814.5447500001,0.0107574462890625,-0.984954833984375,0.0931549072265625,0.3138167828427951,-0.08357478869664864,-0.1717733576778928
4844.63774999995,-0.0778045654296875,-0.9588623046875,0.1276397705078125,0.2839931070594338,-0.2558189932552675,-0.1581427665866493
4874.72674999981,0.035736083984375,-1.042083740234375,0.221221923828125,0.3894569493876617,-0.2910124007445556,-0.3275712109247274
4904.79874999983,-0.0975341796875,-0.8726959228515625,0.176177978515625,0.2432941466486248,-0.6100162224424981,-0.4023535732824794
4934.90174999988,-0.109954833984375,-0.9015655517578125,0.177459716796875,0.2747492749157687,-0.2605876495031634,-0.5896755306686908
4965.00174999983,0.057220458984375,-0.96856689453125,0.2216949462890625,0.2781115157919938,0.1455425525211574,-0.853213696343553
4995.07475000019,0.0024871826171875,-0.969482421875,0.2479248046875,0.2781115157919938,0.1455425525211574,-0.853213696343553
5025.15975000006,0.087921142578125,-0.95684814453125,0.217010498046875,0.2245636020698795,0.1019596549659016,-0.8341787524522117
5055.26175000023,0.1737518310546875,-0.9998321533203125,0.1127777099609375,0.1764964738711484,0.2805254050040416,-0.9549933216197654
5085.3467500001,0.1164398193359375,-0.9485626220703125,0.1915740966796875,0.1751899270403555,-0.003997937428426953,-0.8978235088151434
5115.43775000018,0.1566619873046875,-0.9402313232421875,0.2712249755859375,0.2140646221044601,-0.08178328023135234,-0.9279329417834702
5145.54674999999,0.21929931640625,-0.929107666015625,0.2326507568359375,0.1916823510389982,-0.00751544059620361,-0.9413555399935786
5175.64475000017,0.25762939453125,-0.95428466796875,0.213958740234375,0.1916823510389982,-0.00751544059620361,-0.9413555399935786
5205.7427499999,0.2558135986328125,-0.941558837890625,0.218994140625,0.1816813821974236,0.02038729709288359,-0.9085797501418643
5235.83774999997,0.286102294921875,-0.9562530517578125,0.2314300537109375,0.1816813821974236,0.02038729709288359,-0.9085797501418643
5265.93374999993,0.3038787841796875,-0.958404541015625,0.2571563720703125,0.1647261008013252,-0.05731495508403132,-0.911421609341088
5296.02974999989,0.3527679443359375,-0.98199462890625,0.21759033203125,0.1230311181428266,-0.05739298570397064,-0.9074825277727517
5326.1227500002,0.31195068359375,-0.9724273681640625,0.278045654296875,0.1092338131673441,-0.1807311663204834,-0.9004259498323688
5356.21774999981,0.4201507568359375,-0.9262237548828125,0.235809326171875,0.09196640929148832,0.04564471687119509,-0.9115635558271892
5386.30975000024,0.38421630859375,-0.96966552734375,0.2596588134765625,0.1003433825003326,-0.2325352421608137,-0.861816239296727
5416.4017500002,0.43792724609375,-0.9258575439453125,0.2283172607421875,0.08001387600310368,-0.3111738617770005,-0.8486972414508877
5446.49574999994,0.42510986328125,-1.004989624023438,0.16668701171875,0.08001387600310368,-0.3111738617770005,-0.8486972414508877
5476.58774999991,0.3885955810546875,-1.064453125,0.222015380859375,0.03978016983473159,-0.4974707684596404,-0.8584984732107063
5506.67874999999,0.4202117919921875,-1.137008666992188,0.2746734619140625,-0.09731297149593139,-0.3655846396923004,-0.9381600130015925
5536.75675000022,0.3221893310546875,-1.019515991210938,0.2788543701171875,-0.1699347112613021,-0.637742658867422,-0.9050590511807797
5566.86175000004,0.3162689208984375,-1.0721435546875,0.264617919921875,-0.1378151243021835,-0.8491265430186085,-0.8864422235805807
5596.9547499999,0.2368621826171875,-1.086898803710938,0.2107391357421875,-0.1378151243021835,-0.8491265430186085,-0.8864422235805807
5627.04574999998,0.3556060791015625,-1.047210693359375,0.165191650390625,0.005695968939461475,-1.312240669203464,-0.8664541343351
5657.13975000017,0.2752227783203125,-0.957122802734375,0.144012451171875,0.221151293765161,-1.796716276807953,-0.8798682104297201
5687.23175000014,0.574798583984375,-1.289627075195312,0.2313232421875,0.4581076496516153,-1.071004613445252,-1.651794773453003
5717.32574999987,0.4750823974609375,-1.126754760742188,0.1606597900390625,0.5390360551730522,-0.5918955417533809,-1.986570634074721
5777.38208333312,0.3292083740234375,-0.607757568359375,0.11090087890625,0.8319973572033278,-2.343609722461176,-1.602587812307718
5807.49308333316,0.1514129638671875,-0.359344482421875,0.0668487548828125,0.8689681584041348,-2.632384535257847,-0.4349378818518169
5837.5830833329,0.00408935546875,-0.427215576171875,-0.0452117919921875,1.009282925705467,-1.415967597868742,0.3725181795903217
5867.670083333,0.1767578125,-0.555206298828125,-0.0776519775390625,1.009282925705467,-1.415967597868742,0.3725181795903217
5897.77008333294,0.422943115234375,-0.744781494140625,-0.1441192626953125,1.020536645523815,-0.08592902310027868,0.9513317414370154
5927.85208333316,0.316558837890625,-0.7340545654296875,-0.124237060546875,0.7500817178657985,-0.4217544355075977,1.811121315144192
5957.95808333287,0.2460174560546875,-0.7800140380859375,-0.036041259765625,0.4774608412932211,-0.5754704957303173,2.452412103531927
5988.04508333296,0.3521881103515625,-0.84918212890625,-0.00830078125,0.3712808749478709,0.4006688575768953,2.970734358062451
6018.13208333306,0.4993743896484375,-0.939117431640625,0.0291900634765625,0.1878732317318579,1.188410869049722,3.244591740329153
6048.232083333,0.6002044677734375,-1.141448974609375,0.0350189208984375,-0.01451103214762375,1.10627312207728,3.403348631863174
6078.312083333,0.5452423095703125,-1.144973754882812,0.0079498291015625,-0.01451103214762375,1.10627312207728,3.403348631863174
6108.40708333308,0.5426025390625,-1.06622314453125,-0.024993896484375,-0.09269025647577185,1.029529607892794,3.532137237966643
6138.49908333304,0.502105712890625,-1.112518310546875,-0.1080474853515625,-0.06745813672781611,1.286370456058325,3.338953396705058
6168.60408333287,0.4003143310546875,-1.084381103515625,-0.1064300537109375,-0.1997677081084788,1.243853621887428,3.133635394568746
6198.69308333318,0.274444580078125,-1.030059814453125,-0.0903778076171875,-0.4369128821162196,1.142761891120783,2.95131032633585
6228.78408333281,0.2370147705078125,-1.052398681640625,0.02703857421875,-0.6462043205989308,1.227587832897551,2.738207371701017
6258.8750833329,0.260101318359375,-1.093109130859375,0.112335205078125,-0.6967029148729043,1.428905767076565,2.542653050753153
6288.96308333287,0.2476959228515625,-1.140487670898438,0.191009521484375,-0.6967029148729043,1.428905767076565,2.542653050753153
6319.05108333285,0.2171478271484375,-0.9980621337890625,0.13165283203125,-0.5034780609305322,0.9121409291515183,2.116955006303366
6349.14508333304,0.2619781494140625,-0.83050537109375,0.1943511962890625,-0.3452804332254273,0.3150165369138758,1.382519093525674
6379.23908333323,0.1075592041015625,-0.9031524658203125,0.1329803466796875,-0.1714362014838888,0.3258931531218685,0.6081797065547795
6409.3310833332,0.2703857421875,-0.8313751220703125,0.1114959716796875,0.07184090093375951,0.7372362266639103,-0.1169854761522377
6439.42208333283,0.600067138671875,-0.6556243896484375,0.27911376953125,0.2081635897610626,0.9512475855465689,-1.002622626135288
6469.51008333281,0.58026123046875,-0.6135406494140625,0.27978515625,0.3763957421374771,1.01841437245113,-1.659096894845891
6499.59808333324,-6.965713500976562,-2.294631958007812,-1.242401123046875,0.3763957421374771,1.01841437245113,-1.659096894845891
6529.69008333321,4.818344116210938,-1.086395263671875,0.1902618408203125,-1.832539521895045,-1.602854661048943,1.67171122366516
6559.77508333308,-0.1625823974609375,-0.9672393798828125,0.0302734375,1.305582766478266,6.87872565120085,-4.369102988499622
6589.86708333305,-0.0122222900390625,-0.9355926513671875,0.660247802734375,1.326981532153161,-1.369792911940621,-1.171218566316607
6619.9600833329,0.0197906494140625,-1.10089111328125,0.0991058349609375,0.810526419862891,-0.2033922703520766,-1.159072421216973
6650.02008333295,0.0340576171875,-0.9417724609375,0.0244293212890625,0.6167614768514508,0.08051321870749355,-0.8533796112794649
6680.13708333319,0.04656982421875,-1.011199951171875,0.0273590087890625,0.5641560558391155,0.05806436861477961,-0.725797683465911
6710.22508333317,0.0294647216796875,-0.958251953125,0.06134033203125,0.5641560558391155,0.05806436861477961,-0.725797683465911
6740.31408333303,-0.004913330078125,-0.979217529296875,0.1923828125,0.5538371055633856,-0.2964415209427911,-0.5169720318578547
6770.3990833329,-0.0799407958984375,-0.9373321533203125,0.2667236328125,0.5015270291159402,-0.161896492143116,-0.4361818443969929
6800.48708333288,0.0641632080078125,-1.009506225585938,0.1231536865234375,0.3647065954809013,0.1756543823344653,-0.4670526751209734
6830.57208333321,0.096343994140625,-1.0050048828125,0.005218505859375,0.3421656000144706,0.3890002172607131,-0.3833282167710623
6860.65808333296,0.1190948486328125,-0.9958343505859375,0.045623779296875,0.3787947176474205,0.2101577647853139,-0.2913666011695362
6890.74308333284,0.072540283203125,-0.9795989990234375,0.0819549560546875,0.4086753850781095,-0.2752361007630352,-0.2295032332597585
6920.80308333288,0.0417022705078125,-0.97381591796875,0.1444091796875,0.3940772675628402,-0.4200353650239515,-0.2446923062209165
6950.92008333313,0.12060546875,-0.9983062744140625,0.05218505859375,0.3940772675628402,-0.4200353650239515,-0.2446923062209165
6980.98308333283,-0.00152587890625,-0.9609832763671875,0.256195068359375,0.4139447156109403,-0.5968420971620941,-0.2828532741128799
7011.08708333322,-0.0135650634765625,-0.9019317626953125,0.36248779296875,0.3791446570146569,-0.6206595457389997,-0.3213287613295817
7041.18808333305,0.1035614013671875,-0.949249267578125,0.2212371826171875,0.2899380815608176,-0.136655051331345,-0.5274734086682551
7071.26008333307,0.083587646484375,-0.977935791015625,0.2165069580078125,0.2690929870765494,-0.1721770928991489,-0.5710946557432081
7101.35208333304,0.1179351806640625,-0.9791717529296875,0.2172393798828125,0.2327901066771343,-0.1625058234005261,-0.6726503091717446
7131.43508333314,0.1779937744140625,-0.969482421875,0.18853759765625,0.2245095398997509,-0.2445378428776918,-0.6871173991613821
7161.54008333297,0.20184326171875,-0.98101806640625,0.2223052978515625,0.2245095398997509,-0.2445378428776918,-0.6871173991613821
7191.63008333317,0.230621337890625,-0.9290924072265625,0.2421722412109375,0.2037547265764364,-0.2941567950436122,-0.6379591738640454
7221.74508333319,0.1877288818359375,-0.930511474609375,0.2374267578125,0.1749795373142392,-0.2923727434293681,-0.5444372121798419
7251.80808333289,0.211669921875,-0.918792724609375,0.242462158203125,0.1406284876777432,-0.1690939513051641,-0.5433431856040374
7281.91608333282,0.2315216064453125,-0.9990692138671875,0.2258758544921875,0.1496198521500687,-0.1248061150093644,-0.5904284063088563
7311.99108333294,0.21368408203125,-0.993927001953125,0.2375335693359375,0.1100237067466616,-0.1533173850075347,-0.6789859694050432
7342.08208333303,0.2703857421875,-0.98406982421875,0.213653564453125,0.1227610736082926,-0.1583174699541585,-0.7704812654996964
7372.17208333323,0.3023834228515625,-0.9800262451171875,0.2088775634765625,0.1227610736082926,-0.1583174699541585,-0.7704812654996964
7402.26208333297,0.3240509033203125,-0.9395904541015625,0.1894378662109375,0.1149074115536489,-0.2066919269426848,-0.8288372502538398
7432.35308333306,0.3342742919921875,-0.89801025390625,0.23529052734375,0.09155255405809,-0.3364730931844263,-0.8260760848356457
7462.44208333292,0.3742523193359375,-0.8625640869140625,0.2813720703125,0.05223923636244929,-0.1582652719967929,-0.8669148612036837
7492.53908333321,0.3704071044921875,-0.8551788330078125,0.3028106689453125,0.0187710246273145,-0.1155755986711498,-0.8386749673205924
7522.62408333308,0.438140869140625,-0.89471435546875,0.26177978515625,0.02614212189243582,-0.1600911352401513,-0.8234238427060356
7552.71408333283,0.411407470703125,-0.964111328125,0.190399169921875,0.1163798733203537,-0.5937032955013267,-0.8189486668102666
7582.79908333316,-0.004669189453125,-1.755905151367188,0.2150421142578125,0.1163798733203537,-0.5937032955013267,-0.8189486668102666
7612.86408333308,0.191864013671875,-1.243057250976562,0.1288604736328125,0.3051772219504691,-1.900098059795957,-1.431518594422042
7642.97808333322,0.1112823486328125,-1.2479248046875,0.14288330078125,0.3051772219504691,-1.900098059795957,-1.431518594422042
7673.06508333286,0.402191162109375,-0.94610595703125,0.272369384765625,0.6079754420991703,-2.897267597283199,-1.360079830812884
7703.13108333312,0.7558746337890625,-1.274459838867188,0.1367034912109375,0.6896386137653602,0.02190236943702967,-2.26198569926301
7733.24708333303,0.687164306640625,-1.148757934570312,0.080108642578125,0.4406759287365016,-0.6598399716962455,-2.565425474918311
7763.31708333282,0.2773590087890625,-0.8690643310546875,0.0700836181640625,0.2540160331972838,-2.108309586456642,-2.012327130241314
7793.43008333308,0.1558990478515625,-0.802734375,0.09539794921875,0.2540160331972838,-2.108309586456642,-2.012327130241314
7823.49708333322,0.1143646240234375,-0.6560211181640625,-0.005126953125,0.01670148214421393,-0.9633870727434771,-0.7407004666098854
7853.61108333291,0.239898681640625,-0.5671234130859375,-0.05316162109375,0.01670148214421393,-0.9633870727434771,-0.7407004666098854
7883.70208333299,0.2769775390625,-0.457763671875,-0.075286865234375,-0.09190968396026963,-0.341641756228052,0.2464678357196723
7913.76708333291,0.3085784912109375,-0.55792236328125,-0.006439208984375,-0.2538136329544378,-0.3235381197699114,1.297725109681987
7943.858083333,0.4278106689453125,-0.6932220458984375,-0.024566650390625,-0.3554904602125731,-0.08314442186449184,2.083837799199904
7973.97008333292,0.5142059326171875,-0.8684539794921875,0.069061279296875,-0.3951345425156016,0.232140029055046,2.653684763972409
8004.05908333323,0.5758819580078125,-0.9138946533203125,0.11859130859375,-0.3951345425156016,0.232140029055046,2.653684763972409
8034.12808333314,0.7049102783203125,-1.00897216796875,0.1617889404296875,-0.329507062721106,0.5529673171513657,2.967548951082608
8064.23508333319,0.6882476806640625,-1.017578125,0.170867919921875,-0.2850866010030203,0.384089081894498,3.227843386549754
8094.32108333294,0.6635894775390625,-0.975372314453125,0.15545654296875,-0.2320617321189976,0.1327529877021608,3.293749965626489
8124.39708333295,0.688079833984375,-0.9771575927734375,0.1464691162109375,-0.1433406509318799,0.6207628763892948,3.127313582773116
8154.49908333312,0.6991729736328125,-0.9453125,0.17950439453125,-0.1194289264523854,0.902449419628611,2.855123871981022
8184.56908333292,0.6283721923828125,-0.8475799560546875,0.1413421630859375,-0.04685086252889197,0.8618945362327753,2.566148256838159
8214.65608333301,0.540802001953125,-0.82781982421875,0.092193603515625,-0.04685086252889197,0.8618945362327753,2.566148256838159
8244.74208333322,0.4758758544921875,-0.7165679931640625,0.123992919921875,-0.111147827042784,1.354203299551515,1.829570629911825
8274.84908333281,0.4692840576171875,-0.694091796875,0.078155517578125,-0.111147827042784,1.354203299551515,1.829570629911825
8304.94008333289,0.3592681884765625,-0.709564208984375,0.0772552490234375,-0.06619020573282938,1.310055012896836,1.626701670713949
8335.02908333321,0.2334747314453125,-0.8066253662109375,0.0348663330078125,0.05277426542544621,0.9681836921828187,1.530677402869507
8365.10208333311,0.1342926025390625,-0.9271087646484375,-0.08807373046875,0.07022782426149853,0.6356408921351315,1.438069970703637
8395.19108333297,-0.125701904296875,-0.9297332763671875,-0.1058349609375,-0.07856884479562669,0.3639832809288358,1.30437369134337
8425.28008333284,-0.070648193359375,-1.1693115234375,0.00518798828125,-0.07856884479562669,0.3639832809288358,1.30437369134337
8455.37008333304,-0.157440185546875,-1.020782470703125,-0.105804443359375,-0.08793225287223629,1.35600599329339,0.6620501290849022
8485.45608333325,-0.1112518310546875,-1.016326904296875,-0.1505584716796875,-0.08793225287223629,1.35600599329339,0.6620501290849022
8515.56108333307,-0.163848876953125,-0.95855712890625,-0.0697784423828125,-0.05936825228448241,0.7975166116217448,0.2587761673296915
8545.64808333316,-0.2243804931640625,-0.8973236083984375,-0.1389617919921875,0.09574729909107381,0.1556559067607333,0.01574993468672862
8575.73508333326,-0.1773529052734375,-0.9371337890625,-0.0057830810546875,0.1890572731525071,0.01260740460043511,-0.2021072951261134
8605.82808333311,0.017333984375,-0.79217529296875,0.0494842529296875,0.3125994519085199,-0.3333135188671562,-0.5250030604410977
8635.9150833332,0.0469818115234375,-0.7297210693359375,-0.0049591064453125,0.5521348129946069,-0.8317832390516854,-0.6904966842685837
8666.00408333306,-2.023605346679688,-2.601699829101562,-0.6732025146484375,0.5521348129946069,-0.8317832390516854,-0.6904966842685837
8696.09008333282,1.037811279296875,-0.100616455078125,0.3589630126953125,-0.4079331620823044,-0.2059363881414293,-0.5761290954678938
8726.16408333306,-0.1118316650390625,-1.025604248046875,-0.0750579833984375,1.228279455832645,2.14180895717653,-2.754760515772514
8756.26908333288,0.587677001953125,-1.554916381835938,0.390350341796875,0.8467693791377793,0.3976312560375509,-1.524788088434906
8786.35908333308,0.0017547607421875,-0.7839813232421875,0.1530609130859375,0.9157918566899079,-1.161393632423086,-1.296098450888166
8816.44908333283,0.124847412109375,-1.067901611328125,0.1749725341796875,0.7249553256131189,-0.2432552644967097,-0.9432080348478377
8846.53908333303,0.1619110107421875,-1.019729614257812,0.1847076416015625,0.7249553256131189,-0.2432552644967097,-0.9432080348478377
8876.63008333311,0.1900787353515625,-1.00347900390625,0.14642333984375,0.3743688102318178,-0.02939251000287753,-0.4465186378520264
8906.71908333297,0.1117095947265625,-0.980438232421875,0.1929168701171875,0.3743688102318178,-0.02939251000287753,-0.4465186378520264
8936.80508333318,0.0868682861328125,-0.9716949462890625,0.173797607421875,0.2860011305213535,-0.2450885845911202,-0.1475401896548258
8966.89408333305,0.094573974609375,-0.993896484375,0.1648712158203125,0.2628470753719866,-0.1574623289281341,-0.09073522991954469
8996.98208333302,0.030364990234375,-0.950225830078125,0.224822998046875,0.2561486925982193,-0.4642683402012956,-0.02601002910236789
9027.06808333323,0.0492401123046875,-0.9800872802734375,0.2243499755859375,0.2151133749417334,-0.4064388623946609,-0.09061405608994608
9057.1600833332,0.0072479248046875,-0.9364013671875,0.231292724609375,0.1443561142555271,-0.3828288740666725,-0.1680193658053172
9087.24508333307,0.0866851806640625,-0.953216552734375,0.1765899658203125,0.1443561142555271,-0.3828288740666725,-0.1680193658053172
9117.33208333317,0.031402587890625,-0.96942138671875,0.172637939453125,0.1489500671359138,-0.09198877984464499,-0.2337264741164062
9147.41908333281,0.0892333984375,-0.9284515380859375,0.21405029296875,0.1881030625339317,-0.1636200900006153,-0.2905074654018766
9177.5060833329,0.0986175537109375,-0.955047607421875,0.207733154296875,0.2178777361532356,-0.05592531762722797,-0.3910985218835865
9207.59108333323,0.044677734375,-0.9535369873046875,0.257537841796875,0.2331565576431292,-0.1166973221222911,-0.4140392578296381
9237.68008333309,0.1434783935546875,-0.9810943603515625,0.217376708984375,0.1842390821083358,0.0616934582322306,-0.5551021070811732
9267.76308333319,0.1417694091796875,-0.95294189453125,0.2144927978515625,0.1651596634267901,-0.08932588507067475,-0.5500442315388947
9297.82608333289,0.126220703125,-0.92657470703125,0.2274017333984375,0.1743422428653833,-0.09724426193980736,-0.6085211238065276
9327.92108333297,0.1605072021484375,-0.9369354248046875,0.2510833740234375,0.1743422428653833,-0.09724426193980736,-0.6085211238065276
9358.02808333301,0.1973724365234375,-0.93707275390625,0.2224884033203125,0.1686502686675569,-0.03833620389169064,-0.6824467472416011
9388.10208333325,0.2053070068359375,-0.969512939453125,0.2340240478515625,0.1776714605440913,-0.1183665914935528,-0.7170350845312232
9418.19008333323,0.2785186767578125,-0.9271240234375,0.1861572265625,0.1865461785606714,-0.08142295453586461,-0.7523557911206171
9448.2750833331,0.2319488525390625,-0.9534759521484375,0.268402099609375,0.1787590955332797,-0.06101248794149733,-0.7259084709672583
9478.37608333293,0.2938079833984375,-0.9833984375,0.2692413330078125,0.1615795759733966,-0.118137825955915,-0.8098518411587738
9508.46208333314,0.2808380126953125,-0.9399871826171875,0.3783111572265625,0.1483734927599116,-0.3024972829455224,-0.8503526623844809
9538.54908333324,0.32598876953125,-0.9537353515625,0.1828155517578125,0.1483734927599116,-0.3024972829455224,-0.8503526623844809
9568.63708333321,0.4188232421875,-0.9670562744140625,0.219024658203125,0.1449225686193869,-0.4189538553052703,-0.9125105759108213
9598.72508333319,0.38116455078125,-0.948516845703125,0.2595672607421875,0.1007151597885076,-0.3741214025665494,-0.8790402336468145
9628.81008333306,0.352386474609375,-0.96954345703125,0.2441558837890625,0.0545415391248228,-0.4739081843990554,-0.8436156637749075
9658.89908333293,0.32843017578125,-0.970703125,0.2193756103515625,0.01966025411529196,-0.5548131541028996,-0.9669676928290886
9688.9870833329,0.3387451171875,-1.598297119140625,0.2148590087890625,-0.0522493563745916,-0.5158364599690449,-1.237317159307938
9719.07508333288,0.2382965087890625,-1.265045166015625,0.0998382568359375,-0.02141288042867311,-0.7019741096184982,-1.500136271488478
9749.16108333309,0.25433349609375,-1.2783203125,0.177886962890625,-0.02141288042867311,-0.7019741096184982,-1.500136271488478
9779.24608333296,0.3860015869140625,-1.317855834960938,0.377655029296875,0.2325757222093829,-1.561207348973957,-1.574833679007457
9809.33108333284,0.3347015380859375,-0.9204254150390625,0.547698974609375,0.4890495867767009,-2.540553947181952,-1.269475095786753
9839.39608333321,0.647308349609375,-1.18243408203125,0.3119659423828125,0.4388274286238776,-0.7550519754082133,-2.381594122772867
9869.50808333313,0.3976287841796875,-1.051834106445312,0.1447601318359375,0.529922185290583,-0.2500117041822407,-2.671706108752867
9899.59708333299,0.020233154296875,-0.810089111328125,0.1829986572265625,0.4946073376555873,-1.103988129861992,-1.665156118958039
9929.68508333297,0.1877593994140625,-0.563995361328125,0.12786865234375,0.4756626749251996,-0.9927396353300034,-0.7103257827969867
9959.77208333306,0.1206207275390625,-0.490203857421875,0.048492431640625,0.4756626749251996,-0.9927396353300034,-0.7103257827969867
9989.86108333293,0.30133056640625,-0.5449981689453125,-0.0914154052734375,0.4714314445852817,-0.8804149574015133,0.3660685360623678
10019.948083333,0.4325408935546875,-0.65472412109375,-0.124298095703125,0.3596018483034374,-0.5516597050561368,1.291118872281936
10050.036083333,0.5807647705078125,-0.6820831298828125,-0.0032806396484375,0.1496001447580021,-0.08703956127484172,2.092037139564039
10080.1210833329,0.563507080078125,-0.7237396240234375,0.0696868896484375,-0.08149246304031568,0.1025924220409045,2.70273726177447
10110.2070833331,0.679962158203125,-0.7942352294921875,0.1410064697265625,-0.2523614112120176,0.6145928647757992,2.936864541634933
10140.2940833332,0.7154998779296875,-0.8043212890625,0.1515045166015625,-0.3728175188968466,0.6521176034833427,3.010275376031294
10170.3590833331,0.6735076904296875,-0.869476318359375,0.172637939453125,-0.3728175188968466,0.6521176034833427,3.010275376031294
10200.4690833332,0.625579833984375,-0.819427490234375,0.158203125,-0.3940793980917122,0.8580779600745828,2.975795429398038
10230.5530833332,0.4628753662109375,-0.77459716796875,0.157928466796875,-0.3760617817367811,0.6629793059892309,2.913230052224915
10260.6340833331,0.386383056640625,-0.8080902099609375,0.192047119140625,-0.3063090654137527,1.176231700752572,2.719853664416518
10290.7080833329,0.4123687744140625,-0.84326171875,0.180877685546875,-0.2661778909473487,1.687902976776733,2.599770931916518
10320.7970833332,0.3450927734375,-0.894927978515625,0.1887664794921875,-0.3305933661297493,1.422839086113364,2.464556384418797
10350.8850833332,0.29742431640625,-0.8944549560546875,0.1446075439453125,-0.3361777486195364,1.072873353582161,2.331393802540982
10380.9490833332,0.16986083984375,-0.96697998046875,0.2324066162109375,-0.3042784050825673,0.8026021840393601,2.17884607108848
10411.0320833329,0.388885498046875,-1.002349853515625,0.2342376708984375,-0.3042784050825673,0.8026021840393601,2.17884607108848
10441.1250833332,0.0221710205078125,-1.135543823242188,0.130035400390625,-0.2330034258804496,0.9251994732406129,1.692805057395242
10471.2160833328,-0.065216064453125,-1.006011962890625,0.0675506591796875,-0.200949885316365,0.4980089933159455,1.34626947634806
10501.3170833331,-0.1116485595703125,-0.9779510498046875,0.0167236328125,-0.01269981629026086,0.7254314988160251,0.8945725880724836
10531.3800833328,0.2001953125,-0.9482574462890625,0.04156494140625,0.04252242680918619,0.6255509737131483,0.6377956557731146
10561.4870833328,-0.2556610107421875,-0.9895477294921875,0.0004730224609375,0.03270175397340999,0.3930487547498516,0.1885046672263157
10591.5570833331,0.119415283203125,-0.817108154296875,-0.115936279296875,0.1361759486512397,0.8770194270116624,-0.4561611452108764
10621.6510833328,0.253631591796875,-0.7871856689453125,0.0403289794921875,0.2164252480947064,0.6952530899754652,-0.8454085038207488
10651.7330833331,0.1363677978515625,-0.7320098876953125,0.071929931640625,0.2164252480947064,0.6952530899754652,-0.8454085038207488
10681.8200833332,0.1324310302734375,-0.578399658203125,0.059051513671875,0.2339674901950583,0.1183002787824098,-0.9162445940752214
10711.9120833331,-3.23553466796875,-2.357864379882812,-0.64599609375,0.2339674901950583,0.1183002787824098,-0.9162445940752214
10771.9542083332,0.354156494140625,-0.87628173828125,0.3564910888671875,1.252206094014243,-1.162596315971366,-1.792096224948884
10802.0452083329,0.061248779296875,-1.039093017578125,0.1806488037109375,0.9071469694754017,-0.7323762239906247,-0.742703430065734
10832.1312083331,0.0561981201171875,-1.069992065429688,0.2628173828125,0.5873716300096633,-1.004213065938283,-0.4696713614208484
10862.2202083329,-0.1288299560546875,-0.967132568359375,0.267181396484375,0.5873716300096633,-1.004213065938283,-0.4696713614208484
10892.307208333,0.1296844482421875,-0.9863128662109375,0.1328887939453125,0.3962389554196575,-0.09985336085975798,-0.4853288844177512
10922.360208333,-0.0619964599609375,-0.976776123046875,0.2255706787109375,0.3078552967426528,-0.07438395345867618,-0.2144933910399629
10952.4802083329,0.0099334716796875,-0.9452362060546875,0.262969970703125,0.1602993944373955,-0.1670686172961589,-0.1873565784803825
10982.5732083332,-0.067047119140625,-0.940704345703125,0.1875457763671875,0.1113768588965308,-0.209857093898244,-0.2013184668112319
11012.662208333,-0.066864013671875,-0.935150146484375,0.2073211669921875,0.1820678068715942,0.1420239840889447,-0.362781928961101
11042.7532083331,0.00384521484375,-0.954986572265625,0.1998138427734375,0.1778102112368845,0.3376880272737204,-0.4876255945418355
11072.8442083332,0.066650390625,-0.993408203125,0.0751800537109375,0.1778102112368845,0.3376880272737204,-0.4876255945418355
11102.9332083331,0.0342559814453125,-0.979248046875,0.148681640625,0.2172942375583992,-0.06544239009873513,-0.6339569753778744
11133.0222083329,0.0588836669921875,-0.9688568115234375,0.2171630859375,0.2172942375583992,-0.06544239009873513,-0.6339569753778744
11163.113208333,0.108184814453125,-0.960723876953125,0.2161407470703125,0.210160427946404,-0.009428655523316535,-0.6727171545151056
11193.2022083329,0.1352691650390625,-0.9655303955078125,0.15625,0.2291402444031807,-0.1260420880712702,-0.6356171900014298
11223.2942083328,0.1089324951171875,-0.9551849365234375,0.254150390625,0.233216745083765,-0.1619958280517759,-0.6129872449545904
11253.3852083329,0.20831298828125,-0.9537200927734375,0.2355194091796875,0.233216745083765,-0.1619958280517759,-0.6129872449545904
11283.4732083329,0.1805419921875,-0.9542388916015625,0.2165679931640625,0.2162215162713153,-0.2379718192101015,-0.4134123497090335
11313.5632083331,0.1868438720703125,-0.951873779296875,0.1366119384765625,0.2162215162713153,-0.2379718192101015,-0.4134123497090335
11343.652208333,0.134307861328125,-0.9568634033203125,0.19940185546875,0.2571218116605343,-0.3007912619512176,-0.435076366228501
11373.7412083328,0.172607421875,-0.9530181884765625,0.2549591064453125,0.2721955697464917,-0.2740736309472157,-0.5491254409628173
11403.8322083329,0.1799468994140625,-0.9895782470703125,0.253082275390625,0.2371374508405797,-0.378210420104257,-0.6531562363084736
11433.9242083329,0.2157135009765625,-0.996246337890625,0.24432373046875,0.1764802285884989,-0.2880325898008659,-0.7841699135027037
11464.0162083329,0.2949676513671875,-1.00018310546875,0.2216949462890625,0.1764802285884989,-0.2880325898008659,-0.7841699135027037
11494.1072083329,0.3312225341796875,-0.9586181640625,0.2484588623046875,0.1884633882294194,-0.5952053183561314,-0.7683065281535377
11524.198208333,0.302581787109375,-0.9268646240234375,0.206268310546875,0.1884633882294194,-0.5952053183561314,-0.7683065281535377
11554.2872083329,0.30938720703125,-0.929473876953125,0.2925262451171875,0.1333862874093817,-0.4440168643240061,-0.7302582119756847
11584.3772083331,0.36029052734375,-0.90234375,0.2379150390625,0.09348574269337852,-0.42129477390345,-0.7967648012460155
11614.4562083332,0.3278350830078125,-0.9639739990234375,0.2153778076171875,0.0767272689018369,-0.5830780817002376,-0.807602801618202
11644.557208333,0.27789306640625,-1.125930786132812,0.20648193359375,0.02984764423317207,-0.6859109871875763,-1.004423988296617
11674.6302083329,0.2726593017578125,-1.241119384765625,0.1447601318359375,0.002365419680208379,-0.727213153585288,-1.224918546536965
11704.7202083331,0.2829132080078125,-1.387832641601562,0.1966705322265625,0.002365419680208379,-0.727213153585288,-1.224918546536965
11734.8102083329,0.3603515625,-1.105148315429688,0.10467529296875,0.08067327468900731,-1.140098463714595,-1.404981259423838
11764.9042083331,0.1277008056640625,-1.06927490234375,0.1583251953125,0.570521543476623,-2.095882477862005,-1.153363136472062
11794.9942083328,0.505218505859375,-1.152420043945312,0.15753173828125,0.815605867009999,-2.71222131104846,-0.9260061447347979
11825.0972083329,0.50115966796875,-1.234970092773438,0.28668212890625,0.4138594944560577,-2.083605571552849,-1.285699073147516
11855.1852083328,0.3969268798828125,-1.064010620117188,0.1640167236328125,0.5919956766103679,-1.430658127073837,-1.842413724268732
11885.2702083332,0.552581787109375,-1.026275634765625,0.182159423828125,0.586353503524926,-0.6587520703909482,-1.610761852641498
11915.3682083329,0.6182098388671875,-0.8034820556640625,0.2640838623046875,0.586353503524926,-0.6587520703909482,-1.610761852641498
11945.4622083331,0.5978240966796875,-0.6206512451171875,0.16253662109375,0.5276126919932663,-0.7853414380662296,-1.097963526844015
11975.5572083332,0.5387115478515625,-0.39971923828125,0.039947509765625,0.4365956996303912,-0.7061648599098468,-0.3896007600865259
12005.654208333,0.39556884765625,-0.2673492431640625,0.061004638671875,0.2692370640915227,-1.577371937842411,0.3837745625697596
12035.7512083328,0.2664794921875,-0.2827301025390625,0.0257110595703125,0.3413559990430865,-1.749320265203922,1.14824161137973
12065.8482083331,0.2463836669921875,-0.430816650390625,-0.047760009765625,0.5530469456679591,-1.480599854363875,1.790644003206464
12095.9472083332,0.1722259521484375,-0.5175323486328125,-0.119140625,0.815871650486789,-0.7939210778340289,2.294457356118237
12126.0452083329,0.183624267578125,-0.6136016845703125,-0.143768310546875,0.8604151502472364,0.02656609713797643,2.720098941552914
12156.1422083332,0.3824005126953125,-0.82940673828125,-0.0528564453125,0.8604151502472364,0.02656609713797643,2.720098941552914
12186.2402083329,0.4825897216796875,-0.96221923828125,0.068511962890625,0.6455350682169939,0.219705996241575,3.113559154691183
12216.3342083331,0.373260498046875,-0.9891815185546875,0.0675506591796875,0.4351360210369188,-0.436755755611905,3.393039268967369
12246.4242083329,0.3677825927734375,-1.062820434570312,0.0152130126953125,0.4043389598751335,0.1071594769942814,3.21041166563464
12276.5182083331,0.3584136962890625,-1.056991577148438,0.0335845947265625,0.2479456238085572,1.074274176315542,2.935736426597175
12306.6132083331,0.328338623046875,-1.046249389648438,0.1334991455078125,0.1287776871429996,1.596488108147,2.730186196813807
12336.7042083332,0.300567626953125,-1.051040649414062,0.217254638671875,0.1262839030982494,1.656686734059369,2.557194176621094
12366.794208333,0.3634033203125,-1.048187255859375,0.2082366943359375,0.1262839030982494,1.656686734059369,2.557194176621094
12396.8862083329,0.269195556640625,-0.9944305419921875,0.1934661865234375,0.09602053941891595,1.26871636119219,2.339910591707056
12426.9782083329,0.19219970703125,-0.991302490234375,0.1775360107421875,0.104930144845776,0.7474827389579902,2.071558496045766
12457.0672083332,0.0868682861328125,-1.005874633789062,0.17742919921875,0.1448543916954809,0.6108684339913234,1.752033493722495
12487.1562083331,0.092132568359375,-0.991363525390625,0.1300811767578125,0.1933473593525157,0.8346083203360415,1.286491896204033
12517.2272083332,-0.079925537109375,-0.9746856689453125,0.132354736328125,0.1937188703245818,1.207211188449028,0.7088442662825756
12547.3312083332,-0.0935516357421875,-0.91558837890625,0.071197509765625,0.2753804440941175,1.642614324543281,0.112256501004584
12577.4212083329,-0.0353851318359375,-0.90625,0.0697021484375,0.2753804440941175,1.642614324543281,0.112256501004584
12607.512208333,-0.1136474609375,-0.9351959228515625,-0.046051025390625,0.3658384389441849,1.49545949429819,-0.3367910746185817
12637.6072083331,-0.0791473388671875,-0.914215087890625,-0.015625,0.3479366700966723,1.68856956599758,-0.8814959344879766
12667.699208333,-0.0496978759765625,-0.9393768310546875,-0.0345306396484375,0.3807843652978186,1.821240528338166,-1.171862252352079
12697.7932083332,0.035430908203125,-0.90380859375,0.0232391357421875,0.4915369792348349,1.27532792491442,-1.373215606573591
12727.8842083329,-0.3891754150390625,-1.088165283203125,-0.21771240234375,0.5129708986361197,0.7675248903735995,-1.317670055717808
12757.9812083331,-1.549880981445312,-1.84320068359375,0.11785888671875,-0.06372118908621692,0.5107607412474628,-0.6930067135959833
12788.0722083332,1.209564208984375,-0.8774261474609375,0.195404052734375,-0.06372118908621692,0.5107607412474628,-0.6930067135959833
12818.1402083328,0.3202972412109375,-0.9964599609375,-0.043701171875,1.077052385964713,2.681366725607129,-2.662352820688399
12848.2512083328,0.334197998046875,-1.127944946289062,0.0426177978515625,0.7095071270778963,0.4667575968721926,-1.481536488119256
12878.3322083332,-0.1109161376953125,-0.9378204345703125,0.2218780517578125,0.5120736796648719,-1.025223010094027,-0.9143992897559056
12908.4322083331,0.0295257568359375,-1.000030517578125,0.205780029296875,0.4783005359849231,0.3577450923914341,-0.7240746182406297
12938.5032083333,0.2776031494140625,-1.028045654296875,0.103546142578125,0.3116122180924276,0.387953594952312,-0.6211447736896122
12968.5942083329,0.11761474609375,-1.022262573242188,-0.02825927734375,0.2992764559231805,-0.4969786162901938,-0.2587961410378671
12998.6742083329,0.0720062255859375,-0.9778594970703125,0.140716552734375,0.2992764559231805,-0.4969786162901938,-0.2587961410378671
13028.788208333,0.0806427001953125,-0.999114990234375,0.1803436279296875,0.4049671995762832,-0.5242826753662312,-0.2514141248122764
13058.8772083329,0.0099334716796875,-0.9590301513671875,0.2736358642578125,0.3442449961936045,-0.6074310919723581,-0.2556264467084547
13088.9652083329,0.0689849853515625,-0.9586029052734375,0.1988525390625,0.3203180916958966,-0.4571475800786417,-0.3334607916754376
13119.0572083328,0.034210205078125,-0.9583282470703125,0.245452880859375,0.2606257327067515,-0.3212043917066749,-0.4604914451433452
13149.143208333,0.1092529296875,-0.9199371337890625,0.2015533447265625,0.2257127560802487,-0.2671661900278771,-0.5974722010760068
13179.239208333,0.106689453125,-0.9502716064453125,0.23260498046875,0.1818028223431312,-0.1798600463279185,-0.6963758786910426
13209.3332083332,0.2064971923828125,-0.957733154296875,0.180633544921875,0.1818006918142592,-0.09593292141905234,-0.7064892329306185
13239.4252083332,0.2233123779296875,-1.008697509765625,0.1564483642578125,0.1818006918142592,-0.09593292141905234,-0.7064892329306185
13269.5012083332,0.2415313720703125,-0.9813995361328125,0.21221923828125,0.168351195677141,-0.1740801878141195,-0.6379186938154763
13299.590208333,0.2161102294921875,-0.959930419921875,0.2104339599609375,0.1731653919796773,-0.2660742939809446,-0.5776433688637129
13329.6752083329,0.1840972900390625,-0.941802978515625,0.2147216796875,0.1732607331467021,-0.3787584986565954,-0.5726765734307151
13359.7732083331,0.2147369384765625,-0.9265899658203125,0.25677490234375,0.1690936849890551,-0.3010866065161074,-0.6914548896287942
13389.8632083328,0.2940521240234375,-0.907867431640625,0.2505035400390625,0.1685650475126744,-0.2749572677969039,-0.7448928147978882
13419.9542083329,0.3476104736328125,-0.8984527587890625,0.2033538818359375,0.2055475666222777,-0.3797148398040428,-0.6949425653923619
13450.0442083331,0.302581787109375,-0.90411376953125,0.2126312255859375,0.2055475666222777,-0.3797148398040428,-0.6949425653923619
13480.1302083329,0.382568359375,-0.901275634765625,0.2604217529296875,0.1657642009942381,-0.3286170342848015,-0.676392849451633
13510.2222083328,0.38165283203125,-0.95751953125,0.22998046875,0.161124708059211,-0.2815946641817084,-0.6479566805962029
13540.3112083332,0.3275909423828125,-0.9737091064453125,0.1743011474609375,0.1375235081628198,-0.5344133401528927,-0.6071389432007764
13570.4052083329,0.324554443359375,-0.9742431640625,0.1730804443359375,0.0926412543117144,-0.404691828719569,-0.7201656303926114
13600.4752083331,0.35931396484375,-0.9977569580078125,0.2054901123046875,0.07399060456567147,-0.3805478765930196,-0.8760108879068493
13630.5852083328,0.3237457275390625,-1.091171264648438,0.192138671875,0.0977334846320549,-0.7680066562147948,-1.050262849611279
13660.660208333,0.2426300048828125,-1.641128540039062,0.06268310546875,0.0977334846320549,-0.7680066562147948,-1.050262849611279
13690.751208333,-0.2033233642578125,-1.647308349609375,0.1412200927734375,-0.04427931418031146,-1.37670834234323,-1.177537981267256
13720.8412083332,-0.23565673828125,-1.024887084960938,0.2897796630859375,0.2251425732908628,-2.328706140368874,-1.285629032010847
13750.931208333,0.67315673828125,-1.383590698242188,0.3971099853515625,0.4343338769165869,-1.667457356455976,-1.751595137407068
13781.0132083332,0.694854736328125,-1.192474365234375,0.1746978759765625,0.6916658119871284,-0.4033621123872924,-2.49796334344886
13811.1052083332,0.655670166015625,-1.019439697265625,0.1269073486328125,0.5841052629326812,-1.596696367344244,-2.479617359331522
13841.202208333,0.3558502197265625,-0.871612548828125,0.032928466796875,0.4914296538429047,-2.044827282920205,-1.750924553444586
13871.2622083331,0.294189453125,-0.6361236572265625,-0.0061187744140625,0.4914296538429047,-2.044827282920205,-1.750924553444586
13901.3522083328,0.2393646240234375,-0.48480224609375,0.046539306640625,0.1562468622066219,-0.8048770562425058,-0.02998186755211206
13931.442208333,0.105255126953125,-0.3055267333984375,0.1159210205078125,0.1562468622066219,-0.8048770562425058,-0.02998186755211206
13961.526208333,0.3221282958984375,-0.2165985107421875,0.0129852294921875,0.1763955400658344,0.3668195474897701,0.933437962072773
13991.6462083329,0.280059814453125,-0.3818359375,-0.08648681640625,0.09867784155459701,0.343018077879405,1.907834542762638
14021.713208333,0.334747314453125,-0.5052947998046875,-0.080535888671875,-0.1226034144717599,-0.2328018245859307,2.792944386849852
14051.8042083331,0.309783935546875,-0.624053955078125,0.092742919921875,-0.1482342094349005,0.0059287292187344,3.360182252702407
14081.8952083332,0.525665283203125,-0.9012908935546875,0.1415252685546875,-0.1482342094349005,0.0059287292187344,3.360182252702407
14111.9702083329,0.696990966796875,-0.996856689453125,0.0672149658203125,-0.1419153271164695,0.8446258007763745,3.563808614914302
14142.0952083331,0.5141754150390625,-1.070556640625,0.0433349609375,-0.1419153271164695,0.8446258007763745,3.563808614914302
14172.184208333,0.442626953125,-1.080795288085938,0.143402099609375,-0.140589339209719,1.716611853327787,3.432649529124553
14202.2782083332,0.3563995361328125,-1.133331298828125,0.2270965576171875,-0.159241320536307,2.503307242492213,3.282691455516044
14232.3682083329,0.40118408203125,-1.181671142578125,0.216949462890625,-0.2483136726712062,2.572675132037725,3.214446887318328
14262.447208333,0.3931884765625,-1.2530517578125,0.147064208984375,-0.3908138299630571,1.485240146247229,3.191374591214426
14292.5442083329,0.260223388671875,-1.200546264648438,0.2120513916015625,-0.3908138299630571,1.485240146247229,3.191374591214426
14322.6332083332,0.1989898681640625,-1.108596801757812,0.315093994140625,-0.391045258661785,0.500209829640787,3.035588189560279
14352.7202083328,0.2397918701171875,-1.062667846679688,0.1475677490234375,-0.1145449553292891,0.7753553829267595,2.415941976616054
14382.8112083329,0.2271728515625,-0.9664764404296875,0.1160430908203125,0.05650961517039135,0.6537346748972389,1.818201861534386
14412.8842083333,0.17181396484375,-0.883056640625,0.1253814697265625,0.1932730571581025,0.1352252001420814,1.080977619095381
14442.9832083329,-0.060333251953125,-0.7769622802734375,0.1309661865234375,0.2903069293717936,0.1638872050579502,0.2963432502985672
14473.0712083328,-0.124664306640625,-0.8071441650390625,0.010345458984375,0.2903069293717936,0.1638872050579502,0.2963432502985672
14503.1622083329,-0.2028961181640625,-0.8600616455078125,-0.1213836669921875,0.5070429683657123,0.4345879424845805,-0.3269344491080894
14533.2512083332,-0.421295166015625,-0.866668701171875,-0.104400634765625,0.3999332924838154,0.2762558251444265,-0.2788311019185332
14563.3382083329,-0.4894256591796875,-0.8032379150390625,-0.0655975341796875,0.3999332924838154,0.2762558251444265,-0.2788311019185332
14593.4362083331,-0.3529815673828125,-0.754669189453125,-0.06829833984375,0.380226433049447,0.4253145492528156,-0.2522149373520632
14623.5302083332,-0.0613555908203125,-0.8720703125,-0.12420654296875,0.4039373551827495,0.2616063086201187,-0.252073257182071
14653.6212083329,-0.8557586669921875,-2.551803588867188,-0.04638671875,-0.04105981873851467,1.135941801885199,-1.089875506613444
14683.7112083331,0.397552490234375,-0.75048828125,-0.1178436279296875,0.7825294062712149,1.1903496503233,-3.198672984181789
14713.8022083332,0.1130218505859375,-0.468719482421875,0.73736572265625,0.7825294062712149,1.1903496503233,-3.198672984181789
14743.8922083329,0.4793701171875,-1.6724853515625,0.1299591064453125,0.6762301303090291,0.1521450614956818,-1.825020352873316
14773.9842083329,0.129119873046875,-0.8460540771484375,0.0812225341796875,0.6762301303090291,0.1521450614956818,-1.825020352873316
14804.0732083332,0.0130157470703125,-1.031524658203125,0.0964202880859375,0.5766231118501035,-0.8278252490396096,-0.9822539711700344
14834.1672083329,0.2133331298828125,-1.04693603515625,0.0779876708984375,0.6031998616324402,-0.1853658655655483,-0.8507571965540639
14864.2282083329,0.1346893310546875,-1.029067993164062,0.1682281494140625,0.5155919817809757,-0.4807064357137007,-0.4138371239029011
14894.3442083332,0.0359954833984375,-0.9966278076171875,0.1840362548828125,0.5155919817809757,-0.4807064357137007,-0.4138371239029011
14924.4232083329,-0.06085205078125,-0.9546356201171875,0.2928924560546875,0.3187811814308119,-0.6641524284494108,-0.1649093262843226
14954.529208333,-0.01690673828125,-0.969696044921875,0.2725372314453125,0.3187811814308119,-0.6641524284494108,-0.1649093262843226
14984.594208333,-0.041259765625,-0.933807373046875,0.2623138427734375,0.1416002751595131,-0.5975710043524488,-0.2828279740825241
15014.6882083332,-0.001251220703125,-0.935699462890625,0.2540130615234375,0.1416002751595131,-0.5975710043524488,-0.2828279740825241
15044.781208333,0.0413360595703125,-0.92816162109375,0.176055908203125,0.08973068555636679,-0.3460860394551762,-0.4563329191011865
15074.8762083331,0.03228759765625,-0.943328857421875,0.2080535888671875,0.0931757507424933,-0.2770004449852127,-0.5867180902781579
15104.9702083328,0.1083221435546875,-0.939727783203125,0.2074737548828125,0.0931757507424933,-0.2770004449852127,-0.5867180902781579
15135.060208333,0.124298095703125,-0.9279937744140625,0.2136688232421875,0.1175189073185806,-0.05026476873026455,-0.6934224330421447
15165.1612083328,0.1586151123046875,-0.95074462890625,0.207977294921875,0.1162927879527081,-0.04270618492440165,-0.6796288564921883
15195.2482083329,0.1851348876953125,-0.9561309814453125,0.21026611328125,0.1499255830432098,0.00562086779672124,-0.6349231702213551
15225.3262083332,0.16778564453125,-0.9730682373046875,0.2544708251953125,0.1470440427437441,0.007266967666499217,-0.5657041513807787
15255.4242083329,0.145111083984375,-0.99505615234375,0.214508056640625,0.1576466196755675,-0.07763087945970079,-0.5480447301924632
15285.511208333,0.1927947998046875,-0.986236572265625,0.2227935791015625,0.1850817062772368,-0.2183701546387913,-0.599157449413809
15315.622208333,0.2436981201171875,-0.9592742919921875,0.207366943359375,0.1878346158960517,-0.217789851837263,-0.6566718752634872
15345.6882083328,0.2548828125,-0.9569091796875,0.20001220703125,0.1878346158960517,-0.217789851837263,-0.6566718752634872
15375.7802083333,0.26300048828125,-0.943511962890625,0.247406005859375,0.1843253685276543,-0.2844849929127714,-0.6200582039648599
15405.870208333,0.2816009521484375,-0.92474365234375,0.2312164306640625,0.1640062483586767,-0.2526477010292011,-0.6214800656708531
15435.9842083331,0.2706451416015625,-0.9400482177734375,0.2333831787109375,0.1607995360901123,-0.3142703191764356,-0.6136618236587076
15466.061208333,0.30426025390625,-0.9154815673828125,0.2295074462890625,0.1420964220705949,-0.2998610197824529,-0.6639710671791764
15496.1662083329,0.3072967529296875,-0.91351318359375,0.255584716796875,0.1277758059409118,-0.3099615908487964,-0.7215510067916706
15526.2632083331,0.368194580078125,-0.9049530029296875,0.2636871337890625,0.1017753642184682,-0.2734043785652787,-0.7912326167135939
15556.3622083332,0.424102783203125,-0.854248046875,0.2047576904296875,0.1017753642184682,-0.2734043785652787,-0.7912326167135939
15586.463208333,0.3663177490234375,-0.9070892333984375,0.258636474609375,0.1022520700535924,-0.3494229803010455,-0.7268291257560987
15616.5492083333,0.4026031494140625,-0.901336669921875,0.268646240234375,0.01871829403773093,-0.2804127532899313,-0.7140574041164056
15646.639208333,0.404296875,-0.9021148681640625,0.2315216064453125,0.001919073881511099,-0.2360684579790218,-0.7464270619018828
15676.7322083329,0.40869140625,-0.9398651123046875,0.2214508056640625,-0.01980539639470128,-0.2759919058803997,-0.8070741641418212
15706.8212083332,0.4252471923828125,-1.041641235351562,0.1802825927734375,-0.02809608318422695,-0.2983094621313727,-0.9273901895533121
15736.9292083331,0.227569580078125,-1.710174560546875,0.1720428466796875,-0.2157208419863804,-0.5750816742111656,-1.025131397352528
15796.9843333331,0.1831512451171875,-1.32830810546875,0.1912384033203125,0.02779141755552189,-1.011690423330898,-1.170738132055956
15827.0713333332,0.2903289794921875,-1.102127075195312,0.4274139404296875,0.2875553513335238,-2.261350002710808,-1.13853998184468
15857.1653333329,0.522247314453125,-1.206680297851562,0.2920379638671875,0.2416033056725335,-1.284079072256421,-1.753354155307065
15887.2763333329,0.812774658203125,-0.9860687255859375,0.206146240234375,0.4788872303730675,-0.180013444406707,-2.303907316930274
15917.3763333329,0.69049072265625,-0.882568359375,0.1962890625,0.5001568327350944,-0.8973990009373847,-2.008401098162319
15947.4683333328,0.3097991943359375,-0.7357635498046875,0.09442138671875,0.4121428208173927,-1.462254669194864,-1.500547729876895
15977.5573333332,0.2849578857421875,-0.5306396484375,0.1150665283203125,0.4121428208173927,-1.462254669194864,-1.500547729876895
16007.6473333329,0.3358154296875,-0.3557281494140625,0.08233642578125,0.2374003048401705,-1.100169423174928,-0.887292837232752
16037.738333333,0.1726226806640625,-0.354644775390625,0.0581207275390625,0.1211674380119891,-0.4959588919088025,-0.08332445155418119
16067.8303333329,0.155792236328125,-0.39892578125,-0.0399932861328125,0.01013013215444341,-0.5866099659379007,0.9189325225634384
16097.9183333329,0.21185302734375,-0.5836639404296875,0.0070343017578125,-0.1187969583257096,-0.2493943834415603,1.843797502771137
16128.009333333,0.31927490234375,-0.82440185546875,0.0034942626953125,-0.1343343727574499,-0.01463566808663946,2.565622815155086
16158.1103333328,0.4196319580078125,-0.8856048583984375,0.0048980712890625,-0.1444621080669122,0.06647196817615977,3.100938434285298
16188.189333333,0.4936065673828125,-0.8949127197265625,0.0653839111328125,-0.06766959171836841,0.1487636458596082,3.498416824876278
16218.2813333329,0.431640625,-0.986053466796875,0.1108856201171875,-0.02705851562353209,0.7252759702083644,3.624042128236951
16248.3703333332,0.4323577880859375,-1.059814453125,0.136077880859375,-0.02705851562353209,0.7252759702083644,3.624042128236951
16278.460333333,0.5861053466796875,-1.196563720703125,0.105987548828125,-0.03175313599312377,1.693397078105566,3.544440509570591
16308.5723333329,0.5231170654296875,-1.183929443359375,0.2214202880859375,-0.26665805889189,1.515309631799205,3.560780334438773
16338.6403333329,0.4130706787109375,-1.19146728515625,0.1923065185546875,-0.3389772635574277,1.308992944254112,3.458165009212493
16368.7453333332,0.3323974609375,-1.16009521484375,0.1772613525390625,-0.333372374727247,0.9323095807189065,3.181425820330217
16398.8523333333,0.289154052734375,-1.155715942382812,0.127349853515625,-0.333372374727247,0.9323095807189065,3.181425820330217
16428.9483333332,0.2181549072265625,-1.080123901367188,0.163543701171875,-0.2919775303236004,0.6933944698506989,2.836981886003184
16459.0423333329,0.1636505126953125,-1.075515747070312,0.1150665283203125,-0.2320031425750159,0.7242445279181767,2.320529969506222
16489.1343333329,0.1053009033203125,-0.97283935546875,0.08477783203125,-0.1899193383973657,1.143870032450365,1.632108952991246
16519.2273333332,0.0570831298828125,-0.89947509765625,0.0730133056640625,-0.2035834853183443,1.64425216861368,0.9534052786617511
16549.3143333329,0.1824493408203125,-0.8332672119140625,0.11541748046875,-0.1301553403748976,1.829305112751144,0.557550351071283
16579.420333333,0.0571441650390625,-0.83953857421875,0.08160400390625,0.03293318267213788,1.484528815920069,0.2317575991225106
16609.516333333,0.1050262451171875,-0.8155059814453125,0.07427978515625,0.1695078065385624,0.8769187595224573,0.02033589808384506
16639.6123333329,0.0937957763671875,-0.803619384765625,0.0696258544921875,0.1695078065385624,0.8769187595224573,0.02033589808384506
16669.7063333331,0.1225433349609375,-0.789703369140625,0.0685882568359375,0.4845725466681687,0.2407966341783485,-0.597576596990738
16699.7983333331,0.0559844970703125,-0.8348236083984375,-0.0433197021484375,0.4845725466681687,0.2407966341783485,-0.597576596990738
16729.8933333332,-2.718704223632812,-2.500091552734375,-1.674392700195312,0.3490994062286009,0.1693408263382145,-0.7036550968985562
16759.9873333329,1.089935302734375,-0.8455657958984375,1.049331665039062,-0.08975518663839553,-0.9952219677820663,0.9217783765042971
16790.078333333,-0.217315673828125,-1.291778564453125,-0.36260986328125,0.7485804939593208,3.780270614632051,-2.643001226943448
16820.170333333,-0.14959716796875,-0.6582489013671875,-0.07861328125,0.7485804939593208,3.780270614632051,-2.643001226943448
16850.2663333329,0.08734130859375,-1.153244018554688,0.217681884765625,0.5784673509049834,-0.2902560629949731,-0.9216755784862201
16880.3603333331,-0.08740234375,-0.9563446044921875,0.1432647705078125,0.5784673509049834,-0.2902560629949731,-0.9216755784862201
16910.4543333328,0.020965576171875,-1.010055541992188,-0.041534423828125,0.565444493174496,0.08891602457891155,-0.8495680951273435
16940.552333333,0.0204620361328125,-1.021453857421875,0.0356597900390625,0.5719825536506404,0.365673056640491,-0.6967631023135401
16970.6473333331,-0.0294189453125,-0.99102783203125,0.07611083984375,0.5323962619432666,-0.0754667947579024,-0.5366314870248197
17000.743333333,-0.06024169921875,-0.9828033447265625,0.1073150634765625,0.4243768502329986,-0.2564512276980523,-0.40102998222071
17030.8383333331,-0.018524169921875,-0.9926605224609375,0.031524658203125,0.3691881629632866,-0.08923933233524718,-0.3545594190954814
17060.9363333328,-0.0009765625,-0.983551025390625,0.05413818359375,0.3954019238890455,-0.2321999501795727,-0.2916688699532601
17091.034333333,-0.053619384765625,-0.9754791259765625,0.1183013916015625,0.3954019238890455,-0.2321999501795727,-0.2916688699532601
17121.1293333331,-0.0430450439453125,-0.9716033935546875,0.128265380859375,0.3804053974747004,-0.4425497288794814,-0.2617040466321246
17151.2253333331,-0.035980224609375,-0.97222900390625,0.134857177734375,0.320064558760121,-0.4282637338439693,-0.3134005307644158
17181.3243333331,-0.0433349609375,-0.9637603759765625,0.14599609375,0.2721050222694291,-0.4146619048924986,-0.3245112388322263
17211.413333333,-0.014129638671875,-0.9738311767578125,0.140533447265625,0.2775503877503141,-0.2341318072343162,-0.356494471943533
17241.5253333329,0.0108489990234375,-0.963531494140625,0.1552581787109375,0.2775503877503141,-0.2341318072343162,-0.356494471943533
17271.6233333331,0.0293731689453125,-0.974456787109375,0.169097900390625,0.2684170767918873,-0.2504713657863884,-0.399079483038336
17301.7063333332,0.0371246337890625,-0.9762115478515625,0.14593505859375,0.2684170767918873,-0.2504713657863884,-0.399079483038336
17331.8093333332,0.0679931640625,-0.971405029296875,0.1637115478515625,0.2401148649392882,-0.273280275258481,-0.446034208849741
17361.899333333,0.02496337890625,-0.9553985595703125,0.166656494140625,0.2507368829470693,-0.2732057067479588,-0.4406253286757901
17391.9973333332,0.045440673828125,-0.95928955078125,0.1712493896484375,0.2609503720436322,-0.2332862535882161,-0.5015240996387411
17422.1093333331,0.100250244140625,-0.9573211669921875,0.1727142333984375,0.2605908452964715,-0.1594849997760492,-0.5765669191511028
17452.2003333332,0.090423583984375,-0.965576171875,0.1793670654296875,0.2605908452964715,-0.1594849997760492,-0.5765669191511028
17482.293333333,0.1055450439453125,-0.9450531005859375,0.2063140869140625,0.2817382085644637,-0.2132241284644311,-0.6495804099128243
17512.3823333329,0.0999298095703125,-0.9466705322265625,0.243988037109375,0.2817382085644637,-0.2132241284644311,-0.6495804099128243
17542.4723333331,0.1634368896484375,-0.9483642578125,0.22882080078125,0.3079913842743558,-0.1350326535952687,-0.7169866149993838
17572.5633333332,0.1698150634765625,-0.971099853515625,0.225738525390625,0.3201793410031034,-0.07585748048981703,-0.7652055433802495
17602.6543333332,0.243988037109375,-0.9402618408203125,0.23944091796875,0.3291121159314472,-0.213184713680298,-0.7845206518182671
17632.748333333,0.2591400146484375,-0.966339111328125,0.2334136962890625,0.3470431795509507,-0.308569290230903,-0.7518231589026013
17662.8423333332,0.2590484619140625,-0.9638214111328125,0.2440185546875,0.3320056404558183,-0.4222130318473093,-0.7299210557816806
17692.9373333332,0.261474609375,-0.968902587890625,0.2352447509765625,0.3166498536104214,-0.4950209265728766,-0.7828553771886406
17723.031333333,0.283935546875,-0.982757568359375,0.223114013671875,0.3166498536104214,-0.4950209265728766,-0.7828553771886406
17753.1243333328,0.3633575439453125,-1.031448364257812,0.248321533203125,0.2976756297919338,-0.4408753995021485,-0.9122554450783917
17783.218333333,0.33245849609375,-0.9344482421875,0.1605987548828125,0.3601744279378044,-0.9053932778975846,-0.9067365763514206
17813.3123333332,0.374664306640625,-0.982940673828125,0.279693603515625,0.2272643137313289,-0.4071304853297545,-0.9236660250849452
17843.4053333331,0.385101318359375,-0.93743896484375,0.2685089111328125,0.1880617835370355,-0.4361679959593245,-0.9493580727531576
17873.501333333,0.3367767333984375,-1.042526245117188,0.2034912109375,0.06087560146146726,-0.4032875438767702,-1.044305091936663
17903.5993333332,0.2571258544921875,-1.536666870117188,0.1276397705078125,0.01343271822225067,-0.4066617689779006,-1.300349921252369
17933.6893333329,0.1827392578125,-1.627517700195312,-0.0157012939453125,0.01343271822225067,-0.4066617689779006,-1.300349921252369
17963.7823333333,-0.0543670654296875,-1.522857666015625,0.09454345703125,0.006732204919611306,-0.7975938432933571,-1.622907997741131
17993.876333333,-0.1899261474609375,-1.491058349609375,0.2424774169921875,0.2808774749001501,-2.031244096096365,-1.837873567242365
18023.9693333328,0.350982666015625,-1.368881225585938,0.3725128173828125,0.1200078976733686,-1.701602810056319,-1.915759311218386
18054.063333333,0.8855438232421875,-1.088912963867188,0.27520751953125,0.3244571766620977,1.097676704394614,-3.197381084736991
18084.155333333,0.472747802734375,-0.878326416015625,0.124420166015625,0.4883409196106308,-0.1974923032731151,-2.485909876355161
18114.2453333332,0.3733978271484375,-0.6951446533203125,0.1347808837890625,0.3231178729498969,-1.558650448011372,-1.552839963145037
18144.3333333332,0.2589263916015625,-0.479461669921875,0.131591796875,0.3231178729498969,-1.558650448011372,-1.552839963145037
18174.4203333328,0.110595703125,-0.359832763671875,0.0726165771484375,0.1014944007234648,-1.830583430074382,-0.5737455662922729
18204.4853333332,0.0708770751953125,-0.30621337890625,0.031341552734375,-0.0646578228415978,-1.608754361811796,0.5497185269375781
18234.5773333332,0.1410369873046875,-0.4153289794921875,0.0112457275390625,-0.1406846803767439,-0.6860766358073791,1.648191516498125
18264.6603333328,0.4715118408203125,-0.6764678955078125,-0.000396728515625,-0.2638718597594491,0.2085694555111907,2.467336990912949
18294.7573333331,0.6572723388671875,-0.8054656982421875,0.1031341552734375,-0.4802297298785765,0.275396156744549,3.013928966730774
18324.8293333331,0.746002197265625,-0.9608154296875,0.2085113525390625,-0.5344903055083959,0.08278809091063923,3.515455196898387
18354.9193333329,0.8446044921875,-0.995819091796875,0.2280731201171875,-0.5344903055083959,0.08278809091063923,3.515455196898387
18385.0073333329,0.8297576904296875,-1.0662841796875,0.1417999267578125,-0.3993058517309927,0.4332371871796923,3.415228727169909
18415.117333333,0.7262420654296875,-0.9475250244140625,0.1556243896484375,-0.4308834854082803,0.7901641564842541,3.129353830484225
18445.2033333332,0.63189697265625,-0.8409423828125,0.1396942138671875,-0.4152315550496666,1.073727695659858,2.830453146590855
18475.3023333328,0.591583251953125,-0.7647552490234375,0.136474609375,-0.3300338359847236,1.420904299581422,2.611599361898105
18505.3933333329,0.458892822265625,-0.7933502197265625,0.104461669921875,-0.2825946811710331,1.308068294723637,2.583906214986807
18535.4823333332,0.386322021484375,-0.8168792724609375,0.077972412109375,-0.2823704430072485,0.982812702366733,2.602987764197225
18565.5703333332,0.298004150390625,-0.9891510009765625,0.111083984375,-0.2823704430072485,0.982812702366733,2.602987764197225
18595.6573333328,0.3329620361328125,-1.012405395507812,0.05877685546875,-0.3092902079379874,0.9098277074286755,2.532918398020586
18625.732333333,0.24102783203125,-1.0198974609375,0.1221466064453125,-0.289783085585375,0.7371379560196863,2.229441870742241
18655.8303333331,0.2879638671875,-1.08197021484375,0.12725830078125,-0.2646862544207954,0.5899764678718699,1.800130715641544
18685.9173333332,0.1991424560546875,-0.927642822265625,0.0938568115234375,-0.06960437825031097,0.3352054285055485,1.169316004033854
18716.0043333329,0.06805419921875,-0.824188232421875,0.0322265625,0.09203139042208625,0.1296956787707499,0.4644209393317571
18746.0883333329,-0.0360565185546875,-0.6714630126953125,-0.006195068359375,0.1488363501573674,0.3281456547718575,0.02360625990246237
18776.1773333332,-0.0791168212890625,-0.696380615234375,-0.007080078125,0.1488363501573674,0.3281456547718575,0.02360625990246237
18806.2673333329,-0.0196990966796875,-0.8070526123046875,0.07684326171875,0.1701070177838303,0.8095170818097509,-0.02718155366589374
18836.3553333329,-0.0368804931640625,-0.9880828857421875,0.2187347412109375,0.2201217156877364,0.3793297467104174,0.1420990852316849
18866.4523333332,-0.0097503662109375,-0.726837158203125,0.2358245849609375,0.2501323453796213,0.01218369567100351,-0.021577197467931
18896.5463333329,-1.0135498046875,-2.611618041992188,-1.539688110351562,0.4912613420620117,0.15645139297834,-0.5138955481665951
18926.6403333331,1.19683837890625,-0.43341064453125,0.9813232421875,0.2890123667659061,-0.8020021738457653,-0.8567945827452735
18956.7383333329,-0.1491546630859375,-1.063812255859375,0.093994140625,1.096229808974374,1.712594474823403,-2.538953121050706
18986.836333333,0.3728485107421875,-1.185043334960938,0.2750396728515625,0.9943186235403114,0.3279970503830311,-1.630815988282012
19016.9173333329,0.3332672119140625,-1.222869873046875,0.24639892578125,0.9943186235403114,0.3279970503830311,-1.630815988282012
19047.008333333,-0.0169677734375,-0.9450531005859375,0.1692352294921875,0.8124404337383309,-0.4770816071539938,-1.204224719602613
19077.1063333332,0.1869659423828125,-1.004348754882812,0.1372222900390625,0.6209652766321409,-0.1393272671691305,-0.8200104691368811
19107.1973333328,0.141632080078125,-1.026748657226562,0.1134185791015625,0.489993411067025,0.2216248038069771,-0.6027417979249466
19137.287333333,0.12371826171875,-0.977752685546875,0.122344970703125,0.3641318853176622,-0.2118629868312916,-0.2664684418222764
19167.3843333328,0.038330078125,-0.995208740234375,0.117645263671875,0.3350371167246555,-0.3203103685287353,-0.1296434808133843
19197.4893333331,0.05938720703125,-0.9529266357421875,0.164794921875,0.353436896696013,-0.3332024650496999,-0.1507285261118687
19227.5573333332,0.0476837158203125,-0.9767608642578125,0.237945556640625,0.353436896696013,-0.3332024650496999,-0.1507285261118687
19257.6803333332,-0.0264739990234375,-0.958892822265625,0.2082672119140625,0.3217181154809512,-0.4875829839643943,-0.161728712994441
19287.7743333329,0.0497283935546875,-0.9680023193359375,0.200225830078125,0.2827187844778308,-0.3805856934804988,-0.3225112048535768
19317.8563333331,0.0541229248046875,-0.9731292724609375,0.231689453125,0.288774280164453,-0.4255406516293633,-0.4830601374851127
19347.937333333,0.0951080322265625,-0.964996337890625,0.1646270751953125,0.2409388469805588,-0.3406446687159264,-0.6139414555731658
19378.056333333,0.1267547607421875,-0.9615020751953125,0.2096405029296875,0.2335307317762853,-0.2788872946175339,-0.7273183484483462
19408.1293333329,0.1993560791015625,-0.9608306884765625,0.1952056884765625,0.2505749627527925,-0.1991306799757318,-0.7330119205428266
19438.220333333,0.21624755859375,-0.9821014404296875,0.2123260498046875,0.2505749627527925,-0.1991306799757318,-0.7330119205428266
19468.3103333332,0.2362823486328125,-0.9506072998046875,0.208831787109375,0.2447610157770405,-0.2954439007984475,-0.6770535797180817
19498.4003333329,0.2238616943359375,-0.9698028564453125,0.2076416015625,0.2237694474328179,-0.2290797906464359,-0.6200989503295381
19528.491333333,0.2310943603515625,-0.958221435546875,0.2486114501953125,0.2160651887153277,-0.3022213794565901,-0.5898699414282667
19558.5823333331,0.259765625,-0.9268341064453125,0.251953125,0.2227467935742275,-0.3109192635767889,-0.6142682254389186
19588.6693333332,0.2595977783203125,-0.933563232421875,0.2220458984375,0.2335243401896691,-0.4076412796268317,-0.6114492694250697
19618.7613333332,0.2878265380859375,-0.9310302734375,0.23681640625,0.2180686848033943,-0.400694157607251,-0.6648829335364196
19648.8523333333,0.3266448974609375,-0.9391937255859375,0.235076904296875,0.2180748100739015,-0.3964496114618827,-0.6659748295833521
19678.9433333329,0.321380615234375,-0.9487457275390625,0.22943115234375,0.2180748100739015,-0.3964496114618827,-0.6659748295833521
19709.0553333333,0.3513641357421875,-0.923797607421875,0.2310791015625,0.2002832960955181,-0.5221436243786796,-0.6845043054997964
19739.1463333329,0.40325927734375,-0.8964996337890625,0.192230224609375,0.253921224662477,-0.5413103947439798,-0.7042116975663827
19769.213333333,0.302734375,-0.889556884765625,0.3084716796875,0.2207829785864031,-0.7347227352270935,-0.6776895425863926
19799.3293333329,0.413665771484375,-0.8687286376953125,0.2886810302734375,0.1354435793514679,-0.335589456334738,-0.7362471286350549
19829.3943333329,0.3649444580078125,-0.9025726318359375,0.2574615478515625,0.03200906577388038,-0.3221852339361511,-0.7531134604507447
19859.5093333329,0.34967041015625,-0.9743499755859375,0.2227325439453125,0.03200906577388038,-0.3221852339361511,-0.7531134604507447
19889.576333333,0.3686676025390625,-1.010391235351562,0.1422576904296875,0.1082745425426975,-0.7155980428070166,-1.143199448487883
19919.6873333331,0.080780029296875,-1.624862670898438,0.1120147705078125,0.1082745425426975,-0.7155980428070166,-1.143199448487883
19949.7743333332,-0.0518341064453125,-1.51544189453125,0.0121307373046875,0.03940572938546646,-1.176849287809361,-1.336885029298839
19979.8613333332,-0.2125091552734375,-1.33245849609375,0.2299957275390625,0.1594591671134755,-1.949832326837078,-1.481345539469097
20009.9373333333,0.50775146484375,-1.634262084960938,0.4343109130859375,0.1417805711653115,-1.163906591227685,-1.7218510901403
20040.0263333331,0.7350006103515625,-1.2869873046875,0.3511199951171875,0.2044162557912121,0.8163712595072878,-2.725641512413587
20070.1173333332,0.6473541259765625,-1.048385620117188,0.12176513671875,0.3241868658114547,0.3852576769808247,-2.686860027987635
20100.2153333329,0.50555419921875,-0.851806640625,0.080902099609375,0.3241868658114547,0.3852576769808247,-2.686860027987635
20130.294333333,0.4421234130859375,-0.602996826171875,0.141357421875,0.1098410138958821,-1.184889104824202,-1.927591469625499
20160.3923333332,0.2141571044921875,-0.4054718017578125,0.0599822998046875,-0.1100617899502497,-1.67023476715682,-0.7841419503112579
20190.478333333,0.0789031982421875,-0.200225830078125,0.0496063232421875,-0.2253377829987656,-1.89648681335781,0.5300295106825132
20220.5653333331,0.18756103515625,-0.2837371826171875,-0.0152740478515625,-0.1497277101742169,-1.051784846174259,1.540670382227811
20250.6363333332,0.43743896484375,-0.3638153076171875,-0.0899658203125,-0.1978526289686028,-0.344364838442658,2.454258473115678
20280.7243333332,0.54010009765625,-0.481201171875,-0.0543975830078125,-0.1978526289686028,-0.344364838442658,2.454258473115678
20310.8093333331,0.6817169189453125,-0.6498565673828125,0.0421142578125,-0.3333955442287307,0.5492378263608187,3.529013083691871
20340.905333333,0.7598724365234375,-0.8289794921875,0.087890625,-0.3763824263320267,0.8924721529207381,3.511618647032019
20371.005333333,0.7287445068359375,-0.937164306640625,0.1413116455078125,-0.3763824263320267,0.8924721529207381,3.511618647032019
20401.0883333331,0.5789947509765625,-0.9322357177734375,0.1400299072265625,-0.4138160849302894,1.299508096031795,3.367084633615674
20431.1833333331,0.5147705078125,-0.977935791015625,0.125885009765625,-0.4201117977472368,1.590700260149931,3.221385220906311
20461.2753333331,0.4131927490234375,-1.11383056640625,0.1178741455078125,-0.4117785003802698,1.457034074509982,3.257443889433766
20491.3653333329,0.2891387939453125,-1.223388671875,0.092315673828125,-0.4695224907159129,1.365359015041748,3.374764657567245
20521.4683333329,0.2066497802734375,-1.251068115234375,0.137847900390625,-0.4279473503064679,1.43055000273358,3.274530730987715
20551.555333333,0.5951385498046875,-1.25494384765625,-0.0654754638671875,-0.4279473503064679,1.43055000273358,3.274530730987715
20581.6413333332,0.2924652099609375,-1.15936279296875,-0.040130615234375,-0.4610576331910961,1.138114941334704,2.912797554863887
20611.731333333,0.2395477294921875,-1.0018310546875,0.012939453125,-0.4852846759436559,0.5469150172580516,2.556197089108969
20641.8203333328,0.399505615234375,-0.9558258056640625,0.03363037109375,-0.3600511235793338,0.862991492285779,1.795554339624352
20671.9133333331,0.361572265625,-0.9376983642578125,0.019989013671875,-0.3600511235793338,0.862991492285779,1.795554339624352
20702.002333333,0.3508453369140625,-0.946868896484375,0.1267242431640625,-0.06212648822547748,0.6180488489223951,0.04040228426537411
20732.0883333332,-0.027496337890625,-0.9745330810546875,-0.041168212890625,-0.06212648822547748,0.6180488489223951,0.04040228426537411
20792.1433333331,-0.1066741943359375,-0.852142333984375,-0.0833282470703125,0.1589036317100849,1.050018105107101,-1.002556313424144
20822.2353333331,0.0826416015625,-0.935150146484375,0.003448486328125,0.2808606969852826,0.4569635556473172,-0.7496636015746561
20852.3223333332,-0.047760009765625,-0.8652191162109375,0.1030731201171875,0.3922111905870216,-0.413867750255437,-0.7678615139353855
20882.4103333332,-0.23773193359375,-0.845428466796875,-0.1231689453125,0.6064212212870002,-0.988290558412917,-0.8531708194500027
20912.499333333,-1.462905883789062,-1.741119384765625,-0.825164794921875,0.6064212212870002,-0.988290558412917,-0.8531708194500027
20942.591333333,0.2250518798828125,-1.020492553710938,0.74639892578125,1.348192012338988,0.4962947165222615,-1.58544451173866
20972.655333333,0.0880279541015625,-1.010147094726562,-0.435546875,1.348192012338988,0.4962947165222615,-1.58544451173866
21002.7673333329,0.1265869140625,-0.963165283203125,0.4484100341796875,0.9075858584230468,-0.2221387938973624,-1.641899265790595
21032.8553333329,0.101165771484375,-1.003875732421875,0.37371826171875,0.915623012276797,0.08806035092066909,-1.433890405688866
21062.9433333329,0.084716796875,-1.000869750976562,0.1650543212890625,0.7745029050618252,-0.2674588714316768,-1.178128404080926
21093.030333333,0.2276763916015625,-1.002182006835938,0.066986083984375,0.6854824845681825,0.3848816386349055,-1.22338163627188
21123.1173333331,0.190032958984375,-1.028564453125,0.1337890625,0.599764650142347,0.06339761501377229,-0.8597967642421199
21153.2063333329,0.139068603515625,-0.969879150390625,0.2178497314453125,0.4636214583725153,-0.03898148782381684,-0.6013170067417543
21183.2713333329,0.1298828125,-0.952301025390625,0.1858978271484375,0.4636214583725153,-0.03898148782381684,-0.6013170067417543
21213.389333333,0.1660308837890625,-0.9897918701171875,0.081695556640625,0.2975659075550226,0.08293589635113863,-0.4691240818168371
21243.4563333331,0.1390228271484375,-0.9742431640625,0.11285400390625,0.2465514589779008,0.08132335231109565,-0.3927997491879291
21273.5703333328,0.1326904296875,-0.9693450927734375,0.1833953857421875,0.2451956436669414,0.01886956158764743,-0.3583267267735075
21303.6513333332,0.143646240234375,-0.9568328857421875,0.16412353515625,0.2076799597071042,0.01037753981971177,-0.3447139788615674
21333.7543333332,0.1558837890625,-0.966033935546875,0.149810791015625,0.197052082744925,-0.02156281639804457,-0.3456620642096356
21363.8193333331,0.15447998046875,-0.97467041015625,0.1755523681640625,0.1886570000406682,-0.01214241667410728,-0.3607017338336401
21393.928333333,0.1485748291015625,-0.968597412109375,0.145416259765625,0.1886570000406682,-0.01214241667410728,-0.3607017338336401
21424.0283333329,0.157440185546875,-0.9562835693359375,0.1698150634765625,0.1859048893701803,-0.08049857132149811,-0.3943888574103794
21454.1023333331,0.1643218994140625,-0.96002197265625,0.167083740234375,0.1953955965468957,-0.06953833185527701,-0.483878260571985
21484.2093333332,0.200836181640625,-0.941009521484375,0.2110443115234375,0.1920847546797092,-0.1425494257720173,-0.5644186435225974
21514.2973333332,0.2296142578125,-0.94921875,0.1969757080078125,0.1864289994727079,-0.09429347945199955,-0.6404082168024824
21544.3743333331,0.2563018798828125,-0.9375457763671875,0.2047119140625,0.1579542147814717,-0.125464714746941,-0.6702654484155787
21574.4643333333,0.347503662109375,-0.945587158203125,0.2136383056640625,0.1628791985853552,-0.1506185375588484,-0.6285190667480416
21604.5683333332,0.269073486328125,-0.9253692626953125,0.2485504150390625,0.1628791985853552,-0.1506185375588484,-0.6285190667480416
21634.6623333329,0.278045654296875,-0.9334259033203125,0.2047271728515625,0.1266921656933585,-0.3093197690260873,-0.5212663791156075
21664.7523333331,0.3144989013671875,-0.9596405029296875,0.161346435546875,0.09344206685150122,-0.1699139386047995,-0.6246747937145122
21694.8403333331,0.2990264892578125,-0.9777984619140625,0.1897125244140625,0.06211690084555319,-0.127009081863078,-0.6965681589217463
21724.929333333,0.33172607421875,-0.97491455078125,0.212677001953125,0.01793106361950351,-0.02036252969474586,-0.7721558611931383
21755.0143333328,0.42730712890625,-0.9736785888671875,0.25372314453125,0.01985280066210469,-0.04440634696430824,-0.8487001709280867
21785.108333333,0.506256103515625,-0.956787109375,0.2758026123046875,0.05334924190479432,-0.228410538264499,-0.8622061260803145
21815.1813333329,0.42852783203125,-0.96661376953125,0.22113037109375,0.09880460802248478,-0.444420333229153,-0.8914004968980902
21845.2663333333,0.4026336669921875,-0.9665374755859375,0.2122955322265625,0.1165215534903459,-0.6095355218657388,-0.9296512133187893
21875.352333333,0.2310333251953125,-1.31903076171875,0.247161865234375,0.1165215534903459,-0.6095355218657388,-0.9296512133187893
21905.4433333331,0.2393035888671875,-1.195022583007812,0.2245941162109375,-0.01765942118831543,-0.5037536981033554,-1.078378640187573
21935.5263333332,0.1175994873046875,-1.306808471679688,0.2573699951171875,0.2546024612693193,-1.107637459503728,-1.394247921282492
21965.6213333328,0.40478515625,-1.3858642578125,0.160919189453125,0.5807257115093706,-2.277341219792298,-1.484557578059842
21995.711333333,0.3750762939453125,-1.311859130859375,0.206207275390625,0.6850366714017032,-3.825253003340143,-1.460222677283134
22025.8053333332,0.010009765625,-1.143508911132812,0.2526702880859375,0.6552303061654273,-2.291368355569854,-2.155100794177116
22055.8983333331,0.6619110107421875,-1.128341674804688,0.2707366943359375,0.6552303061654273,-2.291368355569854,-2.155100794177116
22086.0113333329,0.7504730224609375,-1.136871337890625,0.0457000732421875,0.7733827795073378,-0.9007564481236476,-2.487828417604455
22116.1043333332,0.3547210693359375,-0.7479705810546875,0.0964508056640625,0.6448602231967678,-1.514648901532756,-1.981047770606115
22146.1723333332,0.3379974365234375,-0.397613525390625,0.02581787109375,0.440119061752566,-1.26688543794276,-1.046622308401141
22176.2613333331,0.10723876953125,-0.3304290771484375,-0.08782958984375,0.3555722192580385,-0.1865922512475298,-0.1686750360656947
22206.3513333333,0.1877899169921875,-0.2681884765625,-0.18292236328125,0.2086996840884955,0.199908323014035,0.9294046046018479
22236.4353333332,0.3486328125,-0.3684844970703125,-0.184722900390625,0.1084769427855436,0.9239999854856412,1.819045817283832
22266.5513333332,0.4533538818359375,-0.5421142578125,-0.1103668212890625,0.1084769427855436,0.9239999854856412,1.819045817283832
22296.6153333332,0.52288818359375,-0.6436004638671875,-0.10760498046875,-0.133630232965233,0.7152598213485765,3.106555307340384
22326.7053333329,0.695709228515625,-0.8093719482421875,-0.0939483642578125,-0.133630232965233,0.7152598213485765,3.106555307340384
22356.8073333331,0.6552886962890625,-0.8674163818359375,-0.059722900390625,-0.2071752906805342,0.7177024727003971,3.291351522748764
22386.8953333331,0.6198577880859375,-0.8976287841796875,0.0150604248046875,-0.2582097129658316,1.11257629174528,3.22136684509479
22417.0023333331,0.6464996337890625,-0.94342041015625,0.0159454345703125,-0.2834370390238252,1.591521046397893,3.025338215156782
22447.0923333329,0.5884857177734375,-0.9479827880859375,0.0447845458984375,-0.2834370390238252,1.591521046397893,3.025338215156782
22477.1733333332,0.4930572509765625,-0.951080322265625,0.0533447265625,-0.3364182320659706,0.9825362662455829,2.961613830277257
22507.2693333332,0.424957275390625,-0.97979736328125,0.0611572265625,-0.2408898448165013,0.9411986798053729,2.823043699806036
22537.3683333332,0.3546600341796875,-0.9630279541015625,0.042694091796875,-0.2408898448165013,0.9411986798053729,2.823043699806036
22567.4283333328,0.293853759765625,-1.106613159179688,0.0528411865234375,-0.1595734167242399,0.8121232512525025,2.626314392185229
22597.5173333331,0.25439453125,-1.10736083984375,0.01409912109375,-0.2393902188066777,0.9642446106144826,2.282748502069595
22627.6273333328,0.23980712890625,-1.005340576171875,0.025665283203125,-0.381167327862572,1.263246228313167,1.723637005967307
22657.6993333329,0.2691802978515625,-0.9976654052734375,0.0251617431640625,-0.3748425865897428,1.447343097619292,1.11205537743606
22687.7893333331,0.2695465087890625,-0.955902099609375,0.051605224609375,-0.2654740174712408,0.9341929682418104,0.637741593602986
22717.8803333331,0.1987152099609375,-0.9129180908203125,0.0858612060546875,-0.09734705995788441,0.2023427185664764,0.1886892242898582
22747.969333333,0.111328125,-0.8278961181640625,0.1146240234375,-0.09734705995788441,0.2023427185664764,0.1886892242898582
22778.0303333329,0.0968780517578125,-0.7376708984375,0.104644775390625,0.1252199702427627,-0.269278875720637,-0.1901856545063737
22808.1203333331,0.0783233642578125,-0.6998138427734375,0.0994720458984375,0.3027303095409042,-0.882584634741601,-0.3341337724829006
22838.2113333332,-1.423553466796875,-2.288818359375,-0.2077484130859375,0.2515246459975147,-1.167262706833403,-0.4041333638389794
22868.3193333331,0.4107513427734375,-0.5114288330078125,0.7086029052734375,1.007014445088937,-0.9717565891012691,-1.658816463983106
22898.4033333331,-0.28076171875,-1.021469116210938,-0.1893768310546875,1.007014445088937,-0.9717565891012691,-1.658816463983106
22928.4893333329,0.2945709228515625,-1.100860595703125,0.0895233154296875,0.5516988535241609,0.9864654941178858,-1.470026838520151
22958.576333333,0.317840576171875,-1.155670166015625,0.1533966064453125,0.5516988535241609,0.9864654941178858,-1.470026838520151
22988.6663333332,0.111907958984375,-1.025299072265625,0.2096099853515625,0.5126241550621913,0.01841416104124389,-0.9944323405188578
23018.7573333328,0.22454833984375,-1.030746459960938,0.000213623046875,0.5361222906243965,-0.1243089028338466,-0.7781453104847265
23048.8493333332,0.1239776611328125,-1.041213989257812,0.0687408447265625,0.546524864158355,-0.2957437727371904,-0.4328656762076262
23078.9383333331,0.0625,-0.9934844970703125,0.2733612060546875,0.5261729871079694,-0.5511443833852064,-0.1970366364106025
23109.027333333,-0.0181884765625,-0.994415283203125,0.22308349609375,0.3531277036934548,-0.6678124107355067,0.01863014340564931
23139.122333333,-0.0302581787109375,-0.944976806640625,0.194305419921875,0.3045599012097887,-0.5613054082082948,0.05274656855010939
23169.2163333332,-0.024383544921875,-0.966156005859375,0.1801300048828125,0.2703161769652228,-0.5602814227691593,0.05886731168343851
23199.3073333329,-0.045013427734375,-0.9642486572265625,0.176910400390625,0.2703161769652228,-0.5602814227691593,0.05886731168343851
23229.4063333329,-0.0712432861328125,-0.9442291259765625,0.2191619873046875,0.2627570605271419,-0.5515220196277797,-0.03393666177087973
23259.501333333,0.0109100341796875,-0.9580230712890625,0.1969451904296875,0.2466390769777644,-0.4939058610244604,-0.1313740028897178
23289.5913333332,-0.0693511962890625,-0.9558868408203125,0.212127685546875,0.2036977349291087,-0.4734461259499266,-0.2128057458571797
23319.6823333328,0.04351806640625,-0.946014404296875,0.2077484130859375,0.2036977349291087,-0.4734461259499266,-0.2128057458571797
23349.7393333332,0.012725830078125,-0.9726715087890625,0.252777099609375,0.1644318215008714,-0.1412354220901722,-0.2769804712770371
23379.8383333328,0.080902099609375,-0.9726104736328125,0.2000274658203125,0.1644318215008714,-0.1412354220901722,-0.2769804712770371
23409.9333333329,0.0697479248046875,-0.9869232177734375,0.1684417724609375,0.1274780645310409,-0.1567608522970072,-0.2153759626252152
23440.0233333331,0.0863037109375,-0.968658447265625,0.1983795166015625,0.1314781324883399,-0.1682201681515091,-0.1886380915969286
23470.1153333331,0.046142578125,-0.9682159423828125,0.2256622314453125,0.1251158406441406,-0.2500742884678576,-0.1828486457032054
23500.2083333329,0.0746307373046875,-0.946044921875,0.206268310546875,0.1157620199474553,-0.2364937648051075,-0.2085758470978069
23530.2883333329,0.0839996337890625,-0.9388580322265625,0.1735687255859375,0.1186158633715842,-0.28911063741013,-0.2689531711193203
23560.4073333329,0.053009033203125,-0.9554290771484375,0.23760986328125,0.1690638575848462,-0.191438938115365,-0.3043314019882599
23590.498333333,0.0917816162109375,-0.9457550048828125,0.247711181640625,0.1690638575848462,-0.191438938115365,-0.3043314019882599
23620.590333333,0.0626373291015625,-0.9567413330078125,0.2759246826171875,0.1819032235162273,-0.1924852941076571,-0.3063562033650472
23650.6733333331,0.12103271484375,-0.95086669921875,0.3417816162109375,0.2061505062930717,-0.2240392256512429,-0.272943385380586
23680.7673333328,0.11285400390625,-0.9167633056640625,0.29217529296875,0.1649665842477593,-0.3915248939741082,-0.1965713821681657
23710.8513333328,0.10009765625,-0.9721832275390625,0.2290802001953125,0.1137489364794644,-0.3619536858620864,-0.2046109328668969
23740.9563333331,0.0548095703125,-0.97271728515625,0.2279510498046875,0.1084023742750213,-0.2225803460060975,-0.3205878699143216
23771.0473333332,0.083831787109375,-0.951934814453125,0.2379302978515625,0.1084023742750213,-0.2225803460060975,-0.3205878699143216
23801.1373333329,0.10894775390625,-0.965667724609375,0.2222137451171875,0.147815294195431,-0.2400224532494625,-0.5076855891367484
23831.2073333332,0.1538848876953125,-0.9817962646484375,0.2020263671875,0.1691197839677379,-0.2671121278577485,-0.6980595291321907
23861.3213333329,0.184234619140625,-0.9553680419921875,0.1824188232421875,0.1802992015916725,-0.3225053458991786,-0.8371953150189444
23891.415333333,0.163299560546875,-0.8822021484375,0.296356201171875,0.1886338305391845,-0.3507851871986211,-0.9136634583467166
23921.5093333332,0.2500762939453125,-0.8849029541015625,0.3398895263671875,0.2280294399125087,-0.1410862850691278,-1.027602544528013
23951.6023333331,0.2994842529296875,-0.9244842529296875,0.29766845703125,0.2475197843502536,-0.1720532559084602,-1.048566149680789
23981.6933333332,0.3167266845703125,-0.9703369140625,0.1893157958984375,0.3249474646187813,-0.3996091857791527,-1.069982758534989
24011.7803333328,0.3567047119140625,-1.257797241210938,0.040863037109375,0.3249474646187813,-0.3996091857791527,-1.069982758534989
24041.870333333,0.1298675537109375,-1.605606079101562,0.1289215087890625,0.3035801242447486,-0.5694213916303112,-1.147927092054992
24071.9603333332,0.1150970458984375,-1.231552124023438,0.1130523681640625,0.07888815781032719,-0.8048948994218094,-1.379389879244831
24102.0473333328,-0.0337982177734375,-1.289703369140625,0.1613006591796875,0.2912867063368338,-2.497586772470723,-1.655888850996781
24132.1393333328,-0.1156768798828125,-1.293304443359375,0.169921875,0.2569495051380061,-2.592732463471548,-1.828156491372993
24162.2313333332,0.7848968505859375,-1.299240112304688,0.36932373046875,0.2469109857250615,0.2782691749285265,-2.737929603999322
24192.321333333,0.747894287109375,-1.076904296875,0.222503662109375,0.4413491758600737,-0.06142341369769656,-2.602188815870201
24222.4113333332,0.4169158935546875,-1.05413818359375,0.182037353515625,0.4413491758600737,-0.06142341369769656,-2.602188815870201
24252.4993333332,0.262115478515625,-0.8043212890625,0.3064422607421875,0.2662050551904675,-1.565349896049576,-1.821722294179362
24282.5873333331,0.084197998046875,-0.6746673583984375,0.2127838134765625,0.1822579565734258,-1.521736904774002,-1.170614561381377
24312.6783333332,0.0610809326171875,-0.5244903564453125,0.095123291015625,0.06727331334816461,-1.268455637721471,-0.2408552237223303
24342.7673333331,0.064666748046875,-0.5552520751953125,-0.0059661865234375,-0.1174826883277555,-0.8283251243762175,0.7979981111468312
24372.8583333332,0.158294677734375,-0.5791473388671875,-0.03082275390625,-0.3429485693749539,-0.2490367209071627,1.831404482638454
24402.9503333331,0.21783447265625,-0.729949951171875,0.043670654296875,-0.5364027214871818,0.1438170904508951,2.691497124077681
24433.039333333,0.35699462890625,-0.8650360107421875,0.1348876953125,-0.5364027214871818,0.1438170904508951,2.691497124077681
24463.1283333329,0.385955810546875,-0.958404541015625,0.175079345703125,-0.5655747217518008,0.6003718508708852,3.362821445342675
24493.2213333332,0.3107452392578125,-1.051971435546875,0.2171478271484375,-0.5999686482818472,0.5422254568945311,3.788016951294765
24523.3123333333,0.445281982421875,-1.117477416992188,0.19915771484375,-0.666240346744033,1.029063821018139,4.031635204648052
24553.4053333331,0.499237060546875,-1.192977905273438,0.2944793701171875,-0.8227753629806014,1.433663770680101,4.137630347613751
24583.4963333332,0.56829833984375,-1.225616455078125,0.345977783203125,-0.8793297192573061,2.042412328443721,3.95865953077381
24613.585333333,0.5633697509765625,-1.23602294921875,0.32867431640625,-0.8900310994655715,2.324567588034891,3.627601176717733
24643.677333333,0.603485107421875,-1.203369140625,0.257110595703125,-0.8900310994655715,2.324567588034891,3.627601176717733
24673.765333333,0.6263275146484375,-1.164398193359375,0.2364959716796875,-0.9026667335735614,2.253858264248306,3.321107287924328
24703.8563333331,0.4757080078125,-1.023345947265625,0.2928466796875,-0.9087496598194115,1.503579472461842,2.885736109763156
24733.952333333,0.4133758544921875,-0.9486846923828125,0.2821044921875,-0.5223846404573318,0.9551794765799618,2.181529472202844
24764.056333333,0.675445556640625,-0.767822265625,0.1869964599609375,0.003101517405506281,0.2541675670633093,1.370682940376926
24794.1263333332,0.391448974609375,-0.853485107421875,0.1139373779296875,0.3660930371443965,-0.6836289244494873,0.4045078042882445
24824.2213333328,0.10992431640625,-0.8631134033203125,-0.04290771484375,0.5905373295974405,-1.013520281315892,-0.5644101214071091
24854.311333333,-0.10430908203125,-0.8305511474609375,-0.0998077392578125,0.5905373295974405,-1.013520281315892,-0.5644101214071091
24884.4163333329,0.0068817138671875,-0.827239990234375,-0.1159820556640625,0.5258110635158277,-0.3976397781530391,-1.276193718584805
24914.5043333328,-0.177001953125,-0.8189544677734375,-0.099395751953125,0.5393745429476012,0.4661370803382042,-1.750268616868099
24944.579333333,-1.960617065429688,-1.784027099609375,-0.6766357421875,0.4893846124418329,0.6120130606278394,-1.588560143897943
24974.6883333332,0.1403961181640625,-0.8241119384765625,1.110092163085938,-0.2487363163362018,-2.687253909512858,1.712069299456439
25004.7763333332,0.4799041748046875,-1.429672241210938,-1.2838134765625,0.983283815563568,5.482998610248928,-3.325165945425609
25034.8733333331,-0.0171051025390625,-0.620025634765625,-0.130462646484375,0.8889578455462696,0.1502094760154122,-1.245907984352315
25064.969333333,0.4605712890625,-1.26702880859375,0.3644256591796875,0.9550175563856851,0.0587192399268301,-1.02108818618557
25095.0503333329,0.047119140625,-0.929229736328125,0.2072601318359375,0.9550175563856851,0.0587192399268301,-1.02108818618557
25125.1343333329,0.026458740234375,-0.9693450927734375,0.0457000732421875,0.6319873014356518,-0.4829221857406466,-0.710170786821544
25155.2363333331,0.0784454345703125,-1.05535888671875,0.0714569091796875,0.5552118293180844,0.2109058467355172,-0.508413431062667
25185.3263333333,0.108551025390625,-0.9860992431640625,0.1085662841796875,0.5468681456228662,-0.05507736713614674,-0.394947322290969
25215.4173333329,0.040435791015625,-1.008087158203125,0.105072021484375,0.4443785216000388,-0.3298990800335656,-0.1660257234132838
25245.504333333,-0.0514678955078125,-1.038986206054688,0.1095123291015625,0.4005849680025578,-0.4511200475834654,-0.1506915081727166
25275.5873333331,0.0831451416015625,-0.977691650390625,0.060028076171875,0.3558800806800517,-0.5206277530862065,-0.0568473039966134
25305.6843333329,0.0018310546875,-0.9425811767578125,0.2573699951171875,0.3558800806800517,-0.5206277530862065,-0.0568473039966134
25335.7763333329,-0.0549468994140625,-0.9419097900390625,0.2917938232421875,0.3695881697590165,-0.6458083085448361,-0.02506167743819067
25365.8763333328,0.0040740966796875,-0.9659423828125,0.1822052001953125,0.232006338368324,-0.4891017847340665,-0.06226577155048862
25395.962333333,-0.08575439453125,-0.9547882080078125,0.21453857421875,0.2001820959740951,-0.5775333803106926,-0.07154821952995981
25426.070333333,-0.032257080078125,-0.9494171142578125,0.2384490966796875,0.2094909092483581,-0.2934060499323188,-0.1776624057963851
25456.1393333329,0.0043182373046875,-0.96661376953125,0.1821441650390625,0.1991429305167462,-0.1651532718401739,-0.2243569407692894
25486.230333333,0.0009918212890625,-0.9611663818359375,0.1778106689453125,0.2013046183735635,-0.1341447556878363,-0.3300096012188039
25516.3263333329,0.0545654296875,-0.9788818359375,0.165435791015625,0.2013046183735635,-0.1341447556878363,-0.3300096012188039
25546.4163333331,0.009368896484375,-0.9401092529296875,0.228729248046875,0.1842326905217196,-0.2041033343631278,-0.4223951920658707
25576.5063333329,0.0621337890625,-0.957244873046875,0.188232421875,0.1797588462064954,-0.1463734587812621,-0.5101543394672519
25606.628333333,0.083465576171875,-0.9488372802734375,0.215362548828125,0.1709805346213762,-0.1173127786502085,-0.5913751600763795
25636.716333333,0.0971221923828125,-0.95361328125,0.22442626953125,0.1767460120652888,-0.06451747425215061,-0.637473146965106
25666.8053333328,0.116363525390625,-0.9640960693359375,0.213531494140625,0.161055732186978,-0.07119535068552431,-0.667384440748331
25696.8673333331,0.162567138671875,-0.9669647216796875,0.1858367919921875,0.1486464667716448,-0.1395416516368818,-0.6968848087753567
25726.9773333333,0.1563262939453125,-0.9720458984375,0.1967010498046875,0.1486464667716448,-0.1395416516368818,-0.6968848087753567
25787.023708333,0.2317047119140625,-0.9511260986328125,0.2255401611328125,0.1396955823478884,-0.2864791679370227,-0.8398659329600759
25817.1087083329,0.2193756103515625,-0.9452972412109375,0.2154541015625,0.1262881641559935,-0.37400582137524,-0.8735157722815541
25847.1907083331,0.2608489990234375,-0.935302734375,0.2221221923828125,0.09680617194048932,-0.2618111057079458,-0.926650629718597
25877.2897083331,0.3529510498046875,-0.930908203125,0.1926116943359375,0.07745457819553754,-0.1406543203403169,-0.9296887638901594
25907.3797083329,0.350738525390625,-0.910552978515625,0.241973876953125,0.01042441145489716,-0.153999154246595,-0.8523497668859313
25937.4677083329,0.3677215576171875,-0.969940185546875,0.2264556884765625,0.01042441145489716,-0.153999154246595,-0.8523497668859313
25967.5297083331,0.3476715087890625,-1.007583618164062,0.162933349609375,-0.03671087667841527,-0.3112396418559255,-0.819769719374338
25997.6157083329,0.3837890625,-0.9974212646484375,0.1429443359375,-0.03671087667841527,-0.3112396418559255,-0.819769719374338
26027.7097083331,0.3892822265625,-1.123565673828125,0.151641845703125,-0.0004223773488865672,-0.4437018123670496,-0.9006970596313388
26057.801708333,0.1471099853515625,-1.621047973632812,0.1831207275390625,-0.09789061113636958,-0.7237712841924697,-1.039270119579759
26087.8957083332,0.09552001953125,-1.467315673828125,-0.140228271484375,0.03213716382231319,-1.396939311880126,-1.329173047414187
26117.9647083331,-0.3000946044921875,-1.54046630859375,0.0886383056640625,0.1285507858181248,-2.02687225085089,-1.776221920639249
26148.069708333,-0.389312744140625,-1.170257568359375,0.3652801513671875,0.1285507858181248,-2.02687225085089,-1.776221920639249
26178.1617083329,0.952880859375,-1.619171142578125,0.40478515625,0.4644792625596298,1.453001782303493,-3.350871042583163
26208.2667083332,0.7270660400390625,-1.185150146484375,0.2500762939453125,0.4644792625596298,1.453001782303493,-3.350871042583163
26238.3597083331,0.42437744140625,-0.886993408203125,0.27117919921875,0.2781485337311459,-1.883747049651198,-1.999693626662196
26268.451708333,0.090423583984375,-0.6178131103515625,0.1652374267578125,0.1630621577522437,-2.393353044250003,-1.364546218277056
26298.543708333,0.0572662353515625,-0.343048095703125,0.0796966552734375,0.005140167219961938,-1.513862203746747,-0.6904708516060098
26328.5827083332,0.219940185546875,-0.2655487060546875,0.0493621826171875,0.005140167219961938,-1.513862203746747,-0.6904708516060098
26358.6827083332,0.4478759765625,-0.2388763427734375,0.0747222900390625,-0.02546674423999172,-0.2247849107564651,0.2110935995923678
26388.7707083331,0.469482421875,-0.304290771484375,0.05023193359375,-0.1069264503988994,0.1474536369193983,0.9880154538723118
26418.8727083329,0.5010986328125,-0.447113037109375,0.095367431640625,-0.2155240343818236,0.1974430347929486,1.646350206920445
26448.9687083328,0.405517578125,-0.5762939453125,0.120635986328125,-0.3158418505356914,0.3511420507846917,2.117654086089511
26479.0337083332,0.522674560546875,-0.723968505859375,0.1549224853515625,-0.3978381836542501,1.136008380912451,2.396576800749544
26509.1227083331,0.611114501953125,-0.7652130126953125,0.2530059814453125,-0.5384445670949456,1.296168758340944,2.640595859846888
26539.218708333,0.627960205078125,-0.813934326171875,0.2937164306640625,-0.6165857082195055,1.152467249081359,2.774064971566171
26569.3077083329,0.4759521484375,-0.838043212890625,0.30084228515625,-0.5675337430496631,1.277801468934886,2.865286761016873
26599.4127083331,0.4374847412109375,-0.9048004150390625,0.3013153076171875,-0.5675337430496631,1.277801468934886,2.865286761016873
26629.5037083332,0.38836669921875,-0.9698333740234375,0.291961669921875,-0.4210202019950628,1.673016971547626,2.898044441373175
26659.6107083328,0.290985107421875,-1.039581298828125,0.3235626220703125,-0.3229101463848707,1.577570343343622,3.022988774443114
26689.6837083332,0.265533447265625,-1.076751708984375,0.3214263916015625,-0.2178084939648935,1.390317628145753,3.104879380066397
26719.7697083329,0.206878662109375,-1.135406494140625,0.3568267822265625,-0.08923320706474,1.042946347148504,3.109112474619078
26749.8907083332,0.35296630859375,-1.129226684570312,0.315582275390625,0.127917752427013,0.9767572066801109,2.886407226357856
26779.983708333,0.65240478515625,-1.158294677734375,0.1854400634765625,0.2708626576209071,-0.04319886972606631,2.331354387756849
26810.0807083329,0.81585693359375,-0.87109375,0.195404052734375,0.2708626576209071,-0.04319886972606631,2.331354387756849
26840.1727083328,0.6060638427734375,-0.8050384521484375,0.111328125,0.3727783704288224,-1.716888023132828,1.699099172315535
26870.2597083329,0.6898651123046875,-0.8667449951171875,-0.175140380859375,0.5728970831689737,-1.523714035567277,0.3453062658880011
26900.358708333,-2.984451293945312,-2.897872924804688,-0.685699462890625,0.1873259521278466,-0.2687976425116597,-0.9014011994235558
26930.4537083331,1.185501098632812,-0.11151123046875,0.3210906982421875,0.647891166833387,1.444121205332515,-1.831185570796849
26960.5467083329,0.1719207763671875,-1.179214477539062,0.3286895751953125,0.7093686427012121,2.418424575384226,-2.702978011537013
26990.6397083332,0.415863037109375,-1.021453857421875,0.4831695556640625,0.5067127363905425,-0.4755572137460324,-1.178902318693703
27020.7317083332,0.06982421875,-0.9507598876953125,0.2218017578125,0.1511133528893852,-0.9886130672209257,-0.6233717089931364
27050.8227083328,-0.1309356689453125,-0.9481658935546875,0.1579437255859375,0.1511133528893852,-0.9886130672209257,-0.6233717089931364
27080.9147083332,0.1986083984375,-1.028060913085938,0.056732177734375,0.2483493590298133,0.2777133732090269,-0.6838049593975416
27111.0077083331,0.0841217041015625,-0.9905853271484375,0.23431396484375,0.3067314427626393,0.0004516721208774388,-0.417397770280337
27141.0997083331,-0.0765533447265625,-0.94769287109375,0.2953338623046875,0.1653623299857451,-0.6130210671004345,-0.1067546765085893
27171.1937083332,-0.065582275390625,-0.9665985107421875,0.1649932861328125,0.09803388920301584,-0.2360335705687418,-0.1490531314700999
27201.279708333,0.006256103515625,-0.9529876708984375,0.192840576171875,0.1425587468358326,-0.08670746508690884,-0.235939827298371
27231.3787083331,0.0334320068359375,-0.9793243408203125,0.1892242431640625,0.1576703218092692,-0.4341810114700164,-0.2080807654511611
27261.470708333,-0.02191162109375,-0.944732666015625,0.2059783935546875,0.1576703218092692,-0.4341810114700164,-0.2080807654511611
27291.5647083332,0,-0.959259033203125,0.248687744140625,0.1461185942649415,-0.4258690193917701,-0.2273996023147049
27321.654708333,0.062164306640625,-0.9722747802734375,0.2176513671875,0.1164094344084536,-0.1870753486692701,-0.2749351635598563
27351.7417083331,0.0103302001953125,-0.9699554443359375,0.1705474853515625,0.09606128578359416,-0.2965073010217161,-0.2562967643548277
27381.8327083331,0.0322418212890625,-0.99298095703125,0.234954833984375,0.14572977274579,-0.282992024805673,-0.3082015076843631
27411.9247083331,-0.0020904541015625,-0.9656982421875,0.208038330078125,0.1541413670488052,-0.2690538386085253,-0.2975693696644397
27441.997708333,0.0315704345703125,-0.9678192138671875,0.215667724609375,0.1754162957330122,-0.2602153395827703,-0.3901504365355183
27472.085708333,0.078277587890625,-0.955474853515625,0.245330810546875,0.1948086358426422,-0.4810499834943209,-0.4781141147086175
27502.1857083329,0.0724334716796875,-0.921875,0.22003173828125,0.1948086358426422,-0.4810499834943209,-0.4781141147086175
27532.2797083331,0.101226806640625,-0.9441375732421875,0.25714111328125,0.1988896638970797,-0.4233057268425688,-0.5668724801509964
27562.3677083331,0.1324005126953125,-0.949493408203125,0.2462921142578125,0.2049230553466542,-0.3834704295732725,-0.6363263897997179
27592.4577083329,0.155548095703125,-0.9301605224609375,0.2827911376953125,0.2004657226301886,-0.363150776772077,-0.6215722110445699
27622.5467083332,0.2481536865234375,-0.9426727294921875,0.2176361083984375,0.1953814817931183,-0.5548048983035203,-0.5223958257339101
27652.6367083329,0.1580047607421875,-0.9482879638671875,0.237945556640625,0.1940983707799181,-0.4377794747349315,-0.5167448642168709
