time(ms),accelerometerAccelerationX,accelerometerAccelerationY,accelerometerAccelerationZ,gyroRotationX,gyroRotationY,gyroRotationZ
0,0.2042999267578125,-0.990814208984375,0.0250091552734375,0.02798742621175172,-0.02134576876920311,-0.01776168657417447
30.0969999998415,0.14251708984375,-0.9634246826171875,0.0145111083984375,0.0292806572370942,-0.06104284797792423,0.06559845133861378
60.1959999999053,0.1619720458984375,-0.810516357421875,-0.000823974609375,0.04943199825739678,-0.1416154551777266,0.0886318652906001
90.2940000000854,0.174774169921875,-1.019699096679688,-0.0252227783203125,0.04943199825739678,-0.1416154551777266,0.0886318652906001
120.395999999801,0.2068328857421875,-0.9378204345703125,0.054351806640625,0.09325324873021461,0.1064329666489078,-0.1437731482929087
150.490999999874,0.2488250732421875,-0.96417236328125,0.033477783203125,0.1353817940141781,0.2413013032049185,-0.3041013048700771
180.590999999822,0.1998138427734375,-0.9466094970703125,-0.0053863525390625,0.1255531316951316,0.3965494800027607,-0.3030171319903058
210.687999999664,0.0452880859375,-0.9111175537109375,0.0422821044921875,0.124623422158585,0.4049360405915293,-0.3169270886798987
240.785999999844,0.077850341796875,-0.9713592529296875,0.037506103515625,0.3082148234898134,0.4301617687528688,-0.4094184070222416
270.868999999948,0.3370208740234375,-0.978424072265625,0.0621337890625,0.4521711972657196,0.5159291379749796,-0.4983336326528262
300.961999999799,0.2598876953125,-0.9521636962890625,0.0675201416015625,0.4303732237434211,0.1509855211570613,-0.5122023103455228
331.052,0.350189208984375,-0.993621826171875,0.1657257080078125,0.4303732237434211,0.1509855211570613,-0.5122023103455228
361.159999999927,0.26214599609375,-0.9523773193359375,0.1956787109375,0.3343508201117421,0.205891913351225,-0.5282052453358089
391.258000000107,0.336517333984375,-0.9578094482421875,0.096923828125,0.1771747810007916,0.1416562015424048,-0.4043685209632333
421.358999999939,0.37060546875,-0.929046630859375,0.070159912109375,0.1189311816446496,0.3544225326154513,-0.3773837749018965
451.458000000002,0.3305511474609375,-0.963897705078125,0.0348052978515625,0.1397448508280549,0.0861380812458499,-0.2935088479503959
481.557000000066,0.3707733154296875,-0.9052734375,0.15283203125,0.1401315418183344,-0.04908578731568647,-0.312903318588898
511.673999999857,0.3120574951171875,-0.8761749267578125,0.163665771484375,0.09502504980344433,-0.1116868508474161,-0.2819645772571204
541.760999999951,0.3359527587890625,-0.911224365234375,0.1456146240234375,0.09502504980344433,-0.1116868508474161,-0.2819645772571204
571.854999999687,0.367218017578125,-0.9253387451171875,0.129058837890625,0.01670521056974004,-0.0701836157874032,-0.2540647690452323
601.955999999973,0.356536865234375,-0.8706817626953125,0.1270599365234375,0.01670521056974004,-0.0701836157874032,-0.2540647690452323
632.05599999992,0.368133544921875,-0.89007568359375,0.101654052734375,0.01752280102439436,-0.190027995369841,-0.2160199149767963
662.174999999934,0.3137359619140625,-0.986358642578125,0.1884765625,-0.008893892776428623,-0.3326783549471724,-0.2249215309203862
692.273999999998,0.3509674072265625,-0.8874664306640625,0.029998779296875,-0.03163542427294226,-0.2122305030617226,-0.3100180498639061
722.363999999743,0.41375732421875,-1.811721801757812,0.138214111328125,-0.1329508605711537,-0.5143243171020979,-0.2865409532743126
752.454999999827,0.0733489990234375,-1.034591674804688,0.1675262451171875,-0.1329508605711537,-0.5143243171020979,-0.2865409532743126
782.545999999911,-0.127593994140625,-1.324142456054688,0.2806854248046875,0.003669569666020182,-0.7565231055943732,-0.5471246080358408
812.665999999808,-0.163360595703125,-1.4166259765625,0.4381256103515625,0.2929935262794656,-1.426825571949104,-1.548570383285422
842.756000000008,-0.066314697265625,-1.419479370117188,0.159912109375,0.9208159100863424,-0.9416154645159703,-2.58657922977292
872.845999999754,0.0399017333984375,-1.472564697265625,-0.010955810546875,1.323474415313636,-1.004506279974301,-2.480787019682285
902.920999999878,-0.1739654541015625,-1.181472778320312,0.0187835693359375,1.103847248640327,-2.2279712731883,-1.47122446206236
933.027999999922,-0.4297332763671875,-1.032791137695312,-0.178985595703125,0.9401901407005598,-2.281555672217348,-0.8446311270985547
963.116999999784,-0.354522705078125,-0.857177734375,-0.316375732421875,0.9401901407005598,-2.281555672217348,-0.8446311270985547
993.207999999868,-0.226837158203125,-0.8314666748046875,-0.384246826171875,0.8686179527207893,-0.7224498236595723,0.05918955417533809
1023.29899999995,-0.1082305908203125,-0.860687255859375,-0.340057373046875,0.6411413850505812,-0.2427095827893525,1.391517382216833
1053.38799999981,-0.0179595947265625,-0.965545654296875,-0.2492218017578125,0.1945628260740279,-0.2742041258406295,2.701904491301602
1083.47099999992,0.1683197021484375,-1.1070556640625,-0.1462554931640625,-0.1924911530620553,0.04187155023877082,3.59826645731051
1113.5690000001,0.3172760009765625,-1.202987670898438,-0.0687103271484375,-0.4445273923049742,0.7620755301510793,4.204422161436829
1143.65899999984,0.6923828125,-1.276336669921875,0.1346282958984375,-0.6043740493570562,1.618249596362364,4.264952350904913
1173.74999999993,0.808807373046875,-1.29241943359375,0.2152862548828125,-0.7448635200258973,1.14794094049266,3.779911620517108
1203.87099999971,0.739959716796875,-1.067840576171875,0.249114990234375,-0.5793975930737481,0.2046756476813858,3.107358783041261
1233.96599999978,0.719940185546875,-0.8981170654296875,0.1719970703125,-0.5793975930737481,0.2046756476813858,3.107358783041261
1264.05900000009,0.4615325927734375,-0.9808349609375,0.0634765625,-0.2766265371681656,0.1662076173157362,2.367354466740322
1294.12999999977,0.4863433837890625,-0.82977294921875,-0.0611572265625,-0.1027242485148634,0.2010422970061907,1.783574109460631
1324.23199999994,0.4757843017578125,-0.7626190185546875,-0.06298828125,-0.0827737098407528,0.3133560559742114,1.105425970534526
1354.34600000008,0.672027587890625,-0.7341461181640625,0.0223541259765625,-0.1029197245388752,0.8150567231932248,0.3339731838691689
1384.44200000004,0.675811767578125,-0.762908935546875,0.300506591796875,-0.1029197245388752,0.8150567231932248,0.3339731838691689
1414.53999999976,0.6301422119140625,-0.87841796875,0.9789581298828125,-0.07265209980179765,1.109777575755716,-0.5316820021389074
1444.63099999984,0.1811370849609375,-2.265762329101562,0.439117431640625,0.3925331667628122,0.5436976523451269,-1.213859237478192
1474.71399999995,0.3621978759765625,-0.427764892578125,-0.4994354248046875,1.446705536854328,0.6846566383141489,-3.720939912918939
1504.82800000009,0.3084259033203125,-1.533309936523438,0.3184967041015625,0.8369204767944483,-0.1042675503665643,-1.639987382444027
1534.92499999993,0.432891845703125,-0.97119140625,0.2378387451171875,1.048017272180124,0.3306615430536553,-1.459951034851946
1565.02300000011,0.2100067138671875,-0.986358642578125,0.068267822265625,0.6224555815781492,-0.6259983847762816,-0.8989931691659061
1595.10899999987,0.0472259521484375,-0.9597930908203125,0.14208984375,0.5914135095960766,-0.4035783610678069,-0.6214867235735784
1625.21900000002,0.0792999267578125,-0.9782562255859375,0.1842193603515625,0.5914135095960766,-0.4035783610678069,-0.6214867235735784
1655.29900000001,0.1122283935546875,-0.996795654296875,0.1925201416015625,0.5095135829089787,-0.162065070240118,-0.5831454596758165
1685.40799999982,0.05499267578125,-0.9525299072265625,0.18896484375,0.3763291631102251,-0.3277674858970662,-0.393498562657966
1715.4929999997,0.1118316650390625,-0.9608917236328125,0.1406402587890625,0.3221186549088991,-0.3844219770307579,-0.4106109705583791
1745.59399999998,0.0665130615234375,-0.9727935791015625,0.1834716796875,0.3027577401001321,-0.4691381965706145,-0.4869408958255761
1775.67799999997,-0.0565032958984375,-0.940948486328125,0.2097320556640625,0.2837859131266256,-0.5114531631308835,-0.7041669564600694
1805.80599999985,0.0968780517578125,-0.947479248046875,0.201995849609375,0.2837859131266256,-0.5114531631308835,-0.7041669564600694
1835.90400000003,0.1995391845703125,-0.96624755859375,0.126068115234375,0.2584656427465882,-0.2296015039039824,-1.066233560352375
1866.00499999986,0.295501708984375,-0.9680938720703125,0.1648712158203125,0.3223050761852047,-0.2298712821224075,-1.242595278272365
1896.09699999983,0.302093505859375,-0.9633941650390625,0.2431488037109375,0.3613432893402402,-0.2281098673774291,-1.297705135973811
1926.19999999988,0.3375396728515625,-0.989959716796875,0.2884979248046875,0.3406276244849498,-0.2267671015558111,-1.258453869931569
1956.30299999993,0.3995208740234375,-1.0499267578125,0.1230010986328125,0.3749512435622181,-0.3829569721151053,-1.252949914906702
1986.402,0.348175048828125,-1.06915283203125,0.1376953125,0.286086085360127,-0.5763677147015649,-1.208747566081894
2016.49999999972,0.3660736083984375,-1.0545654296875,0.1596221923828125,0.286086085360127,-0.5763677147015649,-1.208747566081894
2046.61299999998,0.375640869140625,-1.084503173828125,0.1825103759765625,0.2707454785329436,-0.5032160058792684,-1.479937792516881
2076.68899999999,0.20855712890625,-1.736679077148438,0.1522369384765625,0.2707454785329436,-0.5032160058792684,-1.479937792516881
2106.80599999978,0.0716705322265625,-1.80535888671875,0.044342041015625,0.1543464304527413,-0.7546706107401141,-1.748816395125679
2136.90700000006,0.0151214599609375,-1.630264282226562,0.033203125,0.4361429622450778,-1.854583571502067,-1.996521002855584
2166.99100000005,-0.285614013671875,-1.589035034179688,0.3058624267578125,0.4693453905034227,-2.440137594067751,-1.833857254002417
2197.08999999966,-0.0692901611328125,-1.03643798828125,0.295928955078125,0.357942698944318,0.1434666184514406,-2.617966181116158
2227.18399999985,0.7333831787109375,-0.91094970703125,0.22882080078125,0.4523951691133953,0.9010049210533519,-2.356682913936265
2257.30199999998,0.4110565185546875,-0.906036376953125,-0.0238800048828125,0.2782055253784736,-0.103955694202916,-1.42803997340618
2287.40100000005,0.0410308837890625,-0.4833984375,0.1997222900390625,0.2782055253784736,-0.103955694202916,-1.42803997340618
2317.49799999989,0.0583038330078125,-0.5015411376953125,0.2506866455078125,-0.121163709586463,-1.48998856247084,0.02861832907399149
2347.59299999996,-0.0042266845703125,-0.4172821044921875,0.157135009765625,-0.3823529671798753,-0.6754221272342992,0.978240587407285
2377.66599999986,0.0289154052734375,-0.4734649658203125,0.1532135009765625,-0.561680647605887,-0.4340060417863982,2.033293931187398
2407.78799999998,0.0518646240234375,-0.555633544921875,0.123748779296875,-0.6919140186007238,0.1090604413803799,3.153962770537102
2437.88099999983,0.2490386962890625,-0.77508544921875,0.1744232177734375,-0.7354489792563581,0.8058320658094082,3.939803817623831
2467.97599999991,0.3224334716796875,-1.014389038085938,0.2992706298828125,-0.7714032518690819,0.7484894138500401,4.709109563818366
2498.0700000001,0.3689422607421875,-1.307830810546875,0.3389892578125,-0.7714032518690819,0.7484894138500401,4.709109563818366
2528.16099999973,0.592803955078125,-1.412918090820312,0.4027557373046875,-0.6704169822816042,1.402050450644206,4.872010334008551
2558.2529999997,0.8519439697265625,-1.294525146484375,0.30682373046875,-0.6310639834857213,2.011225646814457,4.712957298961313
2588.34999999999,0.6199188232421875,-1.342544555664062,0.321746826171875,-0.6528481085703515,1.838568652286876,4.176901321048059
2618.44500000007,0.8267059326171875,-1.301361083984375,0.2328948974609375,-0.4654561100474709,1.937708285974493,3.52250644851659
2648.54199999991,0.9222564697265625,-1.0753173828125,0.3105621337890625,-0.484953911336268,2.100867649106524,2.334468954651697
2678.64099999997,1.365798950195312,-0.8033447265625,0.402252197265625,-0.02039129183451871,1.336431492965198,0.8395538104803186
2708.7389999997,0.9868011474609375,-0.838775634765625,0.2881622314453125,-0.02039129183451871,1.336431492965198,0.8395538104803186
2738.83500000011,0.698394775390625,-1.07501220703125,0.12646484375,0.5226216617943488,-0.5330207732188902,-0.5647438154916961
2768.93399999972,-2.023727416992188,-1.826858520507812,1.066726684570312,0.4324954968161052,0.4461577795243207,-1.939549329236064
2799.02999999968,1.83502197265625,-0.673248291015625,-0.45465087890625,1.359351189938638,2.310876543186902,-2.549177795423847
2829.13199999984,0.3325958251953125,-1.336395263671875,0.3472442626953125,0.945506875500794,-0.1198483743240729,-1.5058724541604
2859.22699999992,0.2647552490234375,-1.050491333007812,0.091217041015625,0.8548201151130889,-0.3048123688811282,-1.094170652819524
2889.30600000003,0.024932861328125,-0.9651947021484375,0.1770782470703125,0.5540621426754972,-0.6136162836040672,-0.7973211355977331
2919.40399999976,0.0457305908203125,-0.9812469482421875,0.09649658203125,0.5831531828429778,0.2017123483364546,-0.7222868382008595
2949.50299999982,0.1545257568359375,-1.012908935546875,0.119537353515625,0.5831531828429778,0.2017123483364546,-0.7222868382008595
2979.59599999967,0.018035888671875,-0.980010986328125,0.097320556640625,0.4784067961124173,-0.4150954675179635,-0.4401052133148977
3009.68299999977,-0.0648651123046875,-0.9571075439453125,0.1984710693359375,0.4803096247112789,-0.7465727368135101,-0.2782068569590186
3039.78800000004,0.1160430908203125,-0.97515869140625,0.1820220947265625,0.4556860372724063,-0.4085502165068758,-0.4136869216174206
3069.88599999977,0.091827392578125,-0.960235595703125,0.185394287109375,0.3651191191337546,-0.4918259322131085,-0.4234567280763763
3099.98599999972,0.0888519287109375,-0.9815826416015625,0.1918487548828125,0.3106979548902034,-0.3985228823705094,-0.439377371388979
3130.08499999978,0.0717315673828125,-0.9808197021484375,0.20208740234375,0.2463045839448504,-0.3674243513733271,-0.5135839583190559
3160.17800000009,0.104583740234375,-0.988250732421875,0.1891632080078125,0.2463045839448504,-0.3674243513733271,-0.5135839583190559
3190.2769999997,0.0912628173828125,-1.006423950195312,0.184906005859375,0.1950933277631717,-0.2547800941140276,-0.6318799760437216
3220.36899999966,0.1398468017578125,-1.024322509765625,0.166259765625,0.1537176581193736,-0.2846413204687591,-0.7534705903529243
3250.46699999984,0.1029510498046875,-1.019149780273438,0.1527099609375,0.1387677370241048,-0.4106724895795599,-0.9371144559576273
3280.58999999985,0.131744384765625,-1.051864624023438,0.139923095703125,0.1246306126935282,-0.3726824966295796,-1.216598831291557
3310.67600000006,0.2032623291015625,-1.086441040039062,0.059844970703125,0.1609124541203317,-0.4239709844828706,-1.505788564586062
3340.76999999979,0.15789794921875,-1.094161987304688,0.1117095947265625,0.07836351507558158,-0.3712446559570458,-1.78163346397429
3370.86099999988,0.1380767822265625,-1.178787231445312,0.166229248046875,0.07836351507558158,-0.3712446559570458,-1.78163346397429
3400.98099999977,0.182403564453125,-1.279052734375,0.037506103515625,0.04531661542489732,-0.3853948297769638,-2.18346053030926
3431.07299999974,-0.168731689453125,-2.018875122070312,0.0922088623046875,0.05849100702141031,-0.7215478109983625,-2.573327872820903
3461.19300000009,-0.3153533935546875,-1.876602172851562,0.0327911376953125,0.01486070519875116,-1.28418932712555,-2.817323762416764
3491.28299999984,-0.371490478515625,-1.41705322265625,0.333587646484375,0.147210223995765,-2.217368962572585,-2.296937291725319
3521.37300000004,0.2975921630859375,-1.489059448242188,0.38916015625,-0.0866185155065002,1.025956178342126,-3.497367006774569
3551.48899999995,0.4760284423828125,-1.087493896484375,0.197540283203125,0.1741723331878362,1.6403088259876,-2.994182692512272
3581.58400000002,0.433258056640625,-0.71929931640625,0.106689453125,0.1741723331878362,1.6403088259876,-2.994182692512272
3611.68599999974,0.0418701171875,-0.1456451416015625,0.06842041015625,-0.01179300993908888,-0.6722087570630095,-1.504509448314497
3641.76499999985,0.090545654296875,-0.21539306640625,0.097625732421875,-0.3498661303064347,-1.518965353027556,0.4436027427744987
3671.87999999987,-0.049560546875,-0.207733154296875,0.034698486328125,-0.3514128942675527,-0.9001266105258439,1.804512148266942
3701.97599999983,0.0929412841796875,-0.336090087890625,0.02410888671875,-0.2139120229739986,-0.7132390147134243,3.099947472043679
3732.06699999992,0.0721588134765625,-0.592620849609375,-0.034942626953125,0.01333711073911682,-0.2282515475474213,4.15662827356594
3762.16999999997,0.305755615234375,-0.8892669677734375,0.0012054443359375,0.1960422120595669,0.4813839438950168,4.758760473917367
3792.26500000004,0.2560577392578125,-1.123092651367188,0.0792694091796875,0.1960422120595669,0.4813839438950168,4.758760473917367
3822.36199999988,0.475677490234375,-1.387985229492188,0.2304229736328125,0.2679720625737351,0.9168304895150389,5.167843855274477
3852.45899999973,0.5398406982421875,-1.602981567382812,0.2662353515625,0.2218197471987709,1.683472275671168,5.293738936853575
3882.55499999968,0.8140106201171875,-1.68902587890625,0.1471405029296875,0.01347692669634598,1.44331719699942,5.1316839866256
3912.64899999987,0.9649810791015625,-1.526809692382812,0.1689453125,-0.3786090953194419,-0.04150563190499394,4.728811096930555
3942.74300000006,0.7446136474609375,-1.158294677734375,0.25201416015625,-0.3853767202815513,-0.9187120128251799,3.875521766812043
3972.8369999998,1.207550048828125,-0.8428192138671875,0.1670989990234375,0.05200141607710522,0.5740315897933475,1.452164218140663
4002.93000000011,1.177780151367188,-0.76556396484375,0.1487274169921875,0.3827151570881261,0.5990767556327796,-1.201496577381936
4033.02099999974,0.15667724609375,-1.23797607421875,-0.0345306396484375,0.1907585004568497,1.142497971856756,-2.388985726378381
4063.1199999998,-0.7950592041015625,-1.24566650390625,0.4402008056640625,0.1907585004568497,1.142497971856756,-2.388985726378381
4093.21399999999,1.088912963867188,-1.902008056640625,-1.161117553710938,0.9856638826297719,2.219469930356549,-2.051824472368279
4123.31199999971,-0.2703094482421875,-0.8260498046875,0.4676666259765625,1.036092702083185,-1.724847146366639,-2.185522882257418
4153.40999999989,0.2159576416015625,-1.112274169921875,0.2646484375,0.7415849024079006,0.02381505173192458,-1.430575569080045
4183.50400000008,0.0287933349609375,-0.9942779541015625,0.1845245361328125,0.2265412654953724,-1.124275558413998,-0.9671320098683465
4213.59399999983,-0.0450439453125,-0.966552734375,-0.0106353759765625,0.4053911748218238,-0.7202921305443901,-0.664629933232862
4243.69399999978,-0.10784912109375,-0.9810791015625,0.259918212890625,0.4053911748218238,-0.7202921305443901,-0.664629933232862
4273.78199999976,0.0293731689453125,-0.9496307373046875,0.3064422607421875,0.2516194545323215,-0.4787215817532646,-0.5970144036846222
4303.87699999983,-0.0684356689453125,-0.97369384765625,0.21893310546875,0.2516194545323215,-0.4787215817532646,-0.5970144036846222
4333.97699999978,-0.0057830810546875,-0.9607391357421875,0.13555908203125,0.2113953357438737,-0.3803169805265098,-0.6426884153278082
4364.0849999997,0.0609283447265625,-0.972412109375,0.2350311279296875,0.2388490644731736,-0.1248154360731797,-0.7442214318870791
4394.17800000001,-0.02386474609375,-0.96026611328125,0.267120361328125,0.1689607932506602,-0.2986418246354146,-0.778834802890948
4424.29099999981,-0.00341796875,-0.948150634765625,0.2294921875,0.1278048343967936,-0.1385166009333103,-0.944227759229229
4454.38699999977,0.1379547119140625,-0.9993743896484375,0.1511688232421875,0.1505346479845109,-0.01843466738163749,-1.086501814144532
4484.48699999972,0.1573486328125,-1.01141357421875,0.1851654052734375,0.15974519061455,-0.185727256525472,-1.12800105446291
4514.58099999991,0.178558349609375,-1.015975952148438,0.1887359619140625,0.15974519061455,-0.185727256525472,-1.12800105446291
4544.6750000001,0.15234375,-1.03302001953125,0.1759796142578125,0.1606733022544426,-0.378745981799472,-1.190711840231551
4574.76199999974,0.15875244140625,-1.091659545898438,0.12384033203125,0.2013309836683553,-0.3729533401124406,-1.397122537363123
4604.8539999997,0.1948394775390625,-1.112045288085938,0.1328582763671875,0.1342781800584492,-0.3229567517039471,-1.623821461995028
4634.96799999984,0.204864501953125,-1.167236328125,0.1426849365234375,0.1342781800584492,-0.3229567517039471,-1.623821461995028
4665.06499999969,0.2176666259765625,-1.169082641601562,0.156341552734375,0.08425602530349091,-0.2773205569482403,-2.242431971591321
4725.12095833281,0.16876220703125,-2.035842895507812,0.1936187744140625,0.2698533195677671,-0.9344305222110455,-2.537331788579065
4755.19195833294,-0.5836029052734375,-1.994720458984375,0.3224029541015625,0.3349801250773278,-2.848588474665967,-2.300059848103437
4785.31795833305,-0.2792816162109375,-1.17431640625,0.47265625,0.427748944805257,-4.498692673458987,-1.785087051275905
4815.41495833289,0.344085693359375,-1.579940795898438,0.2142486572265625,-0.01212270928204069,0.1280375946760666,-3.063947393060206
4845.51095833285,0.7585906982421875,-0.9322357177734375,0.3254547119140625,0.2160065991713459,1.736520314056675,-2.823994448315195
4875.61195833268,0.4103240966796875,-0.6192779541015625,0.1044158935546875,0.1515743460740779,0.3361995865404751,-1.027982311299458
4905.70895833298,0.0777740478515625,-0.0157928466796875,-0.07220458984375,0.1515743460740779,0.3361995865404751,-1.027982311299458
4935.80595833282,0.1239471435546875,-0.146636962890625,0.09588623046875,-0.3325068473729712,-0.9956243714227773,0.9507969786901275
4965.88195833283,0.0907440185546875,-0.2086181640625,0.0093231201171875,-0.246324025020808,-0.5683113860879662,2.022726507981964
4995.99895833308,0.0341796875,-0.3655853271484375,0.035125732421875,-0.1530148499077017,-0.5807286409865696,3.280710596297244
5026.09895833302,0.1458740234375,-0.6696624755859375,-0.0521240234375,0.08753197976039738,0.1644025267288805,4.161141000033079
5056.19895833297,0.3308868408203125,-0.9146728515625,-0.0738372802734375,0.1129246881220849,0.6076468080206546,4.626281525491375
5086.29795833303,0.398590087890625,-1.268051147460938,0.104095458984375,-0.03259309700093475,1.318382184993296,4.961642748920694
5116.39395833299,0.6344451904296875,-1.412887573242188,0.2431640625,-0.03259309700093475,1.318382184993296,4.961642748920694
5146.48995833295,0.734375,-1.471817016601562,0.338653564453125,-0.2567313922447286,2.191131499513125,4.741368434102496
5176.58795833268,0.8318939208984375,-1.347000122070312,0.233428955078125,-0.3630543703406161,1.827157007015886,4.244207923909849
5206.68595833286,0.78900146484375,-1.256393432617188,0.178497314453125,-0.3052102451479861,0.4251052247911353,3.803817752358314
5236.78195833281,0.72125244140625,-1.157928466796875,0.246734619140625,-0.2076365501813359,-0.04765753402307697,2.831613752193911
5266.87895833311,0.73822021484375,-0.8687286376953125,0.36004638671875,-0.1409792259933066,0.4289886462926889,1.339707713738214
5296.97295833284,0.7310028076171875,-0.7775115966796875,0.2800445556640625,0.2545452033058826,0.9497191973969724,-0.4482406378128717
5327.06795833292,0.60693359375,-0.844696044921875,0.1169281005859375,0.2545452033058826,0.9497191973969724,-0.4482406378128717
5357.16395833288,-2.3238525390625,-1.94097900390625,-0.029876708984375,0.4670321687805798,1.155814842571588,-1.662449814658301
5387.25495833296,1.816329956054688,-1.475051879882812,-0.484466552734375,0.8559029564123151,1.299968290268161,-1.591086418507992
5417.35495833291,-0.1567535400390625,-0.8787994384765625,0.417877197265625,1.220098224963921,0.558386583653568,-2.49455423093745
5447.44995833298,0.312255859375,-1.115249633789062,0.2001495361328125,0.8735266912420234,0.2499914641579561,-1.511938336175273
5477.54295833283,0.0513916015625,-1.025115966796875,0.080841064453125,0.4193370841861327,-1.07235803191123,-0.9254772409423081
5507.64095833301,-0.053009033203125,-0.96368408203125,0.1576690673828125,0.4968973898769464,-0.0715279795056752,-0.8118068677150011
5537.73495833275,0.115936279296875,-1.019989013671875,0.1629791259765625,0.4968973898769464,-0.0715279795056752,-0.8118068677150011
5567.83095833271,0.0523834228515625,-0.9638824462890625,0.2653656005859375,0.4558868396185982,-0.1915601119449636,-0.6579552525927964
5597.92695833266,-0.085113525390625,-0.970550537109375,0.21185302734375,0.2782840886306309,-0.6222537139675212,-0.476584661294585
5628.02595833273,0.0329132080078125,-0.960235595703125,0.179962158203125,0.2157631862477127,-0.2560866409448205,-0.6668701843418366
5658.11595833293,0.110504150390625,-0.98956298828125,0.15093994140625,0.2334276674420993,-0.09608205844009678,-0.7401814165134289
5688.21995833287,0.033782958984375,-0.9657745361328125,0.195556640625,0.2284049456262098,-0.212143151377968,-0.7554759506537541
5718.29695833276,0.092620849609375,-0.96044921875,0.235748291015625,0.2010654665076744,0.001190166691156411,-0.9210944767363647
5748.38995833306,0.164459228515625,-0.9731597900390625,0.1869354248046875,0.2010654665076744,0.001190166691156411,-0.9210944767363647
5778.493958333,0.2040863037109375,-1.007125854492188,0.1475677490234375,0.1804134512024369,-0.005801163802519604,-0.9862007759055319
5808.59195833273,0.202484130859375,-1.0137939453125,0.1771240234375,0.1851845042953139,-0.1304789144473422,-1.017346711170118
5838.70795833309,0.2433319091796875,-1.008575439453125,0.217926025390625,0.1912682294894909,-0.2404743916864489,-1.073078683302206
5868.80295833271,0.2348175048828125,-1.029251098632812,0.1822967529296875,0.2048570089516202,-0.4471463449209581,-1.119624880202393
5898.90795833298,0.195770263671875,-1.064193725585938,0.176513671875,0.1731856320039619,-0.4781170441858166,-1.249656649902711
5929.00595833271,0.227569580078125,-1.079315185546875,0.135498046875,0.1329729648082014,-0.303864816165278,-1.504625029505807
5959.106958333,0.2235565185546875,-1.094924926757812,0.1161956787109375,0.09130248323173157,-0.2873819795465596,-1.803365657417663
5989.19795833308,0.2259368896484375,-1.125274658203125,0.131927490234375,0.09130248323173157,-0.2873819795465596,-1.803365657417663
6019.30195833302,0.279876708984375,-1.623062133789062,0.091583251953125,0.176382756892602,-0.5654050783903627,-2.133376323900903
6049.3929583331,-0.09747314453125,-2.144149780273438,0.20758056640625,0.1087965221163531,-1.727972365905847,-2.260874095824011
6079.49395833293,-0.695068359375,-1.186248779296875,0.354095458984375,0.3859588872958426,-3.697900640012554,-1.77123941255582
6109.592958333,0.1649017333984375,-1.3565673828125,0.466522216796875,0.2116568581629195,-0.7382690005346431,-2.711605321888324
6139.68995833284,0.5758209228515625,-1.211715698242188,0.268463134765625,0.2409558912115353,0.111952634324206,-2.66022655287408
6169.7889583329,0.72576904296875,-0.6476593017578125,0.118011474609375,0.4014046889860842,0.5919123196682484,-1.548630570726058
6199.8789583331,0.5983123779296875,-0.3900604248046875,0.0846710205078125,0.4014046889860842,0.5919123196682484,-1.548630570726058
6229.98595833269,0.180694580078125,-0.28875732421875,0.1418609619140625,-0.1285249531555511,-1.44613854985825,0.8081671254531898
6260.07595833289,0.0574798583984375,-0.1887359619140625,0.1749725341796875,-0.1285249531555511,-1.44613854985825,0.8081671254531898
6290.17195833285,0.1327362060546875,-0.2299652099609375,0.0919647216796875,0.05715942647637069,-0.6417805437122002,1.916865322019096
6320.27095833291,0.0887451171875,-0.4284210205078125,-0.03045654296875,0.1876527219935993,-0.2899745668677517,2.850041495356714
6350.37595833273,0.1142730712890625,-0.6063232421875,-0.04071044921875,0.2550448123263815,0.2244866367143762,3.671974766800633
6380.48995833287,0.240447998046875,-0.8447265625,-0.024078369140625,0.1567741681024576,0.6075136499661506,4.222832061420329
6410.58895833294,0.233856201171875,-1.039352416992188,0.1399993896484375,0.1567741681024576,0.6075136499661506,4.222832061420329
6440.67895833268,0.344482421875,-1.275115966796875,0.17059326171875,0.1274399813274528,1.257126550444274,4.587175668044652
6470.79995833292,0.444549560546875,-1.441986083984375,0.189056396484375,0.07649344335812794,1.780044888384057,4.692184109826477
6500.88895833278,0.424835205078125,-1.566757202148438,0.2021331787109375,-0.09981341344340679,1.520426895833792,4.731860949010913
6531.00995833302,0.7079925537109375,-1.64068603515625,0.119781494140625,-0.2260664238730113,0.8505729058066305,4.536903708779445
6561.09995833276,0.8668670654296875,-1.372039794921875,0.19903564453125,-0.4927183574943941,-0.1184084031226671,3.727987702427725
6591.20195833293,1.019577026367188,-0.7188568115234375,0.3630218505859375,-0.1334728401448093,0.4385331493234239,1.832990927699814
6621.31195833308,1.080307006835938,-0.7427978515625,0.283966064453125,-0.1334728401448093,0.4385331493234239,1.832990927699814
6651.41595833302,0.640228271484375,-0.9734649658203125,-0.0001220703125,0.1828755436302152,1.757468739191238,-2.227752627662804
6681.52295833306,-0.7877655029296875,-1.8785400390625,1.104904174804688,0.1828755436302152,1.757468739191238,-2.227752627662804
6711.61495833303,1.323089599609375,-0.950836181640625,-0.3604278564453125,1.413008559581555,3.304136826510017,-3.689632590092294
6741.72695833295,-0.128387451171875,-0.9332122802734375,0.4477386474609375,1.153069656119935,-0.1378465496030464,-1.935642738233027
6771.83895833286,0.5947113037109375,-1.199356079101562,0.0440216064453125,0.4168672685911932,0.1253933420297269,-1.638285089875249
6801.93295833305,0.0155792236328125,-0.9506683349609375,0.0961151123046875,0.4168672685911932,0.1253933420297269,-1.638285089875249
6832.03495833277,-0.0735626220703125,-0.9883270263671875,0.11785888671875,0.5264582116607169,-0.1978105510233795,-0.6648272734696369
6862.13695833294,0.068756103515625,-0.9704132080078125,0.2349700927734375,0.5264582116607169,-0.1978105510233795,-0.6648272734696369
6892.22795833302,0.0436859130859375,-0.9761505126953125,0.2933807373046875,0.4110554521443133,-0.3884494755472847,-0.5366804891888771
6922.35195833291,-0.0969085693359375,-0.95721435546875,0.198028564453125,0.2216988396852813,-0.7681773648406689,-0.3610466131948054
6952.45795833307,0.0133056640625,-0.957672119140625,0.2081756591796875,0.2443463615953151,-0.3357002438360852,-0.5340402312841726
6982.5489583327,0.02056884765625,-0.9718475341796875,0.2311553955078125,0.2375726113626986,-0.3022805016327899,-0.6035532631090937
7012.65995833273,0.0055084228515625,-0.9530792236328125,0.2584686279296875,0.2375726113626986,-0.3022805016327899,-0.6035532631090937
7042.7619583329,0.048614501953125,-0.9656829833984375,0.2286834716796875,0.17947575218262,-0.09748394643791448,-0.8876172102535237
7072.86395833307,0.108428955078125,-0.976348876953125,0.1635894775390625,0.17947575218262,-0.09748394643791448,-0.8876172102535237
7102.9649583329,0.109466552734375,-0.9862060546875,0.1934967041015625,0.2070863411001255,-0.1988401291008042,-1.059366066849388
7133.06695833307,0.201324462890625,-1.02423095703125,0.1866912841796875,0.2386413379081474,-0.2489331239407586,-1.206900397549815
7163.16995833267,0.2107391357421875,-1.004531860351562,0.2798004150390625,0.2580480590876638,-0.3624820570223581,-1.309384961566572
7193.27195833284,0.222076416015625,-1.069198608398438,0.0936279296875,0.2665619187765381,-0.6161212529253958,-1.374854249592317
7223.37395833301,0.156829833984375,-1.123641967773438,0.141448974609375,0.2183198208941888,-0.4412365241459633,-1.677832233114598
7253.47295833308,0.22967529296875,-1.155227661132812,0.226470947265625,0.2183198208941888,-0.4412365241459633,-1.677832233114598
7283.57695833301,0.2050628662109375,-1.216049194335938,0.1617279052734375,0.2182543071313728,-0.8346578551323169,-2.419029379267783
7313.67995833307,0.2322540283203125,-1.722442626953125,0.0643310546875,0.2182543071313728,-0.8346578551323169,-2.419029379267783
7343.7809583329,-0.1971588134765625,-2.274826049804688,0.1181793212890625,0.1721392760116697,-1.712546537923781,-2.591822195010959
7373.88195833273,-0.6573028564453125,-1.2144775390625,0.310791015625,0.4340201565401756,-3.847980686398988,-2.051197031615456
7403.9839583329,0.1689910888671875,-1.483047485351562,0.377044677734375,0.1769952839433202,-1.131677814663873,-2.817020961000822
7434.07895833298,0.877410888671875,-1.046707153320312,0.358978271484375,0.1224553427151515,-0.0477558046673009,-2.645230559091953
7464.17395833305,0.3424072265625,-0.6747589111328125,-0.1194915771484375,0.1545821202092134,0.2150534538172066,-1.392637241455212
7494.26895833267,0.1241302490234375,-0.2912139892578125,0.0459136962890625,-0.08992749316092365,-1.260862166505328,0.07537145359087756
7524.36295833286,0.09295654296875,-0.0972900390625,0.0897064208984375,-0.08992749316092365,-1.260862166505328,0.07537145359087756
7554.46095833304,0.1087646484375,-0.2197265625,0.058319091796875,-0.04321245184762572,-1.018972038383393,1.364432501298509
7584.55895833276,0.0554046630859375,-0.3071441650390625,0.0487060546875,-0.03449406138703331,-0.7244248239239751,2.604926545470803
7614.65295833295,0.062469482421875,-0.557464599609375,-0.0015869140625,0.01658350410792342,-0.1260633933599908,3.543404007274332
7644.74795833303,0.24920654296875,-0.6861419677734375,-0.0197906494140625,0.1419699219188161,0.6150080515897426,4.108671666552447
7674.84695833309,0.300811767578125,-0.9727783203125,0.05816650390625,0.1419699219188161,0.6150080515897426,4.108671666552447
7704.92995833274,0.383880615234375,-1.229888916015625,0.18243408203125,-0.1199961797645723,1.784595431738676,4.788650728727981
7735.04695833299,0.4387664794921875,-1.41448974609375,0.25482177734375,-0.1199961797645723,1.784595431738676,4.788650728727981
7765.14395833283,0.4746856689453125,-1.557876586914062,0.304656982421875,-0.3520643034701861,1.9512224969261,4.697382067642093
7795.25095833287,0.50592041015625,-1.596542358398438,0.2754364013671875,-0.4807232136285682,1.728609394038594,4.572058500432926
7825.33695833308,0.74969482421875,-1.417465209960938,0.279632568359375,-0.4568423818177186,0.81348492551786,4.250883403498243
7855.45695833298,0.7238616943359375,-0.9846954345703125,0.2006072998046875,-0.1169644371796261,-0.4285084783481476,3.286430800002625
7885.55795833281,0.8429718017578125,-0.8470916748046875,0.13238525390625,-0.1169644371796261,-0.4285084783481476,3.286430800002625
7915.6589583331,0.8557891845703125,-0.6818084716796875,0.176513671875,0.4286027542507364,0.6563807917563416,-1.105612391810832
7945.75395833272,0.619232177734375,-0.86175537109375,0.0944671630859375,0.4286027542507364,0.6563807917563416,-1.105612391810832
7975.854958333,-2.88677978515625,-2.114059448242188,0.173370361328125,0.4680281910282694,1.090451814673338,-2.34389574596225
8005.95395833307,1.999465942382812,-1.36602783203125,-0.4262237548828125,1.046059049830589,1.762154837445341,-2.448026409848784
8036.05595833278,-0.11395263671875,-0.9292449951171875,0.5679473876953125,1.17694356371195,-0.7002662244114304,-2.299508307441681
8066.15795833295,0.5015411376953125,-1.123870849609375,0.06793212890625,0.6333316651539238,0.7659930401145859,-1.784442832608214
8096.2579583329,0.160400390625,-1.0595703125,0.1201171875,0.237080192877143,-0.9422588842353334,-1.075794574981868
8126.35895833273,0.002349853515625,-0.964111328125,0.026092529296875,0.237080192877143,-0.9422588842353334,-1.075794574981868
8156.45895833268,0.06768798828125,-0.999542236328125,0.110992431640625,0.4667288347324198,-0.2881180772718575,-0.7606123894481899
8186.55795833274,0.0431671142578125,-0.981414794921875,0.2441558837890625,0.5837499972432646,-0.1346763226414161,-0.6370774012271202
8216.65695833281,-0.0054931640625,-0.9539337158203125,0.2269134521484375,0.3446186376945426,-0.683785518321584,-0.4799477011191371
8246.73995833291,0.008880615234375,-0.959197998046875,0.1324920654296875,0.2850501156960862,-0.4334217442432348,-0.533113983857043
8276.85595833282,0.083984375,-0.9636688232421875,0.2501220703125,0.3083359973194121,-0.1238343275275945,-0.6509985431932914
8306.953958333,0.0911407470703125,-0.9738922119140625,0.2182159423828125,0.2217955124328512,-0.3492589295778967,-0.6204283833563808
8337.05195833272,0.027618408203125,-0.962432861328125,0.1992645263671875,0.1916573173247515,-0.2735125029055359,-0.7074335898531606
8367.1499583329,0.0943603515625,-0.978485107421875,0.1817169189453125,0.1916573173247515,-0.2735125029055359,-0.7074335898531606
8397.25095833273,0.145477294921875,-0.981414794921875,0.1708526611328125,0.1879547244612143,-0.1738985602277761,-0.8721580927578317
8427.3499583328,0.1689300537109375,-1.0179443359375,0.19891357421875,0.1942997057583281,-0.1544942358932407,-0.9681171131555668
8457.44895833286,0.2220458984375,-1.01055908203125,0.1777496337890625,0.199605787914202,-0.222228276109989,-1.056081590276993
8487.55195833292,0.1736907958984375,-1.049148559570312,0.19329833984375,0.1825567632477327,-0.3835668360047335,-1.139372486001439
8517.65295833275,0.2015380859375,-1.101303100585938,0.1198272705078125,0.1873264847600646,-0.5226863766088378,-1.367528958697945
8547.74995833304,0.1579437255859375,-1.146026611328125,0.1280975341796875,0.1536822380768756,-0.4343788843390093,-1.726319341817235
8577.85195833276,0.2414093017578125,-1.193572998046875,0.1255340576171875,0.1536822380768756,-0.4343788843390093,-1.726319341817235
8607.95195833271,0.1978759765625,-1.348464965820312,0.0575714111328125,0.1149034168120138,-0.4641687379765266,-2.089738298911083
8638.02795833271,-0.096435546875,-1.87274169921875,0.16485595703125,0.06524824565526836,-0.9761377554105585,-2.375648615639265
8668.15195833306,-0.2121429443359375,-1.8416748046875,0.0684967041015625,0.3337707836263228,-2.373395315040949,-2.444739270115299
8698.24595833279,-0.450927734375,-1.22222900390625,0.3279266357421875,0.3182935566352184,-3.813360923808504,-1.82111615871526
8728.35295833283,0.15179443359375,-1.504379272460938,0.3819122314453125,0.06815854809450696,0.2560213934981135,-3.295319366456873
8758.42795833296,0.67822265625,-0.9951171875,0.24395751953125,0.2202719179732169,0.9833328177276255,-2.730824023894881
8788.53295833278,0.494537353515625,-0.5895233154296875,0.0731048583984375,0.2202719179732169,0.9833328177276255,-2.730824023894881
8818.63495833295,0.1228179931640625,-0.288848876953125,0.055328369140625,0.2626896825515629,0.07024486849247502,-1.198055240621335
8848.73395833301,0.0847015380859375,-0.2362060546875,0.2335052490234375,-0.110474846235321,-1.037204571838293,0.3699980302507797
8878.84495833305,0.141326904296875,-0.228973388671875,0.1448516845703125,-0.1222872972503675,-0.6636943647419172,1.52354119641253
8908.9479583331,0.0359039306640625,-0.355010986328125,0.08056640625,-0.03948269474096974,-0.5844871602329985,2.555004259256722
8939.04195833284,0.063201904296875,-0.49395751953125,0,0.08149379462086072,-0.5667893895249859,3.719258393006663
8969.14295833267,0.1242523193359375,-0.7893524169921875,-0.0521392822265625,0.2158571958341925,0.2181512427971868,4.437740372958126
8999.24595833272,0.1350860595703125,-1.09173583984375,0.01129150390625,0.2158571958341925,0.2181512427971868,4.437740372958126
9029.34295833302,0.2209014892578125,-1.348876953125,0.08380126953125,0.1617217887756068,0.7633455916749382,5.035869309558946
9059.44095833274,0.5122222900390625,-1.585586547851562,0.126861572265625,0.1705174109078115,1.771539550810671,5.286398732257099
9089.53895833292,0.5805816650390625,-1.58624267578125,0.1874542236328125,-0.1762240324916333,1.755664713868818,5.154896631318948
9119.63995833275,0.594482421875,-1.70159912109375,0.103057861328125,-0.4500249557432248,1.610773570550294,4.711536236203647
9149.73695833305,0.84088134765625,-1.3775634765625,0.3160400390625,-0.6341234229460043,1.611470519807568,3.853516066724718
9179.83295833301,1.109909057617188,-0.83697509765625,0.45269775390625,-0.1370076538596715,0.8923957201974528,2.30529908491595
9209.90395833269,1.143936157226562,-0.77618408203125,0.264373779296875,-0.1370076538596715,0.8923957201974528,2.30529908491595
9240.03095833268,0.8751373291015625,-0.83013916015625,0.179840087890625,0.2856953996282124,0.187743535786771,-0.2717050154736992
9270.12795833298,-2.196823120117188,-2.050796508789062,0.370208740234375,0.4021983109909278,0.5054623822587503,-2.20863805525487
9300.22495833282,1.437301635742188,-1.336380004882812,-0.48187255859375,1.126762418239914,0.441193114620195,-2.73958901967455
9330.32095833278,0.05419921875,-0.8774261474609375,0.8578338623046875,1.125340023901703,-0.8622447419161208,-2.446987510707544
9360.41895833296,0.4244384765625,-1.1422119140625,0.13446044921875,0.6935233668474587,0.4139985114649599,-1.677365913607725
9390.51295833269,0.206451416015625,-1.037307739257812,0.1433258056640625,0.3213780298097481,-0.7868706251641531,-1.087832329425136
9420.61095833287,0.073699951171875,-0.9810791015625,-0.0040283203125,0.4467860192254704,-0.7454731175994164,-0.6375165564908744
9450.71095833282,-0.0518798828125,-0.9832000732421875,0.1636962890625,0.4467860192254704,-0.7454731175994164,-0.6375165564908744
9480.79395833292,0.055511474609375,-0.9926300048828125,0.296234130859375,0.5653345046214756,-0.3193684084511743,-0.5902529039930201
9510.89095833277,-0.03521728515625,-0.942352294921875,0.2483367919921875,0.3166506525587485,-0.5774673339156586,-0.4744365555593271
9540.99195833305,-0.0720367431640625,-0.9347686767578125,0.1700439453125,0.229082720123635,-0.6159537400928298,-0.4706127888661913
9571.08395833302,0.0336151123046875,-0.9701690673828125,0.2091827392578125,0.2682173397101314,-0.137059585500928,-0.6927776817422365
9601.18895833284,-0.0009613037109375,-0.9520263671875,0.2574462890625,0.2245372367750877,-0.1784791973027124,-0.7972673397437134
9631.27895833304,0.0281829833984375,-0.9593505859375,0.229888916015625,0.1974177347625929,-0.1225472217727592,-0.9640310250950582
9661.38595833309,0.109649658203125,-0.9817352294921875,0.1788330078125,0.1974177347625929,-0.1225472217727592,-0.9640310250950582
9691.3934583331,0.2075042724609375,-1.017318725585938,0.178466796875,0.2087718557540367,-0.1164624313141462,-1.126988786932571
9721.48845833271,0.22015380859375,-1.045989990234375,0.2005157470703125,0.2404885064402264,-0.3655572091330726,-1.165671468082081
9751.58045833268,0.2162628173828125,-1.043411254882812,0.2331390380859375,0.2409510975215731,-0.6070758262829415,-1.179073826267905
9781.66445833267,0.0680084228515625,-1.000320434570312,0.1159210205078125,0.2387888770325378,-0.7659829201024436,-1.356020640679385
9811.76445833307,0.217742919921875,-1.157485961914062,0.116912841796875,0.206596852091769,-0.1988577059639987,-1.809418223627086
9841.86945833289,0.2533416748046875,-1.21636962890625,0.10498046875,0.1318744108585437,-0.1888823034688889,-2.112635891647475
9871.97045833273,0.21624755859375,-1.206222534179688,0.158203125,0.1318744108585437,-0.1888823034688889,-2.112635891647475
9902.06145833281,0.2093963623046875,-1.430252075195312,0.124420166015625,0.1822723376433122,-0.4262277471906037,-2.400553166573141
9932.18245833305,0.0928802490234375,-2.085403442382812,0.1372528076171875,0.2656529818964941,-1.286982983109043,-2.600150432371855
9962.27245833279,-0.8624267578125,-1.6612548828125,0.3601226806640625,0.5058884880331629,-4.037133034402411,-2.056915637424183
9992.36245833299,-0.07208251953125,-1.375595092773438,0.483001708984375,0.2006079354323988,-2.994861798590243,-2.201103439898817
10022.4844583331,0.7639007568359375,-1.311660766601562,0.4112701416015625,-0.1394236736005913,-0.3591240772038772,-2.785947197401777
10052.573458333,0.36767578125,-0.86175537109375,0.1051483154296875,0.2139863251684118,1.338017405394341,-1.79126771553376
10082.6654583329,0.0723876953125,-0.425079345703125,0.0630645751953125,0.2139863251684118,1.338017405394341,-1.79126771553376
10112.7674583331,0.140045166015625,-0.111602783203125,0.0262451171875,-0.02038143813848542,-0.3573498792856664,-0.2461645016715122
10142.8454583329,-0.0069732666015625,-0.219940185546875,0.0015411376953125,-0.2583777584306156,-0.7085206922101309,1.173312609881736
10172.9664583327,-0.0238494873046875,-0.2645111083984375,0.028289794921875,-0.2580360748627585,-0.528444929833916,2.710641257573716
10203.0574583328,0.035491943359375,-0.4734039306640625,0.0157470703125,-0.09194057662891454,-0.0255567590848364,3.890323882466812
10233.1464583331,0.3147735595703125,-0.709442138671875,-0.0707550048828125,0.1349442366470781,0.5275066981818811,4.574748293133906
10263.2364583328,0.4904327392578125,-1.073638916015625,0.0063934326171875,0.1306714609941549,1.567103853943502,4.645991048086834
10293.357458333,0.501953125,-1.248703002929688,0.2103729248046875,-0.2010835760030869,1.76094176756881,4.783908704090986
10323.4484583327,0.4926910400390625,-1.41925048828125,0.2805023193359375,-0.5305216628519599,1.535660177269045,4.658111626840003
10353.5594583327,0.46435546875,-1.556976318359375,0.2332611083984375,-0.5305216628519599,1.535660177269045,4.658111626840003
10383.629458333,0.391143798828125,-1.654769897460938,0.24456787109375,-0.6170325866504208,0.9088599146885407,4.635790075847395
10413.7274583327,1.033294677734375,-1.348526000976562,0.2599639892578125,-0.5480388712380651,0.7181738522133412,4.201763794036712
10443.8484583329,1.009872436523438,-1.003570556640625,0.253570556640625,-0.1421925621859467,0.4681544248639392,2.939698943983104
10473.951458333,1.258102416992188,-0.7535247802734375,0.3311614990234375,0.3175294957184746,1.006404581199309,0.4425755615420551
10504.0204583329,-0.0378570556640625,-1.87255859375,0.1672210693359375,0.2797472293335204,2.239438578526072,-2.356798761443684
10534.142458333,1.011734008789062,-1.191864013671875,0.1357269287109375,1.084922559618115,2.385983012249317,-3.756751972729452
10564.2314583329,-0.0757293701171875,-0.7226715087890625,-0.4887237548828125,1.084922559618115,2.385983012249317,-3.756751972729452
10594.3364583327,0.461090087890625,-1.070571899414062,0.990814208984375,0.8267163087617007,-0.3808701190849192,-2.147603196760215
10624.4244583327,0.2259674072265625,-1.08306884765625,0.091522216796875,0.8580814221839999,-0.333304730435559,-1.69272755940752
10654.5124583331,-0.083099365234375,-0.8865966796875,0.0964813232421875,0.5032194679886856,-0.5856062205230498,-1.2379043863283
10684.6104583328,0.2112274169921875,-1.04815673828125,0.025115966796875,0.5230887802495486,0.2017669431388013,-1.195794483171967
10714.708458333,0.11376953125,-0.96160888671875,0.16680908203125,0.4739356149582832,-0.1771859662773699,-0.8486136181926591
10744.823458333,0.069244384765625,-1.012664794921875,0.2237548828125,0.4739356149582832,-0.1771859662773699,-0.8486136181926591
10774.9264583331,0.02899169921875,-0.969512939453125,0.201171875,0.2888352665534158,-0.2339363312103044,-0.7111897122546084
10805.0244583328,0.0941314697265625,-0.9752655029296875,0.1928863525390625,0.2888352665534158,-0.2339363312103044,-0.7111897122546084
10835.1284583327,0.0393829345703125,-0.9903717041015625,0.2125396728515625,0.244172989808351,-0.3680659068799272,-0.712828088957225
10865.2274583328,0.101409912109375,-0.966339111328125,0.2292022705078125,0.1906535719099006,-0.2000492042357002,-0.8218994492980743
10895.3274583328,0.13555908203125,-0.9989013671875,0.175628662109375,0.164719975530818,-0.1529213729534399,-0.8991044892994714
10925.4274583327,0.1437835693359375,-1.0037841796875,0.1519012451171875,0.1668755381171281,-0.1718383388084908,-0.9980526417047115
10955.5274583331,0.2000579833984375,-1.030044555664062,0.149200439453125,0.1983176168949306,-0.2962063638185372,-1.125946159365805
10985.6254583328,0.1957550048828125,-1.040130615234375,0.180816650390625,0.1983176168949306,-0.2962063638185372,-1.125946159365805
11015.723458333,0.2320709228515625,-1.037796020507812,0.1924591064453125,0.2008896978757292,-0.3462607428226854,-1.25985495898106
11045.8214583327,0.196197509765625,-1.073745727539062,0.174591064453125,0.1898796572971236,-0.3625960403170135,-1.426042069956403
11075.9204583328,0.2320404052734375,-1.09710693359375,0.1511077880859375,0.1282626317881783,-0.2340471187116517,-1.671301895805615
11106.0194583329,0.24627685546875,-1.123046875,0.158111572265625,0.09475953264276342,-0.1821860512239937,-1.93930351946745
11136.1164583327,0.25091552734375,-1.10760498046875,0.1551361083984375,0.1659674001854111,-0.483842307897269,-2.16806000235755
11166.2154583328,0.2306976318359375,-1.469146728515625,0.111846923828125,0.230058236030931,-1.281918715980148,-2.369263953241909
11196.3124583331,-0.0109405517578125,-1.980484008789062,0.14739990234375,0.230058236030931,-1.281918715980148,-2.369263953241909
11226.408458333,-0.6089935302734375,-1.3492431640625,0.36334228515625,0.39830530210945,-3.521777541326235,-1.948037356262365
11256.5074583331,0.1248931884765625,-1.562088012695312,0.40576171875,0.1927747797181487,-2.916200808420899,-2.078068327014356
11286.5824583328,0.6531829833984375,-1.223526000976562,0.3201904296875,0.09083243529933258,-0.08088952336952174,-2.779510070730947
11316.7044583329,0.58740234375,-0.846221923828125,0.078033447265625,0.2924225445417526,0.9501096168127781,-2.284716045482945
11346.8004583328,0.1408843994140625,-0.45263671875,-0.0330352783203125,0.1202156242383948,-1.012974066976317,-0.7268035594096339
11376.9034583329,0.0223388671875,-0.2313232421875,-0.0232696533203125,-0.01085344670650893,-1.53202416343276,0.8010924380173943
11406.9964583327,-0.0731658935546875,-0.3265380859375,-0.062957763671875,0.07861837959190217,-0.6241714562684872,2.10443362180614
11437.0964583327,-0.0532684326171875,-0.4054718017578125,-0.0577392578125,0.07861837959190217,-0.6241714562684872,2.10443362180614
11467.1964583331,0.0797119140625,-0.5520172119140625,-0.1603851318359375,0.2579098410270887,0.2141525064204328,3.207542908508406
11497.2944583328,0.3473663330078125,-0.8028106689453125,-0.1795196533203125,0.2464422693732075,0.8143150328296377,4.002759614212759
11527.392458333,0.3837738037109375,-0.9581451416015625,-0.10772705078125,0.2464422693732075,0.8143150328296377,4.002759614212759
11557.4874583331,0.4078369140625,-1.159347534179688,-0.01904296875,-0.07468648855850918,1.024348960624263,5.038798786758034
11587.583458333,0.4992828369140625,-1.398361206054688,0.03729248046875,-0.07468648855850918,1.024348960624263,5.038798786758034
11617.6574583328,0.6114959716796875,-1.539794921875,0.1739654541015625,-0.3566183089342216,1.659490776371114,5.157296672093327
11647.7644583329,0.6680145263671875,-1.568084716796875,0.19635009765625,-0.6265914707510423,2.670366272408447,4.812215975949656
11677.8594583329,0.7539520263671875,-1.488449096679688,0.3099822998046875,-0.9404324883597571,2.982175298105432,4.063114035048898
11707.9484583328,1.19244384765625,-0.9557037353515625,0.4759368896484375,-0.9565129213377646,2.661376505832776,3.113583922089321
11738.046458333,1.06451416015625,-0.7815093994140625,0.3528594970703125,-0.1289286883768071,0.3516469861273707,1.619421919874217
11768.1444583327,0.83599853515625,-0.7453155517578125,0.30657958984375,0.2470686448615941,-0.7368780314972947,-0.4398860351571841
11798.2514583327,0.3226318359375,-1.183670043945312,0.138427734375,0.3300910939481603,-0.2018175431995128,-2.070533711658304
11828.348458333,-0.0768280029296875,-1.83331298828125,1.2393798828125,0.3300910939481603,-0.2018175431995128,-2.070533711658304
11858.440458333,0.48236083984375,-0.6924896240234375,-0.495391845703125,1.575744480100264,1.235006867062294,-3.074545975250394
11888.5424583327,0.3267669677734375,-1.179153442382812,0.569915771484375,1.206300387356221,-0.8340389364949825,-2.033157577339586
11918.639458333,0.3491363525390625,-1.242111206054688,0.106414794921875,1.085550000370938,0.03318405244682334,-1.437557844826014
11948.7364583329,-0.04205322265625,-0.8913116455078125,0.1420440673828125,0.7140291746088508,-0.4942206466653077,-1.187833495725393
11978.8354583329,0.240478515625,-1.045242309570312,0.1630401611328125,0.5986565088127651,0.0009629990501726526,-0.9478440656734476
12008.9354583329,0.1436614990234375,-0.9847869873046875,0.0387420654296875,0.5541433690887446,-0.6474733168583535,-0.4029072444731069
12039.0054583327,0.0179901123046875,-1.002899169921875,0.210601806640625,0.5541433690887446,-0.6474733168583535,-0.4029072444731069
12069.1344583329,0.090606689453125,-0.9731292724609375,0.2144927978515625,0.4885297377319174,-0.607126160027544,-0.2651645581525736
12099.2314583327,0.0195770263671875,-0.96270751953125,0.1798858642578125,0.3930530158075957,-0.6102330037552305,-0.2253993020199464
12129.3314583327,0.050048828125,-0.9598236083984375,0.1999359130859375,0.3713578403033742,-0.6278703207064983,-0.2915125423972725
12159.4314583331,0.015869140625,-0.9528350830078125,0.2463226318359375,0.3202525779330806,-0.5907365340469785,-0.4104011134644808
12189.527458333,0.0092926025390625,-0.954681396484375,0.228851318359375,0.264138175868457,-0.433833468947761,-0.574824412849864
12219.6264583331,0.0688323974609375,-0.9482574462890625,0.22235107421875,0.2552046019917862,-0.1834667653922128,-0.7682324922752336
12249.7174583327,0.11871337890625,-0.980438232421875,0.1787567138671875,0.2552046019917862,-0.1834667653922128,-0.7682324922752336
12279.822458333,0.1165771484375,-1.009811401367188,0.1789398193359375,0.2471504039070596,-0.2484652065372317,-0.9053264325542236
12309.929458333,0.1733551025390625,-1.024871826171875,0.174041748046875,0.2433961457183749,-0.226361768437901,-1.055716470891543
12340.0274583328,0.09521484375,-1.038009643554688,0.2102203369140625,0.2347339479567832,-0.3023502764533499,-1.234297400947897
12370.1264583328,0.1808319091796875,-1.015548706054688,0.137847900390625,0.2209230608597412,-0.2051267871700452,-1.551438874095547
12400.2254583329,0.2428131103515625,-1.086395263671875,0.2147979736328125,0.201387975315683,-0.1023021374820858,-1.833501189364673
12430.3224583327,0.2606048583984375,-1.134475708007812,0.231658935546875,0.2183336693318572,-0.3248065833971161,-1.991790429811277
12460.4214583328,0.292694091796875,-1.149444580078125,0.1421661376953125,0.2183336693318572,-0.3248065833971161,-1.991790429811277
12490.5204583329,0.2801971435546875,-1.241989135742188,0.107818603515625,0.2858810219561909,-0.5814919029549864,-2.183567056752864
12520.6174583327,-0.0777740478515625,-1.98468017578125,0.22998046875,0.3769872302155837,-1.401207826475305,-2.311978559245977
12550.7074583329,-0.69134521484375,-1.688720703125,0.3085174560546875,0.4735119060288516,-3.148198358357626,-1.935939680694571
12580.8004583328,0.1337432861328125,-1.494857788085938,0.4001312255859375,0.3405844812752906,-2.697297488931874,-2.144346949695376
12610.8974583331,0.200653076171875,-1.533645629882812,0.2662353515625,0.2102195501226038,-0.8607821338454492,-2.861073373856259
12640.9944583329,0.6902313232421875,-0.962158203125,0.4331512451171875,0.2138648850227042,0.8216230131769241,-2.611602291375304
12671.0924583331,0.57659912109375,-0.615875244140625,0.1583099365234375,0.03389751330285556,0.2737908032394492,-1.201100299011732
12701.1914583327,-0.015625,-0.2159423828125,0.0837554931640625,0.03389751330285556,0.2737908032394492,-1.201100299011732
12731.2894583329,0.0148468017578125,-0.2635650634765625,0.1529083251953125,-0.38056119239847,-0.9094929480796525,0.8401490269839513
12761.387458333,0.1199493408203125,-0.2607879638671875,0.0528717041015625,-0.2955245945794769,-0.4164704575887714,2.010742016760498
12791.495458333,0.009368896484375,-0.41217041015625,0.034912109375,-0.1299052695485391,-0.7758318224457746,3.340706821966767
12821.594458333,0.1154937744140625,-0.6522216796875,0.003570556640625,0.0920934420754851,-0.1186142654749302,4.268421118224741
12851.702458333,0.256195068359375,-0.936676025390625,0.0042266845703125,0.1457337674874251,0.8021667572011322,4.72973042013885
12881.8104583329,0.299530029296875,-1.196304321289062,0.1093902587890625,-0.02601002910236789,1.647373659727362,5.004384353887594
12911.905458333,0.538543701171875,-1.41815185546875,0.2374725341796875,-0.02601002910236789,1.647373659727362,5.004384353887594
12942.0074583327,0.3536376953125,-1.577743530273438,0.316864013671875,-0.3023763754320327,2.035039633281945,5.032847154353925
12972.0824583328,0.560394287109375,-1.664321899414062,0.31884765625,-0.5244491229343612,2.87576496832579,4.92252623882961
13002.1734583329,0.9091339111328125,-1.517745971679688,0.4215545654296875,-0.8456034472125427,3.192306963912063,4.356588261905123
13032.2934583328,1.167953491210938,-0.996612548828125,0.5378265380859375,-0.7419699955015262,1.974068956969562,3.508417261085635
13062.3844583329,1.403366088867188,-0.8568267822265625,0.426177978515625,0.140319827307403,-0.03844699139303793,1.557891180784591
13092.4744583331,1.174957275390625,-0.72479248046875,0.33538818359375,0.5042932545402055,-0.7360439294438819,-0.9215943520729726
13122.5644583328,-0.3025360107421875,-1.851364135742188,-0.42718505859375,0.5042932545402055,-0.7360439294438819,-0.9215943520729726
13152.6854583331,0.7702484130859375,-1.286178588867188,1.034271240234375,-0.4150360790256548,1.395161385536389,-2.001057165140316
13182.7764583327,0.4964752197265625,-0.50360107421875,-0.07513427734375,1.313551210775892,3.670295377417229,-4.61746752754765
13212.865458333,0.147613525390625,-1.436874389648438,0.4008941650390625,1.38988086972698,-0.4223251509292016,-2.072663707898149
13242.9564583331,0.366485595703125,-1.041229248046875,0.2530364990234375,0.6855290898872588,-0.7646023373933466,-1.583761926561947
13273.0774583329,-0.0477294921875,-0.954833984375,0.1692657470703125,0.4639490271865951,-1.062483296905326,-0.9038851297722726
13303.1674583331,0.069305419921875,-0.9774322509765625,0.0915069580078125,0.6336342002537568,-0.01934626742277162,-0.7215792362992255
13333.259458333,0.1412200927734375,-1.020782470703125,0.17779541015625,0.4905739801846623,-0.3941483739639453,-0.481692870581466
13363.3444583329,0.0512847900390625,-0.99658203125,0.2540283203125,0.3791598370328703,-0.7483682400204416,-0.2075968690810937
13393.4604583328,-0.054229736328125,-0.9372100830078125,0.2305145263671875,0.3791598370328703,-0.7483682400204416,-0.2075968690810937
13423.5594583329,0.0566558837890625,-0.9600067138671875,0.2191925048828125,0.3683090534874515,-0.3953475954028079,-0.3345407034974647
13453.6514583328,-0.0142974853515625,-0.9514923095703125,0.2435760498046875,0.3228795200323348,-0.5137826301363758,-0.3661146087492262
13483.7604583331,-0.0023956298828125,-0.94647216796875,0.255523681640625,0.2841728704330141,-0.3847074678996144,-0.5568643207744787
13513.8614583329,-0.01788330078125,-0.9445953369140625,0.2606048583984375,0.2660846803091959,-0.3163896627719207,-0.7705134897488864
13543.9514583327,0.0858612060546875,-0.9513397216796875,0.2044677734375,0.3069029503368404,-0.2926640932526228,-0.9940816022032943
13574.0614583328,0.1194000244140625,-1.017166137695312,0.1786041259765625,0.3265911676435782,-0.3203854696714756,-1.133324447165869
13604.1504583327,0.140106201171875,-1.026153564453125,0.1863250732421875,0.3265911676435782,-0.3203854696714756,-1.133324447165869
13634.2604583328,0.16668701171875,-1.062286376953125,0.1564178466796875,0.3805422839547304,-0.3278990460549161,-1.283082251060404
13664.354458333,0.118011474609375,-1.080154418945312,0.1197509765625,0.335759632328394,-0.32658530868918,-1.489061516095384
13694.4604583327,0.2057342529296875,-1.138580322265625,0.1796722412109375,0.3369782948432143,-0.1093376764498572,-1.828145039780306
13724.5594583328,0.1610565185546875,-1.197708129882812,0.29168701171875,0.2907663246598323,-0.2976862824362942,-2.076631551606258
13754.6604583331,0.214202880859375,-1.202789306640625,0.140655517578125,0.2907663246598323,-0.2976862824362942,-2.076631551606258
13784.7614583329,0.124603271484375,-1.811843872070312,0.0122222900390625,0.3422678654003297,-0.8102049763193184,-2.334054034153862
13814.8654583329,-0.40802001953125,-2.008071899414062,0.1656036376953125,0.1774312434137662,-2.128087019659897,-2.436829947993873
13844.967458333,-0.559173583984375,-1.307510375976562,0.2806854248046875,0.4043030072004174,-3.754937294762672,-1.980626458521664
13875.055458333,0.0546417236328125,-1.846542358398438,0.3928375244140625,0.1828446509615703,-1.359193530802106,-2.93594468579442
13905.1584583331,1.069076538085938,-1.1915283203125,0.5110626220703125,0.2237667842717278,0.08947502209171919,-3.045897552456085
13935.2614583327,0.5317230224609375,-0.761322021484375,0.1362457275390625,0.2719076820326542,-0.4748192518079715,-1.392742702634379
13965.3614583331,-0.0941619873046875,-0.2790679931640625,0.141815185546875,0.2719076820326542,-0.4748192518079715,-1.392742702634379
13995.4664583329,0.023651123046875,-0.2685699462890625,0.07879638671875,0.01187157319124622,-1.661577363085191,0.1926639922168014
14025.5784583328,-0.036712646484375,-0.236541748046875,0.020233154296875,-0.1172493954162646,-1.041206770324465,1.399156393487617
14055.6774583329,-0.03607177734375,-0.3728790283203125,-0.0144500732421875,-0.1234297933580115,-0.6024776123448108,2.716408599230391
14085.7784583327,0.0697479248046875,-0.5522308349609375,0.0118865966796875,-0.08085463595924171,0.006021407224669158,3.848661390373613
14115.8734583328,0.2199249267578125,-0.8578033447265625,0.0656585693359375,-0.08781773694536288,0.3257669192861987,4.5572369437022
14145.9704583331,0.1773681640625,-1.066574096679688,0.1131591796875,-0.1630496408951203,0.5976722044738718,5.164368962684142
14176.0684583328,0.35498046875,-1.327194213867188,0.2728271484375,-0.2454009733869865,1.824123400218177,5.223184342726324
14206.1684583327,0.3755645751953125,-1.645782470703125,0.380157470703125,-0.2454009733869865,1.824123400218177,5.223184342726324
14236.2664583329,0.606842041015625,-1.620361328125,0.4054107666015625,-0.4688729457260426,2.719287476368767,5.137017233024592
14266.3664583329,0.931365966796875,-1.749908447265625,0.3229522705078125,-0.6723445782786036,3.358508722273401,4.711673122683677
14296.464458333,1.198867797851562,-1.242446899414062,0.5070953369140625,-0.896467693504184,1.909612469106374,3.979599700108994
14326.5624583328,1.4713134765625,-0.712677001953125,0.6081695556640625,-0.2360777790428371,0.5211686411036015,2.327094927909376
14356.660458333,1.359893798828125,-0.71539306640625,0.3354644775390625,0.5040237426378894,-0.4349842208547843,-0.535669286922974
14386.7524583329,0.823577880859375,-0.8589324951171875,0.1984100341796875,0.7558301510787345,0.3879772970860136,-2.503478483750305
14416.8524583329,-4.656997680664062,-1.928512573242188,0.419952392578125,0.5112006954595439,-0.6108623087208163,-0.5856538911065622
14446.9464583331,3.34747314453125,-1.454681396484375,-0.2987518310546875,0.5112006954595439,-0.6108623087208163,-0.5856538911065622
14477.0444583328,0.078826904296875,-1.10797119140625,0.4815216064453125,1.611946693010474,2.772635653009126,-3.849907217131552
14507.142458333,0.4797515869140625,-1.1298828125,0.1450347900390625,1.140077957374201,-0.02109889373615276,-1.834193877564203
14537.237458333,0.1988067626953125,-1.069778442382812,0.2058868408203125,0.5630037060354383,-1.267238573103305,-1.251292097128128
14567.3324583327,-0.150482177734375,-0.8868560791015625,0.1029205322265625,0.7367051923425485,-0.5039302656836276,-0.7124243537359691
14597.4304583328,0.2704010009765625,-1.047805786132812,0.1512451171875,0.7367051923425485,-0.5039302656836276,-0.7124243537359691
14627.5084583331,0.1417694091796875,-1.010391235351562,0.220184326171875,0.4148302166733916,-0.8928748228775581,-0.3289392767767011
14657.628458333,-0.0614166259765625,-0.957122802734375,0.240966796875,0.4148302166733916,-0.8928748228775581,-0.3289392767767011
14687.7344583327,0.0305328369140625,-0.9687652587890625,0.2288970947265625,0.333407794769745,-0.612432242183418,-0.3398465193372296
14747.7881249997,-0.0286712646484375,-0.9570465087890625,0.2257232666015625,0.2659773549172658,-0.5591650256401981,-0.4323271850352122
14777.889125,0.0910491943359375,-0.96630859375,0.2003326416015625,0.2596060083253602,-0.2198924175178806,-0.6763454451842296
14807.996125,0.1035308837890625,-0.97607421875,0.1763763427734375,0.2596060083253602,-0.2198924175178806,-0.6763454451842296
14838.0771249999,0.1273193359375,-0.9910430908203125,0.192626953125,0.2718533535464166,-0.1537450886786015,-1.029314690792825
14868.1951250001,0.2039794921875,-1.003265380859375,0.177581787109375,0.2718533535464166,-0.1537450886786015,-1.029314690792825
14898.307125,0.1695556640625,-1.0556640625,0.190155029296875,0.2913122726832986,-0.3363878720295437,-1.128170697824348
14928.410125,0.1427459716796875,-1.102371215820312,0.1502838134765625,0.2663411427221706,-0.3452631226783417,-1.288120152894507
14958.5161249997,0.1159515380859375,-1.153579711914062,0.080169677734375,0.2891449921881921,-0.2906752445505516,-1.628150430346952
14988.5951249998,0.1999359130859375,-1.184066772460938,0.152374267578125,0.1860015621177502,0.01656672619305592,-2.106042970052875
15018.7241250001,0.226104736328125,-1.215667724609375,0.133544921875,0.2039941447584345,-0.5061324335890142,-2.424389789909895
15048.8001250001,0.1765899658203125,-1.763046264648438,0.091278076171875,0.1998561250566694,-1.673124563255665,-2.591853886627931
15078.9261249997,-0.2005462646484375,-1.958847045898438,0.1402587890625,0.1998561250566694,-1.673124563255665,-2.591853886627931
15109.0281249999,-0.792816162109375,-1.321334838867188,0.3961334228515625,0.4246194642083049,-3.67819804163593,-2.091751382379074
15139.1171249998,0.127349853515625,-1.686904907226562,0.38958740234375,0.1580514201612596,-2.094020395627821,-2.426538960909589
15169.2201249998,0.93121337890625,-1.293350219726562,0.34375,0.01717073112828589,-0.1473945147431985,-3.072652734031457
15199.3201249998,0.2472686767578125,-0.802520751953125,0.1038665771484375,0.3773483548593984,0.9789993220018486,-2.04132522608675
15229.4231249998,0.0561370849609375,-0.360382080078125,0.076812744140625,0.06496994532135508,-0.5380663982201543,-0.513922179777496
15259.533125,0.089508056640625,-0.19964599609375,0.0830078125,-0.1354965762571605,-1.004418661974437,1.104731950754452
15289.6381249998,0.0430450439453125,-0.236846923828125,0.016571044921875,-0.1354965762571605,-1.004418661974437,1.104731950754452
15319.7341249997,-0.0571136474609375,-0.3180694580078125,-0.02020263671875,-0.07404253620692802,-0.6722353886739103,2.502014544099088
15349.8371249998,-0.03765869140625,-0.514862060546875,0.001434326171875,0.008138620291282152,-0.4176779348270134,3.768897585196868
15379.9371249997,0.2406158447265625,-0.8038177490234375,-0.047149658203125,0.1208641039638291,0.5628969132757261,4.489185188367404
15410.0391249999,0.2916107177734375,-1.148361206054688,0.0555419921875,0.03825577642677024,0.9900210804892505,4.968505715049828
15440.1391249999,0.4191131591796875,-1.4197998046875,0.190032958984375,-0.08155478100982354,1.362092115332548,5.239062109145376
15470.2421249999,0.47222900390625,-1.672271728515625,0.2556304931640625,-0.2869042084469994,1.807958545033614,5.21124485892728
15500.341125,0.6583099365234375,-1.659378051757812,0.2608642578125,-0.2869042084469994,1.807958545033614,5.21124485892728
15530.4431249997,0.9995880126953125,-1.510910034179688,0.266632080078125,-0.5147695976363592,2.351797877548733,4.582814475443539
15560.5431250001,0.7830047607421875,-1.120285034179688,0.3825531005859375,-0.7439010536079426,0.9704002411580918,3.911008920969567
15590.6151249997,1.022171020507812,-0.905181884765625,0.3768157958984375,-0.2740118456099258,-0.02349067871115293,2.942816440355151
15620.743125,0.8431549072265625,-0.7294921875,0.2899169921875,0.1511572950473714,-0.6255781379562672,0.9192033660462995
15650.8441249998,0.74749755859375,-0.727081298828125,0.1988983154296875,0.4849792113666238,0.2715108710302324,-1.235945897662656
15680.9391249999,0.467254638671875,-0.8256988525390625,0.1199798583984375,0.5377441557282547,1.502380251022979,-2.322491653965174
15711.0431249998,-1.569534301757812,-2.48382568359375,1.411529541015625,0.5377441557282547,1.502380251022979,-2.322491653965174
15741.1341249999,1.4014892578125,-0.5692596435546875,-0.99932861328125,1.332821578107596,1.226848006746727,-1.835174719793679
15771.2401250001,-0.1229705810546875,-0.9227142333984375,0.339019775390625,1.383133218473046,-0.7513887973288094,-2.49788824230612
15801.332125,0.649261474609375,-1.261520385742188,0.028167724609375,0.8313113269065233,0.5613903630470682,-1.895628742854586
15831.4271249997,0.007568359375,-0.9537506103515625,0.2270965576171875,0.5710541756946388,-1.089628365264285,-1.12768706777039
15861.5221249997,0.127777099609375,-0.986572265625,0.12225341796875,0.6865261773993845,-0.3445115786187214,-0.8331355922532276
15891.615125,0.1954345703125,-1.020462036132812,0.198822021484375,0.5795336806054511,-0.5503246624016801,-0.4917468363287332
15921.7101249997,0.039337158203125,-1.036575317382812,0.2657012939453125,0.5795336806054511,-0.5503246624016801,-0.4917468363287332
15951.803125,-0.062164306640625,-0.9254913330078125,0.2808990478515625,0.3850787125555714,-0.8454852028601431,-0.2495602983774723
15981.898125,0.0980224609375,-0.9575042724609375,0.21893310546875,0.3180285721067554,-0.4623436736814953,-0.3185303116561264
16011.9921249998,0.0236053466796875,-0.94830322265625,0.226104736328125,0.3180304363195185,-0.5035616841887607,-0.4130941019587689
16042.0611249997,-0.0811309814453125,-0.9225921630859375,0.29510498046875,0.2941669150557545,-0.7451194498066539,-0.5481414029400331
16072.1751249998,-0.037109375,-0.9220733642578125,0.2514495849609375,0.2772755495258179,-0.2347491279749966,-0.9275523760636979
16102.273125,0.0924072265625,-0.9637603759765625,0.214813232421875,0.3101418868545948,0.06575797468790953,-1.240275931279015
16132.3851249999,0.3125,-0.9640045166015625,0.17047119140625,0.3826272727721535,-0.07713899360636316,-1.309138086533521
16162.4791249997,0.2734527587890625,-1.027862548828125,0.2227325439453125,0.3826272727721535,-0.07713899360636316,-1.309138086533521
16192.564125,0.244110107421875,-1.011032104492188,0.2960662841796875,0.398912236521879,-0.4142845349660344,-1.192905486021449
16222.671125,0.17791748046875,-1.059097290039062,0.1625213623046875,0.3874659701567185,-0.5176024020878764,-1.208329449790752
16252.7821250001,0.2149505615234375,-1.1519775390625,0.2372283935546875,0.3598713602057534,-0.3078867220435157,-1.548654539175869
16282.855125,0.312164306640625,-1.229751586914062,0.2325592041015625,0.3098518686118852,-0.2182790745295106,-1.87455221967159
16312.9531249997,0.2274322509765625,-1.248458862304688,0.090789794921875,0.3807587989513539,-0.8583711741106005,-2.133157678375408
16343.0551249999,0.219207763671875,-1.327178955078125,0.03570556640625,0.5073167413257724,-1.392170123000012,-2.415435443376722
16373.1311249999,0.0374298095703125,-2.169692993164062,0.150238037109375,0.5073167413257724,-1.392170123000012,-2.415435443376722
16403.2511249998,-0.79168701171875,-1.668701171875,0.4820556640625,0.5245255556576465,-3.596805447136493,-2.056327611455494
16433.3511249997,-0.2072296142578125,-1.552047729492188,0.550537109375,0.4081246433646811,-3.989348467595338,-1.909879850479818
16463.4471249997,0.5780181884765625,-1.357986450195312,0.2698974609375,0.2832894998994349,-0.8309786980863725,-3.005589277777191
16493.5391250001,0.594757080078125,-0.93023681640625,0.057891845703125,0.5301661308464343,0.9899720783251931,-2.548410272397686
16523.6291249998,0.18341064453125,-0.498931884765625,0.1477813720703125,0.1639090429788889,0.02279213155722514,-0.7457247863224289
16553.7501250001,-0.0178985595703125,-0.022918701171875,0.147216796875,-0.07681355532115547,-0.6540710321429158,1.266004197938053
16583.8401249998,0.017486572265625,-0.265899658203125,0.024383544921875,-0.07681355532115547,-0.6540710321429158,1.266004197938053
16613.9311249999,0.0006561279296875,-0.3186798095703125,-0.009124755859375,-0.09584610236751576,-1.110084638229402,3.790532306944344
16644.022125,0.059814453125,-0.450164794921875,-0.0256195068359375,-0.09584610236751576,-1.110084638229402,3.790532306944344
16674.1381249999,0.11431884765625,-0.6847686767578125,0.0101776123046875,0.06370094906193233,-0.4768512437197019,4.66890382084144
16704.2321250001,0.177032470703125,-1.0682373046875,0.035858154296875,0.1548979711144967,0.5690325701111597,5.197907748188164
16734.340125,0.365936279296875,-1.355743408203125,0.2162628173828125,0.08394470177206065,1.903936473875089,5.375460165431528
16764.4131249999,0.4046173095703125,-1.633209228515625,0.3466033935546875,-0.2715428289633133,2.610379634118849,5.273468019900328
16794.535125,0.5317840576171875,-1.78082275390625,0.3208770751953125,-0.2715428289633133,2.610379634118849,5.273468019900328
16824.627125,0.8787384033203125,-1.791107177734375,0.353790283203125,-0.9112748691650245,1.430111380102044,4.621728585291776
16854.715125,0.85345458984375,-1.289566040039062,0.4347381591796875,-0.9112748691650245,1.430111380102044,4.621728585291776
16884.8361249998,1.332809448242188,-0.887847900390625,0.288818359375,-0.3040909185418257,0.4988122027007134,3.093802760460539
16914.9371250001,1.03668212890625,-0.699859619140625,0.308319091796875,0.2626422782841595,-0.4622067872014652,0.4630504766348024
16945.037125,0.6391754150390625,-0.8157196044921875,0.3335418701171875,0.5760987354314669,0.1410455387044496,-1.848100372144378
16975.133125,0.044647216796875,-0.9491424560546875,0.0028228759765625,0.6816110472915343,1.595237487699099,-2.702308759155076
17005.2271249997,-1.818710327148438,-2.051132202148438,0.52850341796875,0.6816110472915343,1.595237487699099,-2.702308759155076
17035.324125,1.804519653320312,-1.171249389648438,-0.650634765625,1.522111611539376,-0.1536556064659748,-2.782881632670987
17065.4381249997,-0.230316162109375,-0.9688262939453125,0.6856842041015625,1.522111611539376,-0.1536556064659748,-2.782881632670987
17095.5281249999,0.6514434814453125,-1.182174682617188,0.1852569580078125,1.047440165171904,1.195881302223504,-2.00978860509025
17125.6441249998,0.0078887939453125,-0.97979736328125,0.1553955078125,0.5866310049105123,-0.8128095478654159,-1.219856676253051
17155.7281249998,0.0635528564453125,-1.009445190429688,0.1190338134765625,0.473491399688458,-0.1819314530237821,-0.9061195219268492
17185.845125,0.22491455078125,-1.040237426757812,0.0983734130859375,0.4234721744106987,0.07870120390180363,-0.7557827468113312
17215.9531249999,0.1245574951171875,-1.001632690429688,0.211517333984375,0.4234721744106987,0.07870120390180363,-0.7557827468113312
17246.0411249999,0.0445098876953125,-0.93994140625,0.23309326171875,0.3025835693648409,-0.5858586881943894,-0.4563811223169169
17276.1601249999,0.063720703125,-0.9449920654296875,0.1991424560546875,0.1846348278463215,-0.4795692659282368,-0.4259971174402029
17306.2461249997,0.107696533203125,-0.9544830322265625,0.15118408203125,0.1521037824987856,-0.1985924551194268,-0.5143038107617043
17336.3561249998,0.0843048095703125,-0.9506072998046875,0.1608428955078125,0.1485149066137948,-0.1683360156589276,-0.5816415726082489
17366.4591249999,0.1030426025390625,-0.9557037353515625,0.1829986572265625,0.1906591645481898,-0.0642881760822948,-0.739646121134323
17396.5671249998,0.1688690185546875,-0.9802398681640625,0.1837615966796875,0.2144379972892893,0.006943659910163598,-0.874148805672666
17426.6701249999,0.22259521484375,-0.985992431640625,0.17999267578125,0.2144379972892893,0.006943659910163598,-0.874148805672666
17456.7731249999,0.20721435546875,-0.997833251953125,0.20233154296875,0.245888864498689,-0.1760754281028069,-0.8962000458146311
17486.8931249998,0.171295166015625,-1.018753051757812,0.208892822265625,0.2606715390775009,-0.4285249899469061,-0.9488432837144454
17516.9961249999,0.2313690185546875,-1.086822509765625,0.15911865234375,0.1932682634681404,-0.2996375805669952,-1.152599075555318
17547.0971249997,0.201507568359375,-1.134246826171875,0.111480712890625,0.1612405555666295,-0.4818121801983016,-1.429780349178547
17577.2011250001,0.22955322265625,-1.174407958984375,0.1297760009765625,0.0893037808336271,-0.3512371256356075,-1.808309017033068
17607.305125,0.219482421875,-1.232894897460938,0.0987548828125,0.06914578191059932,-0.4790816411326433,-2.202933031567702
17637.409125,0.2251129150390625,-1.800994873046875,0.0378265380859375,0.06914578191059932,-0.4790816411326433,-2.202933031567702
17667.5071249997,0.100067138671875,-2.056716918945312,0.06878662109375,0.2836045518563912,-2.8545821850153,-2.487932547203076
17697.6071250001,-0.958282470703125,-1.650054931640625,0.3766937255859375,0.2836045518563912,-2.8545821850153,-2.487932547203076
17727.7101249997,-0.184600830078125,-1.358001708984375,0.4944610595703125,0.2275482067035313,-3.586922456331208,-2.051232451657954
17757.811125,1.064620971679688,-1.388809204101562,0.504638671875,-0.2152563866922706,0.09897744717723092,-3.040835149539953
17787.914125,0.233245849609375,-0.7723236083984375,0.06549072265625,0.305880030162141,1.829045454544861,-2.352965407370624
17818.002125,0.249664306640625,-0.5615997314453125,0.084075927734375,0.1077459050663168,-0.6136120225463231,-1.404866477180856
17848.1111249998,-0.105865478515625,-0.035797119140625,0.0011749267578125,0.1077459050663168,-0.6136120225463231,-1.404866477180856
17878.209125,-0.0858154296875,-0.2054290771484375,0.061798095703125,-0.1438186883475491,-0.2932997898048247,2.190136276213762
17908.3081250001,0.0549163818359375,-0.289825439453125,0.0361785888671875,-0.1438186883475491,-0.2932997898048247,2.190136276213762
17938.408125,0.0654144287109375,-0.42218017578125,0.06524658203125,-0.009550894617351173,0.1604663746377434,3.356029052982429
17968.484125,0.254547119140625,-0.64508056640625,0.002166748046875,0.1492153179804857,0.3908401952578489,4.257155680497597
17998.6121249999,0.29156494140625,-1.035507202148438,0.0631103515625,0.1661535551456076,0.9274772749209577,4.70246977058858
18028.7141250001,0.3706512451171875,-1.250564575195312,0.201416015625,0.04194531980096602,1.80212648856245,4.92297205199609
18058.8151249999,0.457183837890625,-1.442459106445312,0.325225830078125,0.04194531980096602,1.80212648856245,4.92297205199609
18088.914125,0.5156402587890625,-1.65252685546875,0.3409881591796875,-0.4990955630406978,2.688448603577867,4.772605183160254
18119.013125,0.58966064453125,-1.532867431640625,0.3521270751953125,-0.4990955630406978,2.688448603577867,4.772605183160254
18149.1121250001,0.7650909423828125,-1.40869140625,0.4689178466796875,-0.5711993179740481,1.910848708484389,4.52120916784339
18179.212125,1.139114379882812,-1.031814575195312,0.202117919921875,-0.04773583095912531,-0.02299879285781529,3.55291548710755
18209.3071249997,1.247894287109375,-0.7880859375,0.1312713623046875,0.346247427017235,-1.415171845335026,1.546784733774524
18239.4061249997,0.8741607666015625,-0.7708587646484375,0.14520263671875,0.4512484119480072,-0.4536689590627802,-1.088909045453855
18269.5041249999,-3.151657104492188,-2.468048095703125,-1.1624755859375,-0.4274344254805186,1.717737571520564,-1.582332874321011
18299.6041249999,2.275360107421875,-1.953643798828125,0.2752532958984375,1.040666681255396,4.44085307564021,-5.457549442872131
18329.7031249999,0.168121337890625,-0.2986907958984375,0.6652374267578125,1.040666681255396,4.44085307564021,-5.457549442872131
18359.8031249999,0.4701385498046875,-1.397964477539062,0.05230712890625,1.093308054942448,-0.0991545473897212,-2.243185646179814
18389.9021249999,0.2005157470703125,-0.9340667724609375,0.15423583984375,0.5348367827662153,-0.6132114831183751,-1.990731556961861
18420.005125,-0.085174560546875,-0.9615631103515625,0.1472320556640625,0.4485964361345063,-0.8728939241670206,-0.9893566217972758
18450.1051249999,0.2323150634765625,-1.049560546875,0.172760009765625,0.4440424306704708,0.1140232420717426,-0.9849072785640803
18480.2071250001,0.1114349365234375,-0.9925537109375,0.1999664306640625,0.3050326123032778,-0.4828377635340911,-0.5976402465407908
18510.2941249997,0.0786285400390625,-0.9659576416015625,0.23516845703125,0.1965852306058341,-0.6326757285774373,-0.4260128300906343
18540.4081249999,0.0053863525390625,-0.9506988525390625,0.2375030517578125,0.1965852306058341,-0.6326757285774373,-0.4260128300906343
18570.5041249998,0.10736083984375,-0.9580078125,0.1841888427734375,0.1512632888587566,-0.3071346453516773,-0.5221550759713669
18600.614125,0.0743255615234375,-0.9578857421875,0.1806182861328125,0.1450836898653367,-0.2882102226455742,-0.5457602706093932
18630.721125,0.0810394287109375,-0.9456329345703125,0.2214508056640625,0.13964684649994,-0.1498278450312039,-0.6532084342658392
18660.813125,0.124725341796875,-0.970306396484375,0.1998748779296875,0.1473875905243643,-0.09987173667127952,-0.7834407399962401
18690.920125,0.1461639404296875,-0.99822998046875,0.160858154296875,0.1680585142733413,-0.1965753769098008,-0.9062635989418225
18721.0261249998,0.1615753173828125,-1.009933471679688,0.17755126953125,0.1953252890941176,-0.3157196114416567,-1.043810809238344
18751.1451249998,0.1849212646484375,-1.00054931640625,0.2285308837890625,0.1953252890941176,-0.3157196114416567,-1.043810809238344
18781.2461250001,0.1723785400390625,-1.075347900390625,0.17431640625,0.2059334586642302,-0.4023165553433273,-1.225372349186714
18811.3471249999,0.2497711181640625,-1.09716796875,0.1389923095703125,0.116189989934631,-0.3606713737972132,-1.426625035919021
18841.4471249998,0.2584228515625,-1.13580322265625,0.1295166015625,0.08445895817855495,-0.3106414958750937,-1.660508370223633
18871.5481249997,0.2565155029296875,-1.123748779296875,0.1538238525390625,0.01767326962598384,-0.2364221257717844,-1.915057301955042
18901.6511249997,0.2841644287109375,-1.15106201171875,0.1434173583984375,0.07311256035427235,-0.5553178231294696,-2.165136384112861
18931.7541249998,0.1202392578125,-1.846389770507812,0.2247772216796875,-0.01834518516901083,-1.648383796728829,-2.36570144265171
18961.8551250001,-0.22088623046875,-1.98297119140625,0.1590576171875,-0.01834518516901083,-1.648383796728829,-2.36570144265171
18991.9561249999,-0.8010711669921875,-1.337631225585938,0.3881072998046875,0.2933890057013424,-3.768956441056958,-2.093266188407111
19022.0581250001,0.104705810546875,-1.563858032226562,0.4828033447265625,0.04978460078572326,-2.02897694706038,-2.497036030757295
19052.1591249999,1.084762573242188,-1.158767700195312,0.4282989501953125,-0.05207997932926256,0.4610099626075836,-3.163290758571214
19082.2531250001,0.440704345703125,-0.670684814453125,0.1679534912109375,0.2494196834719161,1.260841127532716,-1.998265639685695
19112.3591249998,-0.0193328857421875,-0.23577880859375,0.050140380859375,0.06350573935402952,-0.9159516463553127,-0.4306001250682958
19142.4641250001,0.11566162109375,-0.1378326416015625,0.0491943359375,-0.122037226424009,-1.065231679150287,0.9528627927477019
19172.560125,0.0360107421875,-0.1823577880859375,0.0579071044921875,-0.122037226424009,-1.065231679150287,0.9528627927477019
19202.6611249998,0.00494384765625,-0.2880401611328125,0.0370941162109375,0.0510461401940938,-0.3127158320481564,2.346251844578643
19232.736125,0.026153564453125,-0.500732421875,-0.0179290771484375,0.2128305132553174,-0.06158453494364635,3.560502566737077
19262.8531249998,0.3023681640625,-0.726715087890625,-0.073760986328125,0.3529689792924861,0.2691891271919013,4.393736429634528
19292.9491249997,0.2825469970703125,-1.029861450195312,0.01947021484375,0.3607296970250859,0.3803028657727323,4.950311531114624
19323.0411249997,0.3814849853515625,-1.302581787109375,0.1432037353515625,0.3599613750505981,1.039983047803573,5.239169168221197
19353.1351249999,0.4695281982421875,-1.5679931640625,0.193359375,0.233721946742553,1.809168951749055,5.065047967726291
19383.2291250001,0.6173858642578125,-1.683624267578125,0.2041473388671875,0.233721946742553,1.809168951749055,5.065047967726291
19413.325125,0.7838134765625,-1.6114501953125,0.186248779296875,-0.02938638473237035,1.791133225898711,4.90331099893247
19443.4191249998,0.8268280029296875,-1.237136840820312,0.2470550537109375,-0.3040424490099863,0.6202733873809383,4.367273929462956
19473.5161250001,0.833984375,-0.9918670654296875,0.117584228515625,0.008424910108465669,-0.205422131734935,3.218886909487708
19503.612125,0.9189453125,-0.808441162109375,0.1202545166015625,0.1772956885142812,0.0440015464786162,0.9887334421021973
19533.708125,0.7983551025390625,-0.75360107421875,0.19927978515625,0.2868325694136762,0.6944568048095314,-1.33494651434137
19563.8021249997,-2.655364990234375,-2.683868408203125,-1.073165893554688,-0.09550175563856851,1.570300179883815,-2.140310396431143
19593.8841249999,2.406478881835938,-1.350906372070312,1.366073608398438,1.306104479735812,4.144261352411939,-4.280622657075048
19623.9721249999,0.6927642822265625,-0.8152618408203125,0.536590576171875,1.306104479735812,4.144261352411939,-4.280622657075048
19654.067125,0.391510009765625,-0.9277496337890625,0.219451904296875,1.193280725419041,0.141967525073835,-2.432495919635878
19684.1771249997,0.4101104736328125,-1.19818115234375,0.1775970458984375,0.4954576849916495,-0.3423251233637664,-1.639013997065603
19744.243083333,0.0855255126953125,-1.024322509765625,0.2044525146484375,0.4914464317577722,-0.1745022988468971,-0.7888317769908875
19774.3380833331,0.10003662109375,-0.983154296875,0.283935546875,0.3374424838212151,-0.4843214105773742,-0.5323898703566504
19804.430083333,-0.0387420654296875,-0.9567108154296875,0.2752227783203125,0.2314803640530333,-0.8003709876780918,-0.2734059764619328
19834.530083333,-0.0396575927734375,-0.943389892578125,0.238861083984375,0.2314803640530333,-0.8003709876780918,-0.2734059764619328
19864.6250833331,0.0498199462890625,-0.957763671875,0.2289276123046875,0.2104501798730046,-0.3532259743376787,-0.4585492017603504
19894.737083333,-0.0359649658203125,-0.9449462890625,0.23870849609375,0.2054828518077888,-0.5043883293911213,-0.4746892895467756
19924.836083333,0.01239013671875,-0.9564971923828125,0.2451629638671875,0.2029520498238865,-0.3506738670650558,-0.6557240562315281
19954.9300833328,0.07305908203125,-0.95062255859375,0.2244110107421875,0.1833357378665809,-0.1980696765974443,-0.8368842578036232
19985.0260833327,0.0896148681640625,-0.9796600341796875,0.1767120361328125,0.1916437352031921,-0.1137196417074735,-0.9247107831805833
20015.1170833328,0.154449462890625,-1.009979248046875,0.2191162109375,0.2042540692808263,-0.2365398374919659,-0.9899007056079789
20045.207083333,0.155670166015625,-0.9503021240234375,0.1961517333984375,0.2056985678560852,-0.4490891209361709,-1.098298019876929
20075.3280833328,0.1065826416015625,-0.9678955078125,0.2470550537109375,0.2056985678560852,-0.4490891209361709,-1.098298019876929
20105.406083333,0.0876312255859375,-1.001602172851562,0.353424072265625,0.1797878746623773,-0.2804417817458131,-1.39147530427161
20135.5090833331,0.2907257080078125,-1.0048828125,0.2738494873046875,0.2207345090545636,-0.002916694025854781,-1.658179968482577
20165.629083333,0.2814788818359375,-1.071914672851562,0.2179412841796875,0.2447346504822487,-0.2728733442439169,-1.77137070639756
20195.7200833331,0.3318023681640625,-1.096878051757812,0.141326904296875,0.2815320798960915,-0.473728154709366,-1.891286725013321
20225.8100833328,0.2863616943359375,-1.206512451171875,0.1189422607421875,0.36644643862105,-1.008923132642197,-2.074795302034648
20255.9280833329,0.0517120361328125,-2.080108642578125,0.326446533203125,0.36644643862105,-1.008923132642197,-2.074795302034648
20286.0210833328,-0.3681640625,-1.714096069335938,0.2783966064453125,0.2214074898620266,-2.179755806916851,-2.149571006489675
20316.119083333,-0.275634765625,-1.347091674804688,0.27581787109375,0.5133749001734846,-3.844836292099932,-2.081498744814487
20346.2120833328,0.2033538818359375,-1.558563232421875,0.114501953125,0.3055021276034587,-0.8976759696907529,-2.977299582781715
20376.3120833328,0.7793426513671875,-0.938201904296875,0.3779754638671875,0.2812926617140935,0.2826628580949392,-2.857016580567741
20406.4120833327,0.535003662109375,-0.611602783203125,0.18670654296875,0.2180806690282996,-0.2438808410367693,-1.480901590515381
20436.5030833328,0.0050048828125,-0.1684417724609375,0.0092315673828125,0.008021441203318665,-1.01432056122346,0.2727553662076264
20466.6070833327,0.1351165771484375,-0.2442169189453125,0.0677490234375,0.008021441203318665,-1.01432056122346,0.2727553662076264
20496.6840833331,0.110076904296875,-0.2279052734375,0.0274505615234375,-0.0976187023890725,-0.9193066966965945,1.346341381697492
20526.7740833328,-0.108795166015625,-0.387786865234375,0.0653839111328125,-0.1489133155128707,-1.234545607561492,2.680742214331505
20556.8950833331,0.02044677734375,-0.6297760009765625,-0.0048370361328125,-0.09910953996729885,-0.4046476202454737,3.709387652742393
20587.003083333,0.224761962890625,-0.85797119140625,0.06201171875,-0.1154464353582809,0.5384815850340977,4.319172180170054
20617.075083333,0.3137054443359375,-1.146652221679688,0.1844329833984375,-0.2465493284490287,1.28771135766718,4.799299644662772
20647.1950833329,0.502349853515625,-1.356124877929688,0.3573760986328125,-0.3952898048071533,1.888398793127239,4.951007148791353
20677.2720833328,0.5001678466796875,-1.483810424804688,0.42816162109375,-0.3952898048071533,1.888398793127239,4.951007148791353
20707.3760833327,0.497711181640625,-1.487060546875,0.4013519287109375,-0.4623537936936376,1.926288384904124,4.925746533219734
20737.4760833327,0.76019287109375,-1.581954956054688,0.2162933349609375,-0.4233086563197679,2.123098918938179,4.547663944847801
20767.5750833328,0.7334747314453125,-1.12835693359375,0.29791259765625,-0.5201513135671912,1.065756588201142,4.048518847010827
20797.6720833331,0.8946685791015625,-0.8878021240234375,0.2713623046875,-0.09500188030196063,0.574788460175148,2.709269463296216
20827.7700833328,1.110549926757812,-0.7404937744140625,0.121734619140625,0.1575523437729787,1.219974387973233,0.09693906367888427
20857.8840833329,0.7440032958984375,-0.7976226806640625,0.263885498046875,0.4393355597598648,0.7224610089361507,-1.715356705506033
20887.979083333,-1.27532958984375,-1.96185302734375,-0.526458740234375,0.4393355597598648,0.7224610089361507,-1.715356705506033
20918.0800833328,1.619125366210938,-1.603668212890625,1.259353637695312,-0.2464289535677571,1.477524169620942,-1.998134878476172
20948.1770833327,0.494720458984375,-0.46600341796875,0.1324920654296875,1.196742568520035,-0.73658668167404,-1.950738866872141
20978.2790833328,0.158782958984375,-1.010604858398438,0.204742431640625,1.196742568520035,-0.73658668167404,-1.950738866872141
21008.3790833328,0.4482421875,-1.19207763671875,0.07708740234375,0.6733810805748625,-0.1247845434045348,-1.625145053056798
21038.4760833331,-0.09967041015625,-0.9129180908203125,0.1758880615234375,0.5608492087135641,-0.7796249627863745,-0.8122119345168021
21068.5790833327,0.2156829833984375,-1.03179931640625,0.1286468505859375,0.4638747249921819,0.06620565206715184,-0.7372796361896786
21098.6790833331,0.1152191162109375,-1.0096435546875,0.147918701171875,0.4638747249921819,0.06620565206715184,-0.7372796361896786
21128.7770833328,-0.006011962890625,-0.9633026123046875,0.202362060546875,0.2659874749294081,-0.4361557454183101,-0.3489286976027268
21158.8780833331,0.0436859130859375,-0.9527740478515625,0.19696044921875,0.2659874749294081,-0.4361557454183101,-0.3489286976027268
21188.978083333,0.091339111328125,-0.96405029296875,0.1736602783203125,0.2429559251901848,-0.2028697581462031,-0.4208825165667057
21219.078083333,0.0192413330078125,-0.94921875,0.177703857421875,0.2168505549207921,-0.2926489132344093,-0.4652707540356014
21249.1830833328,0.05682373046875,-0.954498291015625,0.194091796875,0.2164526786539342,-0.2005424216695828,-0.638445999711312
21279.2820833329,0.099761962890625,-0.95428466796875,0.1938629150390625,0.2042684503507127,-0.06806800061744425,-0.8130303239197835
21309.3680833331,0.1239776611328125,-0.971466064453125,0.179534912109375,0.2055310550235193,-0.007450193149496668,-0.9380524212935533
21339.4820833328,0.1802520751953125,-0.9792633056640625,0.197113037109375,0.2055310550235193,-0.007450193149496668,-0.9380524212935533
21369.5830833331,0.1856231689453125,-1.000686645507812,0.2003631591796875,0.2088104715898428,-0.1167079747666515,-1.031100073987614
21399.6800833329,0.248046875,-1.028732299804688,0.1661224365234375,0.2006529428548211,-0.2453655533444885,-1.150750309126585
21429.7820833331,0.2733001708984375,-1.085601806640625,0.138397216796875,0.2285277173524625,-0.3992006568679346,-1.241197917648401
21459.8800833328,0.2244720458984375,-1.073074340820312,0.0784454345703125,0.1805868229894011,-0.4767604299265303,-1.342298436846643
21489.9830833328,0.1994476318359375,-1.12396240234375,0.1257476806640625,0.1359423894236398,-0.269245586207011,-1.685938096524472
21520.0830833328,0.1887969970703125,-1.16259765625,0.14227294921875,0.1359423894236398,-0.269245586207011,-1.685938096524472
21550.1820833329,0.202972412109375,-1.808334350585938,0.1182861328125,0.07585215416763687,-0.9711544483788022,-2.667519885835371
21580.2780833328,0.2264404296875,-2.22247314453125,0.075042724609375,0.07585215416763687,-0.9711544483788022,-2.667519885835371
21610.3480833331,-0.8277130126953125,-1.588226318359375,0.214752197265625,0.3651129938632474,-3.10322236123615,-2.488942950520653
21640.472083333,0.14788818359375,-1.249404907226562,0.2392578125,0.1419435566240243,-2.887782482744773,-2.221404716888491
21670.544083333,0.6913604736328125,-1.28436279296875,0.337371826171875,0.01350915094553594,1.256117212391134,-3.600309368182709
21700.6690833327,0.281890869140625,-0.6645355224609375,0.1279449462890625,0.1522611753192093,0.4839805259578441,-1.905733042346456
21730.755083333,0.0147857666015625,-0.3142547607421875,0.08807373046875,0.01650547348798409,0.1500952264046478,-0.3619843122146223
21760.8630833329,0.1120452880859375,-0.17889404296875,0.1259613037109375,0.01650547348798409,0.1500952264046478,-0.3619843122146223
21790.9400833328,0.111328125,-0.2602691650390625,0.26220703125,-0.2570618905360075,-0.2034537893732574,0.7898142171170177
21821.0430833328,0.1672515869140625,-0.30377197265625,0.1909637451171875,-0.3708001743711116,0.3796493260412269,1.861351729096395
21851.1420833329,0.1065216064453125,-0.389801025390625,0.153717041015625,-0.504176341768351,0.1399238152533082,2.973039323985915
21881.241083333,0.1258544921875,-0.54034423828125,0.113006591796875,-0.5614734536730788,-0.2982402199430307,3.98640833775189
21911.3390833327,0.517974853515625,-0.8022308349609375,0.1104888916015625,-0.3906553718781973,-0.2229627759386329,4.778860415928632
21941.459083333,0.2936553955078125,-1.15997314453125,-0.0165557861328125,-0.3441493887104706,-0.07478582446716914,4.805995364275449
21971.5610833327,0.4927978515625,-1.45855712890625,0.2254180908203125,-0.1950794793255033,1.519075874212795,4.353976233507972
22001.6630833329,0.3778839111328125,-1.393966674804688,0.25933837890625,-0.1950794793255033,1.519075874212795,4.353976233507972
22031.7640833327,0.3783416748046875,-1.434219360351562,0.40283203125,-0.3133214348800404,3.180671346793398,3.822753094024886
22061.8600833327,0.8321380615234375,-1.341323852539062,0.4422760009765625,-0.5681606511702677,3.366214312571437,3.462706497819406
22091.953083333,1.132736206054688,-1.057159423828125,0.513580322265625,-0.5874246269153559,1.844723217566049,2.758243930478337
22122.0560833331,0.9979248046875,-0.7880859375,0.3100433349609375,0.3225695280814496,-1.50900779371175,1.774120153906958
22152.1530833329,0.96868896484375,-0.8847503662109375,0.187774658203125,0.7571153926208067,-2.048419887230721,-0.1358132261107709
22182.2530833329,-0.863494873046875,-2.42633056640625,-1.426605224609375,-0.7066490225960232,1.197021667802276,-1.574848592709561
22212.351083333,0.658843994140625,-1.044509887695312,0.41180419921875,-0.7066490225960232,1.197021667802276,-1.574848592709561
22242.4460833331,0.679718017578125,-0.96844482421875,0.334442138671875,1.292040059702995,2.793908184848351,-3.998479914341002
22272.5440833328,0.486541748046875,-1.106002807617188,0.1073455810546875,0.9345841866059431,0.7319000507877186,-1.886305814826546
22302.6350833329,-0.04730224609375,-1.016204833984375,0.1102447509765625,0.5254257041060932,-1.298635644458685,-0.9306986345755175
22332.7400833327,0.084930419921875,-1.011398315429688,0.1802215576171875,0.5794665689459811,0.02956774600260474,-0.9545640200520445
22362.8400833327,0.1713104248046875,-1.006561279296875,0.2759857177734375,0.4278283070057414,-0.2719284546891568,-0.7205294181975163
22392.9420833329,-0.011016845703125,-1.0101318359375,0.2281036376953125,0.3045210190578735,-0.7014918111450847,-0.4236809662401609
22423.0160833331,0.076690673828125,-0.9442138671875,0.2027435302734375,0.3045210190578735,-0.7014918111450847,-0.4236809662401609
22453.1390833331,0.141387939453125,-0.9839324951171875,0.166473388671875,0.2916891099775448,-0.4537717570808573,-0.5521127087575592
22483.2380833327,0.0644989013671875,-0.956756591796875,0.2077178955078125,0.301343335245191,-0.7438001198026286,-0.5203933949102795
22513.339083333,0.041961669921875,-0.94940185546875,0.2739410400390625,0.2811318067842526,-0.6640272598781771,-0.6371783350324343
22543.4360833328,0.1571807861328125,-0.9539337158203125,0.2920989990234375,0.2536794096354978,-0.2965642926690438,-0.8112191080624206
22573.5290833327,0.1327056884765625,-0.9195404052734375,0.1821746826171875,0.1988872670520986,-0.3121746777146523,-0.8786668584619853
22603.6310833329,0.2324981689453125,-0.981109619140625,0.1585235595703125,0.2245377694073058,-0.157864998884954,-0.9987586457096915
22633.729083333,0.228607177734375,-0.9839019775390625,0.2005462646484375,0.2245377694073058,-0.157864998884954,-0.9987586457096915
22663.825083333,0.2539215087890625,-1.005935668945312,0.2396087646484375,0.2615868675441611,-0.3920665809398303,-1.03855852293649
22693.9240833331,0.22161865234375,-0.9907073974609375,0.18096923828125,0.2546621160777371,-0.5335997444398735,-1.171969045111791
22724.024083333,0.23822021484375,-1.096206665039062,0.1904754638671875,0.2235119197554072,-0.4417502479202396,-1.365623733254102
22754.1220833327,0.22998046875,-1.118606567382812,0.101837158203125,0.2533659555751955,-0.4951650035878499,-1.652719156667369
22784.2220833327,0.254486083984375,-1.186859130859375,0.1087188720703125,0.2748134570980397,-0.615424303668122,-2.043872007037193
22814.3130833328,0.3237152099609375,-1.752975463867188,0.112701416015625,0.3763299620585521,-1.723211699141221,-2.410119241208705
22844.4090833327,0.1141510009765625,-2.0469970703125,0.032440185546875,0.3763299620585521,-1.723211699141221,-2.410119241208705
22874.4880833328,-0.5001068115234375,-1.646011352539062,0.9023895263671875,0.5573743161232289,-3.589707323883104,-2.231910088440527
22904.6050833331,-0.0085906982421875,-1.339096069335938,0.531829833984375,0.4560783209009749,-1.721428180159195,-2.974179689564687
22934.7030833328,1.062759399414062,-1.325653076171875,0.1675567626953125,0.7011685033887491,2.443664151983235,-4.229931516254262
22964.8040833331,0.51300048828125,-0.7662200927734375,0.215362548828125,0.3888729181606073,-0.4761955734593245,-2.338977153744983
22994.9010833329,0.14984130859375,-0.17340087890625,0.050872802734375,-0.1918924744490055,-1.54436977929804,-0.3402214924187127
23024.9980833328,0.23388671875,-0.18170166015625,0.149444580078125,-0.2614246810337753,-1.355395330455435,0.6414316696093998
23055.0650833329,-0.0390777587890625,-0.0850372314453125,0.0522003173828125,-0.2614246810337753,-1.355395330455435,0.6414316696093998
23085.1880833329,0.0271759033203125,-0.175567626953125,-0.0552978515625,-0.251196810867326,-1.084565962348154,1.843730923743885
23115.2730833328,0.17462158203125,-0.291229248046875,-0.1013336181640625,-0.1542622745622948,-0.267399482939368,2.861101603363814
23145.3740833331,0.2567901611328125,-0.4474029541015625,0.0113525390625,-0.1934357763007064,-0.2146846060062306,3.817206528422578
23175.4730833327,0.323486328125,-0.6850738525390625,0.0799713134765625,-0.09923683906740463,-0.2044210494811742,4.492276585760768
23205.5750833329,0.3330230712890625,-0.931396484375,0.11798095703125,0.01566631142850013,0.3065817731093768,4.769110050545634
23235.6670833328,0.4034423828125,-1.124069213867188,0.1878814697265625,0.09038981792616141,1.632406161768899,4.709195317605467
23265.773083333,0.416229248046875,-1.3526611328125,0.28662109375,-0.04725592933069302,2.342646190778785,4.609932912191598
23295.8740833328,0.607177734375,-1.472747802734375,0.375823974609375,-0.04725592933069302,2.342646190778785,4.609932912191598
23325.9740833328,0.6845550537109375,-1.561065673828125,0.2315521240234375,-0.1744245345430667,2.13585226476635,4.343888179298752
23356.0810833328,0.977813720703125,-1.349044799804688,0.2024078369140625,-0.3429541620132431,0.5472473797620935,3.922087671104296
23386.1720833329,0.93011474609375,-0.9214935302734375,0.4186248779296875,-0.2425455320662036,-1.047053740497733,3.122055171200754
23416.2700833331,1.035552978515625,-0.8652801513671875,0.15728759765625,0.2673456870853484,0.3537636665617657,0.6209937724558047
23446.3680833328,0.74298095703125,-1.241134643554688,-0.0970306396484375,0.4115196411223142,0.57348058176381,-1.593184190498648
23476.4710833329,-1.146408081054688,-1.702606201171875,0.712799072265625,0.4115196411223142,0.57348058176381,-1.593184190498648
23506.5720833327,1.079910278320312,-1.102279663085938,-1.335922241210938,0.8219756157052506,-0.1306570799242685,-1.736890493448195
23536.6930833329,0.2436370849609375,-1.0985107421875,0.996673583984375,0.8172823269162039,1.291540716998605,-3.065860075355101
23566.784083333,0.5864715576171875,-1.1722412109375,-0.147613525390625,1.087906098987331,1.035454342369893,-1.879557630940394
23596.8890833328,-0.0066986083984375,-0.9004974365234375,0.181640625,0.506731378518173,-1.404480851455012,-1.364868993401174
23626.995083333,-0.0497283935546875,-0.975250244140625,0.1097259521484375,0.5936372491062928,-0.7025789135020551,-0.8912798557007097
23657.0850833327,0.1905059814453125,-1.027008056640625,0.2261199951171875,0.5491992105250125,0.1326073127905335,-0.8339859395892899
23687.2010833331,0.1611175537109375,-0.98712158203125,0.2666778564453125,0.3074544909985958,-0.4856127773899537,-0.4250077530952384
23717.2840833327,0.0126495361328125,-0.9610748291015625,0.2371826171875,0.3074544909985958,-0.4856127773899537,-0.4250077530952384
23747.4020833329,0.069732666015625,-0.9429473876953125,0.157196044921875,0.1900815249077516,-0.5130020576208736,-0.2329067531328798
23777.493083333,0.0838470458984375,-0.9664764404296875,0.2254180908203125,0.2346910710632329,-0.2394482757184414,-0.3429429767366647
23807.5780833328,0.061798095703125,-0.9415435791015625,0.2520904541015625,0.2123516768913212,-0.4552351640998558,-0.3247205632939065
23837.688083333,0.0238494873046875,-0.9471282958984375,0.253814697265625,0.1705600214852528,-0.5092014604292215,-0.4046127328351936
23867.8090833328,0.0205841064453125,-0.9477081298828125,0.2400360107421875,0.1636917290339384,-0.2938305578100775,-0.5871319455115562
23897.887083333,0.0868988037109375,-0.9765625,0.2224273681640625,0.1691149902777757,-0.3030131372486707,-0.7926566089484592
23927.994083333,0.108612060546875,-0.9814605712890625,0.1949615478515625,0.1691149902777757,-0.3030131372486707,-0.7926566089484592
23958.1140833329,0.16351318359375,-0.98919677734375,0.2000732421875,0.1881278299320694,-0.3884145881370047,-0.9613755871721402
23988.2110833328,0.2375335693359375,-0.9810638427734375,0.278656005859375,0.2195997361140808,-0.3630152218725919,-1.110447893402089
24018.309083333,0.2297515869140625,-1.081619262695312,0.1583404541015625,0.2474524063746746,-0.6910578123102633,-1.177433052720307
24048.4110833327,0.1781768798828125,-1.020294189453125,0.20428466796875,0.1424418340639781,-0.585677859556373,-1.257745735397717
24078.5110833331,0.315887451171875,-1.062667846679688,0.2922210693359375,0.1507141450419823,-0.3024256439121992,-1.466141819121944
24108.6130833328,0.225738525390625,-1.081802368164062,0.1562652587890625,0.2171608131877863,-0.9075379215234254,-1.612067067891745
24138.7130833327,0.111083984375,-1.498794555664062,0.0105133056640625,0.2171608131877863,-0.9075379215234254,-1.612067067891745
24168.810083333,-0.1499481201171875,-1.63531494140625,0.1458282470703125,0.1109813794746541,-1.191102525963465,-2.033019359279011
24198.9150833328,0.181304931640625,-1.925262451171875,0.0398712158203125,0.3369503316517684,-1.443598426810532,-2.656151117457932
24229.017083333,-0.330963134765625,-1.416778564453125,0.5531005859375,0.5435277426675799,-3.415119271249107,-2.455779404414223
24259.1220833328,-0.17535400390625,-1.590179443359375,0.441009521484375,0.4019575612283846,-0.7931426358473987,-3.220119154124088
24289.2260833328,1.002944946289062,-1.107070922851562,0.3224334716796875,0.4604094197817707,0.5549319310875171,-3.159907212406268
24319.3320833329,0.7508544921875,-0.7624664306640625,0.1146240234375,0.262794877414621,-0.4102216164070095,-1.546636129385698
24349.435083333,0.006683349609375,-0.298980712890625,0.1741180419921875,-0.01255733717194162,-1.658563197363439,0.1796709618905228
24379.538083333,0.18756103515625,-0.1388092041015625,0.1712493896484375,-0.01255733717194162,-1.658563197363439,0.1796709618905228
24409.6390833329,-0.0039825439453125,-0.189849853515625,0.0611724853515625,-0.07600848172362451,-0.7837070561052479,2.400416812725329
24439.7420833329,0.0530548095703125,-0.1998443603515625,0.0234375,-0.07600848172362451,-0.7837070561052479,2.400416812725329
24469.8460833329,0.1026153564453125,-0.4542236328125,-0.0172119140625,-0.03305595439839053,-0.3943499752584643,3.524453751905656
24499.9340833328,0.37603759765625,-0.75274658203125,0.0301971435546875,0.09184097440414558,0.2260009101101953,4.150135220512218
24530.0580833327,0.485931396484375,-0.947723388671875,0.1651611328125,0.1284373351556874,-0.1332123829901995,4.665126393151271
24560.1580833327,0.340087890625,-1.04302978515625,0.196075439453125,0.1284373351556874,-0.1332123829901995,4.665126393151271
24590.2380833327,0.419097900390625,-1.152999877929688,0.2087249755859375,0.5809203885850553,1.96450767602396,4.341222887679801
24620.3590833329,0.53271484375,-1.1668701171875,0.27581787109375,0.5809203885850553,1.96450767602396,4.341222887679801
24650.4430833329,0.684600830078125,-1.291580200195312,0.3194732666015625,0.3922596601188611,2.393105902900843,4.153831421789139
24680.5470833328,0.7961273193359375,-1.332122802734375,0.225982666015625,0.08516682639629801,1.318717210658427,3.84174169891326
24740.6345833328,0.7969207763671875,-1.01641845703125,0.2573394775390625,-0.08312151867911716,-0.4157969441490904,2.023037565197285
24770.7255833329,0.8550872802734375,-0.8436737060546875,0.176361083984375,-0.08312151867911716,-0.4157969441490904,2.023037565197285
24800.8005833331,0.8258514404296875,-0.8685760498046875,0.062744140625,0.21839465572082,0.96647873645295,0.03187430982272237
24830.9235833331,-5.212417602539062,-3.220596313476562,-1.70343017578125,0.3515947881700052,1.525907681357175,-1.500519234053232
24861.011583333,3.223281860351562,-0.548095703125,0.2886810302734375,0.4995831878362913,0.2503643067105672,-1.101458925774744
24891.1025833327,0.01580810546875,-1.340560913085938,0.9111480712890625,0.9018970800185285,1.863965888022416,-3.059194183146633
24921.2285833328,0.4566802978515625,-1.088882446289062,0.2831573486328125,0.881175822524949,-0.0654274763966307,-1.588747630438685
24951.3325833327,0.1896820068359375,-1.067581176757812,0.1539764404296875,0.881175822524949,-0.0654274763966307,-1.588747630438685
24981.4205833327,-0.113372802734375,-0.964202880859375,0.0991058349609375,0.2879164759773385,-1.526491179952011,-1.262456867366067
25011.5245833331,0.053009033203125,-1.004013061523438,0.210296630859375,0.5098073295772145,0.2059198765426708,-0.9540753299920151
25041.6235833327,0.13592529296875,-1.006729125976562,0.30560302734375,0.5098073295772145,0.2059198765426708,-0.9540753299920151
25071.7315833331,-0.0054931640625,-0.9499359130859375,0.29046630859375,0.1970563438026691,-0.5552818704547535,-0.5788465850442107
25101.8335833328,-0.0501251220703125,-0.936553955078125,0.201171875,0.06204073443837693,-0.5257591318745711,-0.4415739466560764
25131.9365833328,0.076141357421875,-0.9524383544921875,0.2294769287109375,0.08807606357110057,0.006441920360792669,-0.6439307799763302
25162.0395833329,0.10400390625,-0.9551849365234375,0.20428466796875,0.05483501947694953,-0.1688292330928103,-0.6100649582904465
25192.1365833327,0.05499267578125,-0.94384765625,0.1965484619140625,0.05483501947694953,-0.1688292330928103,-0.6100649582904465
25222.2505833329,0.092254638671875,-0.962890625,0.2014617919921875,0.03702592863537165,-0.2073968656832288,-0.6376624977186106
25252.3435833327,0.1692047119140625,-0.966796875,0.1722869873046875,0.04797445019279641,-0.1149412336994929,-0.7734626743400401
25282.4465833328,0.1369476318359375,-0.969512939453125,0.1798553466796875,0.07630089681131522,-0.3065306404164473,-0.8018770052745317
25312.5475833331,0.1065673828125,-0.9759521484375,0.236602783203125,0.1222649266972108,-0.4262690261875,-0.8902667892220435
25342.671583333,0.1620025634765625,-1.002639770507812,0.230682373046875,0.08986011518534465,-0.2949679939116503,-1.071392902332186
25372.7615833327,0.2442169189453125,-1.068328857421875,0.1556854248046875,0.08986011518534465,-0.2949679939116503,-1.071392902332186
25402.8515833329,0.3614959716796875,-1.184494018554688,0.0236358642578125,0.03302399646530958,-0.323190044615438,-1.24531862680308
25432.9705833329,0.24542236328125,-1.083633422851562,0.0229034423828125,0.1045967170772981,-0.9313058353040555,-1.370942598583208
25463.0625833329,0.2406463623046875,-1.126419067382812,0.17132568359375,0.0279733114579743,-0.9198273446897051,-1.497326370222336
25493.1755833327,0.1365814208984375,-1.812255859375,0.20111083984375,-0.01815317125441612,-0.8384073196310395,-1.786918773473661
25523.2745833327,-0.06622314453125,-1.732391357421875,0.0623626708984375,-0.1193961695709774,-1.329858545078774,-2.144739499640053
25553.3805833329,-0.13787841796875,-1.957656860351562,0.0439910888671875,0.3392249375388051,-2.571700148762647,-2.629904067018547
25583.4775833328,-0.5742645263671875,-1.46405029296875,0.7379913330078125,0.1078798620691478,-2.784270471179464,-2.543004055384825
25613.5705833331,0.1615142822265625,-1.332916259765625,0.567352294921875,0.1078798620691478,-2.784270471179464,-2.543004055384825
25643.666583333,0.8606109619140625,-1.061935424804688,0.043731689453125,0.2726011691805108,1.706529658072965,-3.614967939454724
25673.7565833328,0.184356689453125,-0.7001800537109375,0.2027587890625,0.2001866233479482,1.279294703358093,-2.68701715449195
25703.8765833327,-0.0514068603515625,-0.21661376953125,0.140594482421875,-0.2355906868794616,-1.535199716716571,-0.7476039127875888
25733.9675833327,0.1143035888671875,-0.2726287841796875,0.3024139404296875,-0.4575015141875132,-0.797890519438792,0.2337025056665955
25764.088583333,0.0498199462890625,-0.2293243408203125,0.216644287109375,-0.5423162706877028,0.1281441211196697,1.354460028280599
25794.1795833331,0.0686187744140625,-0.29876708984375,0.2703857421875,-0.6287433049118263,0.4259116299692113,2.503636941835165
25824.2965833329,0.1590576171875,-0.4537506103515625,0.2064056396484375,-0.6287433049118263,0.4259116299692113,2.503636941835165
25854.398583333,0.2440948486328125,-0.7060394287109375,0.2025146484375,-0.6276388920077705,0.7849337081033385,3.450681260233261
25884.5035833328,0.224639892578125,-0.89654541015625,0.2694244384765625,-0.5591320024426811,0.7014742342818903,4.242267811055727
25914.5965833327,0.2647552490234375,-1.206222534179688,0.340972900390625,-0.3432931824200102,1.266914200082533,4.760325347373898
25944.6985833329,0.481842041015625,-1.382568359375,0.390380859375,-0.1959926772632914,2.647998116096763,4.797580307863017
25974.8115833327,0.560821533203125,-1.485504150390625,0.4553070068359375,-0.2516777777601943,2.620560632650113,4.715283836489606
26004.9155833331,0.6916961669921875,-1.485382080078125,0.40069580078125,-0.1624493643854164,2.368143295055203,4.393668519026732
26035.0175833328,1.2806396484375,-1.365646362304688,0.2802276611328125,-0.1624493643854164,2.368143295055203,4.393668519026732
26065.115583333,1.164581298828125,-1.014007568359375,0.3412628173828125,-0.02312635827403009,-0.3454668545017328,2.394890753463414
26095.2155833329,1.296951293945312,-0.8377227783203125,0.19207763671875,-0.02312635827403009,-0.3454668545017328,2.394890753463414
26125.3115833329,1.099258422851562,-0.8021087646484375,0.0543365478515625,0.4884618271241204,-0.3848395606896823,0.1116658118748044
26155.4105833329,-5.043609619140625,-3.280059814453125,-1.330062866210938,0.4355381583615208,0.1792147623957923,-1.692812780562403
26185.5075833328,3.10699462890625,-0.412384033203125,0.4211883544921875,0.988658074643348,2.471016147958893,-2.85882353536736
26215.6115833327,0.06005859375,-1.354827880859375,0.5712432861328125,1.302018391675303,-0.1981788662021375,-2.073680236486232
26245.7155833331,0.6874237060546875,-1.134735107421875,0.08514404296875,1.302018391675303,-0.1981788662021375,-2.073680236486232
26275.819583333,-0.03082275390625,-0.9768524169921875,0.0949859619140625,0.47261841548313,-1.138416144853992,-0.7073078886497088
26305.9205833329,0.0534820556640625,-0.9593963623046875,0.0571746826171875,0.47261841548313,-1.138416144853992,-0.7073078886497088
26336.0205833328,0.2024993896484375,-1.064468383789062,0.232696533203125,0.6741406141177531,-0.1453800996946626,-0.7982524430309338
26366.1195833329,-0.0234222412109375,-0.9476165771484375,0.3549957275390625,0.4436384291331057,-0.802260766787612,-0.436888913666409
26396.221583333,-0.1108551025390625,-0.9237060546875,0.252532958984375,0.2298363947121274,-0.7149306546378427,-0.2302710226020284
26426.3225833329,0.069000244140625,-0.970123291015625,0.1514739990234375,0.2393073944967762,-0.1523815502004809,-0.4851509852569339
26456.424583333,0.051361083984375,-0.9498443603515625,0.2297821044921875,0.2393073944967762,-0.1523815502004809,-0.4851509852569339
26486.5215833329,0.0060272216796875,-0.9512481689453125,0.2440643310546875,0.2355946816210968,-0.4192694398944447,-0.6039026698441122
26516.6245833329,0.0497283935546875,-0.9565887451171875,0.1985931396484375,0.2355946816210968,-0.4192694398944447,-0.6039026698441122
26546.7295833328,0.1042327880859375,-0.9665985107421875,0.2291412353515625,0.2385113756469515,-0.3059948124051234,-0.7899694794085693
26576.8315833329,0.1649932861328125,-0.9858856201171875,0.2057342529296875,0.2464302851483021,-0.2795512206772906,-0.9339037489474279
26606.930583333,0.1125335693359375,-1.01995849609375,0.2148895263671875,0.2564482982208532,-0.5983355979014106,-1.031981846624539
26637.0315833328,0.21539306640625,-1.078384399414062,0.1701812744140625,0.2118587257735475,-0.705533957047607,-1.242608327761707
26667.1325833327,0.1743621826171875,-1.084747314453125,0.1509857177734375,0.2087936936749753,-0.9049437363055792,-1.429963042029326
26697.2325833331,0.1254425048828125,-1.012466430664062,0.1966552734375,0.2087936936749753,-0.9049437363055792,-1.429963042029326
26727.328583333,0.29449462890625,-0.999114990234375,0.2332611083984375,0.1259246426671977,-0.8158444862436702,-1.68046796364545
26757.4365833329,0.3992462158203125,-1.074844360351562,0.16217041015625,0.1630871914664904,-0.4220734822061891,-1.907443058082396
26787.5365833329,0.348724365234375,-1.4412841796875,-0.0130157470703125,0.2497672259941714,-1.042172698851836,-1.946576878720565
26817.6345833331,-0.1338653564453125,-2.129745483398438,0.139892578125,0.09830047162813278,-1.804003218182628,-2.069771781270432
26847.7065833331,-0.5328216552734375,-1.573287963867188,0.423919677734375,0.1432261350050065,-2.599205809133203,-2.177386126178899
26877.8315833329,0.0463104248046875,-1.517166137695312,0.6060791015625,0.2159354927702408,-0.2083537394628942,-3.175141825422066
26907.902583333,0.783660888671875,-1.352218627929688,0.11358642578125,0.6065730214691346,1.536637557389104,-3.564440316724868
26938.029583333,0.5528717041015625,-1.047332763671875,0.0321807861328125,0.6065730214691346,1.536637557389104,-3.564440316724868
26968.1155833327,0.0959930419921875,-0.55462646484375,0.1764373779296875,0.1272841864036831,-1.429678882741015,-1.831104610699711
26998.232583333,0.1435546875,-0.306671142578125,0.1379547119140625,-0.09025985566496554,-2.040981944622239,-0.4940102569391915
27028.3335833328,0.105010986328125,-0.3010101318359375,0.200714111328125,-0.09055626549429135,-1.492386739032457,0.3612783082096423
27058.4365833329,0.2318878173828125,-0.219451904296875,0.0808258056640625,0.06049130731616882,-0.6503591182155635,1.40874430604412
27088.5355833329,0.133636474609375,-0.3477783203125,0.096038818359375,0.1579435621371114,-0.1429600852121075,2.515419032813784
27118.6355833329,0.1597900390625,-0.47723388671875,-0.01190185546875,0.1310751962154109,-0.002694320074833165,3.508361334702743
27148.7375833331,0.143707275390625,-0.6478424072265625,0.100067138671875,0.1310751962154109,-0.002694320074833165,3.508361334702743
27178.8365833327,0.217742919921875,-0.865875244140625,0.1406097412109375,0.08275560034534027,0.09552226197896212,4.3160189974394
27208.9165833327,0.321380615234375,-1.153289794921875,0.26861572265625,0.08718390460592403,0.3308085495458277,4.968743801651281
27239.036583333,0.497772216796875,-1.327255249023438,0.2626800537109375,0.1929558746722741,1.106992175571602,5.168204979918292
27269.1345833327,0.4988250732421875,-1.396224975585938,0.2987213134765625,0.1616171265447667,2.49739422592391,4.733106243136634
27299.2335833328,1.275924682617188,-1.438522338867188,0.3314208984375,0.07751876037780844,3.138406447661622,4.23090117320716
27329.331583333,1.051025390625,-1.290802001953125,0.3491363525390625,-0.2582834825280268,1.043999361043522,3.535025436168834
27359.4265833331,1.1240234375,-1.009918212890625,0.5066375732421875,-0.2582834825280268,1.043999361043522,3.535025436168834
27389.5295833327,1.1893310546875,-0.7547760009765625,0.2313995361328125,-0.1042534356127869,0.1980020323057562,1.926346175499778
27419.626583333,1.014495849609375,-0.766571044921875,0.06829833984375,0.3506522954602261,-0.3509702768943816,0.01130325461462331
27449.7225833329,-4.44415283203125,-2.895599365234375,-0.484466552734375,0.48340448421406,-0.6123816421227064,-1.378524618206664
27479.8285833331,2.6214599609375,-0.5422821044921875,-0.4579315185546875,1.80812872102727,3.22871663707119,-2.681418390932277
27509.928583333,0.22784423828125,-1.013641357421875,0.716339111328125,1.256445313837432,0.7751753532370701,-2.524393885687351
27540.0265833327,0.6695556640625,-1.07012939453125,0.062896728515625,0.6113848209266898,-0.6038134539475946,-1.660985608690975
27570.1255833328,-0.055084228515625,-1.022140502929688,0.1711578369140625,0.6113848209266898,-0.6038134539475946,-1.660985608690975
27600.2265833331,0.1575775146484375,-0.9856719970703125,0.0881195068359375,0.4772919968801101,-0.7923969507421765,-0.7872096455709202
27630.3225833331,0.2144317626953125,-1.004928588867188,0.2203521728515625,0.4937972040519852,0.1623127442214954,-0.9496651352268438
27660.4165833328,0.1241607666015625,-0.9441375732421875,0.2999725341796875,0.3931179969381936,-0.3153691394422023,-0.5660423728392187
27690.5085833328,-0.0556793212890625,-0.94549560546875,0.2815704345703125,0.1938560231207209,-0.7618188014219958,-0.3549096247788268
27720.6045833327,0.113067626953125,-0.9731597900390625,0.1947784423828125,0.1909720859762741,-0.1616392307818143,-0.557915470456733
27750.6995833328,0.171295166015625,-0.9746246337890625,0.1764984130859375,0.1727701788739095,-0.2976322202661656,-0.5369635832127525
27780.793583333,0.020172119140625,-0.9627838134765625,0.2521514892578125,0.1727701788739095,-0.2976322202661656,-0.5369635832127525
27810.8905833328,0.084869384765625,-0.9171142578125,0.241943359375,0.1401421944626947,-0.5148196650648527,-0.5550360606861392
