time(ms),accelerometerAccelerationX,accelerometerAccelerationY,accelerometerAccelerationZ,gyroRotationX,gyroRotationY,gyroRotationZ
0,0.02545166015625,-0.9528961181640625,-0.146942138671875,0.01721201012518212,-0.1455936852140869,0.006370547643578545
30.0789999992048,0.043609619140625,-0.9750823974609375,-0.1501922607421875,0.03355210130947229,-0.1553648232535876,-0.02220783401406176
60.1699999997436,0.016937255859375,-1.009902954101562,-0.1484222412109375,0.03355210130947229,-0.1553648232535876,-0.02220783401406176
90.2529999993931,0.03009033203125,-1.033660888671875,-0.1497039794921875,0.0984458802236511,0.08085250543036963,-0.02744334240104853
120.338999999149,0.0474395751953125,-0.9494171142578125,-0.1636962890625,0.1435659543601006,0.01383645344350668,-0.04372138193193986
150.409999999283,0.074432373046875,-0.956634521484375,-0.1513519287109375,0.2082669204113577,0.04135383172285942,-0.2042689829829307
180.501999999251,0.086334228515625,-0.9445648193359375,-0.1558380126953125,0.2797043524399702,0.01954573818841855,-0.2898773614879638
210.57700000074,0.0730438232421875,-0.95538330078125,-0.1252593994140625,0.3262593377717543,-0.05731868350955743,-0.3391104216119317
240.684999999758,0.0979461669921875,-0.9606781005859375,-0.106781005859375,0.3841588567150581,0.0138337902824166,-0.3689380921369282
270.768999999746,0.086822509765625,-0.9267425537109375,-0.06085205078125,0.3841588567150581,0.0138337902824166,-0.3689380921369282
300.854999999501,0.1165771484375,-1.010635375976562,-0.044647216796875,0.4051110102751475,0.1831269460371187,-0.351722087270111
330.934999999954,0.1126556396484375,-0.9377288818359375,-0.0743865966796875,0.4109683667766677,0.3758644415000063,-0.3241154930942405
361.024999999245,0.182952880859375,-0.9345703125,-0.082427978515625,0.5094371501856935,0.4566988374349634,-0.3536893643673525
391.115999998874,0.0919189453125,-0.951934814453125,0.0278778076171875,0.5205963277853435,0.5060639903489992,-0.3049026500420819
421.200999999201,0.2383880615234375,-0.9821929931640625,-0.09136962890625,0.6066390678641685,0.6447696757197051,-0.2784678467458464
451.279999999315,0.2710418701171875,-0.946746826171875,-0.212158203125,0.7778520964487088,0.4737129746911526,-0.1887083990497067
481.370999999854,0.2512664794921875,-0.983795166015625,-0.0221099853515625,0.7778520964487088,0.4737129746911526,-0.1887083990497067
511.447999999291,0.1425018310546875,-0.9759368896484375,0.155364990234375,0.9664909869939644,-0.0959451719600667,-0.08140644293710612
541.547999999239,0.0623779296875,-0.965240478515625,0.2280426025390625,0.8979774395261499,-0.6609550372446616,-0.09651721896221573
571.610999999393,0.166168212890625,-0.9556427001953125,0.175628662109375,0.7295223805664958,-0.283226649297709,-0.269583807665451
601.700999999593,0.2113494873046875,-0.958251953125,0.106414794921875,0.6124588737943187,0.05714158329706716,-0.3503934362022704
631.790999998884,0.220184326171875,-0.9439544677734375,0.1011962890625,0.6039575309625678,-0.1500728558514912,-0.3289211672812886
661.896999999954,0.1958160400390625,-0.9786224365234375,0.1212921142578125,0.6527144178836295,-0.3619017542208298,-0.3677047822361125
691.974999999729,0.22265625,-0.950958251953125,0.2146453857421875,0.6620277585317456,-0.4102927228081146,-0.4333855252524097
722.046999999293,0.215423583984375,-0.91485595703125,0.234588623046875,0.6620277585317456,-0.4102927228081146,-0.4333855252524097
752.136999999493,0.2397918701171875,-0.9477081298828125,0.2522125244140625,0.6574138319431834,-0.3046464539452163,-0.5139874272242029
782.226999999693,0.27105712890625,-0.940582275390625,0.2376861572265625,0.6574138319431834,-0.3046464539452163,-0.5139874272242029
812.298000000737,0.2442779541015625,-1.031814575195312,0.206146240234375,0.6870739896356138,-0.379584877542847,-0.5814753913562279
842.415999999503,0.2424774169921875,-1.039794921875,0.268280029296875,0.6602666101028762,-0.3536454222093662,-0.7736190018960278
872.501999999258,0.1023712158203125,-1.038116455078125,0.009124755859375,0.773489305950941,-0.2222538424564538,-0.9898413171156701
902.571999999964,0.27142333984375,-1.152786254882812,0.244171142578125,0.7365786921907698,-0.9213200464806944,-1.146634127345758
932.661999999254,0.24664306640625,-1.227981567382812,0.1279754638671875,0.8164594101393695,-1.1253192512452,-1.39937290848424
962.751999999455,0.1687469482421875,-1.321685791015625,0.0343170166015625,0.9507389217783637,-1.584712941387215,-1.813101375414666
992.851999999402,-0.176177978515625,-2.116851806640625,0.0481719970703125,0.9507389217783637,-1.584712941387215,-1.813101375414666
1022.91499999956,-0.40460205078125,-1.853286743164062,0.0414276123046875,1.135666431028485,-3.077777987549315,-2.241283882845388
1053.02999999913,-0.3075103759765625,-1.75537109375,0.582305908203125,1.270780843669219,-4.233264728674605,-1.851597102655652
1083.09099999951,0.413543701171875,-1.799026489257812,0.2660980224609375,1.025972423624775,0.03204448581637843,-3.547523651164576
1113.17999999937,0.6534271240234375,-1.349609375,-0.054107666015625,1.459019727418745,1.64606950974155,-3.096131961149923
1143.27299999968,-0.1693115234375,-0.8647003173828125,-0.079986572265625,0.7811528183037529,-1.404357280780433,-0.5636862742228256
1173.36199999954,-0.345916748046875,-0.3328704833984375,-0.064056396484375,0.7811528183037529,-1.404357280780433,-0.5636862742228256
1203.44999999998,-0.308563232421875,-0.3035736083984375,-0.14422607421875,0.2062256074358119,-1.174090252920039,1.428063142907664
1233.55199999969,-0.16363525390625,-0.3446807861328125,-0.1302490234375,-0.2960266004449568,-0.7447942778375551,3.291282280560422
1263.62499999959,0.075042724609375,-0.451690673828125,-0.114013671875,-0.6683000355311002,-0.6571752127095122,4.828432496459366
1293.72699999931,0.0831298828125,-0.6718597412109375,-0.045745849609375,-0.802392060629353,-0.6847125646970406,5.881256241774866
1323.81899999928,0.147247314453125,-1.132293701171875,0.0526123046875,-0.6717413722917006,-0.3187905024946271,6.599132618894445
1353.90599999937,0.5112457275390625,-1.6724853515625,0.301025390625,-0.461726885573033,1.120697601489477,6.855982788123791
1383.99499999923,1.42327880859375,-1.796371459960938,0.5180206298828125,-0.461726885573033,1.120697601489477,6.855982788123791
1414.08199999933,2.292266845703125,-1.3739013671875,0.576416015625,-0.6028046485266725,1.472491327792911,5.628534504867361
1444.14799999959,1.937057495117188,-1.097259521484375,0.4604034423828125,-0.3280641620425011,0.6595281155325973,3.61572853826205
1474.26500000074,1.889816284179688,-1.261871337890625,0.7922515869140625,-0.1164738829068335,2.136103667173253,0.2403771863066611
1504.35199999993,-0.2035980224609375,-1.48779296875,-0.5486602783203125,0.8964115008051833,2.762192865742707,-3.85218954618575
1534.43899999911,0.6462860107421875,-0.019073486328125,0.3924713134765625,1.036943582051466,0.5799888148357457,-2.647396508006514
1564.5259999992,0.5910491943359375,-1.786346435546875,0.0576019287109375,1.036943582051466,0.5799888148357457,-2.647396508006514
1594.61199999987,0.24835205078125,-0.9351043701171875,0.294586181640625,0.5325272894688985,-1.30150653211379,-0.8954671438826413
1624.69999999939,-0.0450592041015625,-1.009323120117188,0.2167510986328125,0.5325272894688985,-1.30150653211379,-0.8954671438826413
1654.78699999949,0.2103118896484375,-0.9945068359375,0.1170806884765625,0.462669111966703,-0.1348893755286224,-0.9981226828413806
1684.87200000072,0.179718017578125,-1.032913208007812,0.2076416015625,0.415784160975858,-0.2175461725975207,-0.6996544963090391
1714.95699999923,-0.01513671875,-0.9265899658203125,0.318878173828125,0.2392109880653153,-0.5687454813456492,-0.4250168078429447
1745.03999999888,0.0457305908203125,-0.9280853271484375,0.2362823486328125,0.1876324819693147,-0.235904939888091,-0.5361688959434728
1775.13199999976,0.071624755859375,-0.9534912109375,0.1356964111328125,0.2339520438607359,-0.1827618266516688,-0.6789071398367769
1805.21900000076,0.1067047119140625,-0.9966278076171875,0.1667938232421875,0.2339520438607359,-0.1827618266516688,-0.6789071398367769
1835.30699999937,0.1239471435546875,-1.0233154296875,0.175018310546875,0.155544320311059,-0.2697204278293721,-1.124312310037041
1865.39799999991,0.2511444091796875,-1.070663452148438,0.303466796875,0.155544320311059,-0.2697204278293721,-1.124312310037041
1895.48299999933,-0.0610198974609375,-0.922760009765625,0.0111846923828125,0.1640227599574352,-0.9765239137686199,-1.329713935431583
1925.58200000076,-0.122955322265625,-1.449005126953125,0.0276947021484375,0.1948421916723772,-0.9488885574529767,-2.213938012140236
1955.67099999971,0.220733642578125,-1.664566040039062,-0.1629180908203125,0.230897398090415,-0.0009486179802862246,-3.300975387979983
1985.76099999991,0.1920166015625,-1.823837280273438,-0.2721405029296875,0.3734281817348017,0.1781678737712821,-3.666426336985562
2015.84899999943,-0.014434814453125,-2.672592163085938,0.1151580810546875,0.5201036429836788,-1.617519890223683,-3.280105792413686
2045.93399999976,-0.926910400390625,-1.93072509765625,0.45819091796875,0.5201036429836788,-1.617519890223683,-3.280105792413686
2076.01699999941,-0.446258544921875,-1.583724975585938,0.6255950927734375,0.6294213457253605,-5.913673836459964,-2.290337445911884
2106.09299999942,1.014007568359375,-1.158782958984375,0.8274688720703125,-0.2068368029059851,-0.1520451929548039,-2.799483512590432
2136.18100000076,0.375152587890625,-0.9366607666015625,0.21783447265625,0.2724557605849925,2.735173764903308,-2.335449796881173
2166.26199999973,-0.358367919921875,0.0306854248046875,-0.092193603515625,-0.08277903616293296,-0.7037107569653388,0.4352486727510291
2196.33299999987,-0.430908203125,-0.3386688232421875,-0.0337371826171875,-0.3201473830700225,-0.06953247290087883,2.172455549736726
2226.42500000075,-0.32177734375,-0.288177490234375,0.0038909912109375,-0.3490759704110082,0.4953788554233832,3.702890072314818
2256.50599999972,-0.0465545654296875,-0.5102081298828125,-0.021697998046875,-0.3490759704110082,0.4953788554233832,3.702890072314818
2286.59300000072,0.0856781005859375,-0.6797637939453125,0.035552978515625,-0.5711098357614215,0.3962879575837149,4.997327509631102
2316.67599999946,0.2232208251953125,-1.006790161132812,0.1305084228515625,-0.6399429625600455,0.1640200967963452,5.965638500914026
2346.77899999951,0.326904296875,-1.4969482421875,0.1857147216796875,-0.3128300816589208,0.4769753470264996,6.39664182857136
2376.86599999961,0.9600372314453125,-1.967575073242188,0.4298553466796875,-0.03671007773008825,1.793926615566096,6.480042979164936
2406.94800000074,2.15667724609375,-1.789993286132812,0.4665374755859375,-0.2625527960715329,1.421510967677742,4.781292414636092
2437.04199999956,2.225570678710938,-1.034194946289062,0.4285430908203125,0.1576343691345532,0.8312546015753047,2.026695949586727
2467.13,2.332672119140625,-0.80792236328125,0.3567047119140625,0.1576343691345532,0.8312546015753047,2.026695949586727
2497.21699999918,-1.802337646484375,-3.70062255859375,-0.27166748046875,0.3962056659060315,1.631179509770808,-1.391094472235729
2527.30300000076,1.420761108398438,0.854949951171875,-0.3070220947265625,1.331444990140134,1.047388233530647,-3.674026199788321
2557.38799999926,0.709747314453125,-1.543258666992188,0.5213470458984375,1.048301964100654,0.2970990554159317,-2.277973720551191
2587.4759999997,0.527069091796875,-0.988800048828125,0.217193603515625,0.9471103647931308,-0.2099234066093869,-1.84303184395774
2617.56399999922,0.089141845703125,-1.018096923828125,0.15704345703125,0.3734489543913044,-0.7089720980148994,-1.073000120050049
2647.65099999931,0.1578826904296875,-0.959503173828125,0.1367340087890625,0.5366133775294071,-0.1542279197842328,-0.9196539729027409
2677.73899999975,0.2376251220703125,-1.008834838867188,0.2211761474609375,0.5366133775294071,-0.1542279197842328,-0.9196539729027409
2707.81799999986,0.0409698486328125,-1.019607543945312,0.288116455078125,0.4090138728526586,-0.6190592522399712,-0.5171427404837288
2737.90799999915,-0.050048828125,-0.9284820556640625,0.27557373046875,0.2848173554168133,-0.9601619846633911,-0.4467210380948725
2767.99599999958,0.11767578125,-0.981353759765625,0.1631317138671875,0.2568461744877111,-0.4314443471338509,-0.7911740271696122
2798.08399999911,0.1085662841796875,-0.9832916259765625,0.2435455322265625,0.2173733334427746,-0.3971596102084979,-0.9983836726282084
2828.16800000001,0.1768798828125,-1.058547973632812,0.2161102294921875,0.1607771655369557,-0.4160102633524058,-1.195805135816327
2858.25499999919,0.1114959716796875,-1.080123901367188,0.17431640625,0.1155404449447607,-0.4937985356325302,-1.449236871470448
2888.34099999985,0.061981201171875,-1.2161865234375,-0.17730712890625,0.1155404449447607,-0.4937985356325302,-1.449236871470448
2918.42999999972,0.07965087890625,-1.5162353515625,-0.028350830078125,0.1919750324427979,-0.5503659413985763,-1.995911671598174
2948.51899999958,0.0810394287109375,-1.621490478515625,0.0150146484375,0.164887488363384,0.1644238320176012,-2.84332899782917
2978.60999999921,-0.06610107421875,-1.942245483398438,0.124267578125,0.2489246018252704,-0.4595169945004852,-3.332062201068369
3008.6969999993,-0.8935394287109375,-3.278427124023438,0.2007293701171875,0.3604822893598176,-3.085927260484957,-3.452217371550019
3038.78599999916,-0.6185455322265625,-1.298965454101562,0.398284912109375,0.4419433270992703,-5.040887770317092,-2.642438767321223
3068.87499999993,0.4831695556640625,-1.954345703125,0.4357452392578125,-0.3595613682548682,1.252423141643085,-4.165713114992528
3098.95699999925,0.0915985107421875,-1.08837890625,0.23760986328125,-0.3595613682548682,1.252423141643085,-4.165713114992528
3129.04199999957,-0.2597503662109375,-0.1712493896484375,0.06005859375,0.4605119514837388,2.149826137322105,-2.072504450864962
3159.12599999956,-0.0658111572265625,-0.1246490478515625,0.0696563720703125,0.224779584434285,0.8479486268684664,0.3469606215571583
3189.19899999946,-0.2925262451171875,-0.2515106201171875,-0.1274261474609375,-0.03312359869007854,0.08781960115812594,2.576420601794812
3219.30199999952,0.1079254150390625,-0.2693023681640625,-0.0638275146484375,-0.3332261671834016,-0.2827267739611011,4.112732720898709
3249.37299999965,0.0223236083984375,-0.4779510498046875,-0.1758270263671875,-0.5810713898188629,-0.2674412945684823,5.60868330210191
3279.46799999972,0.0133056640625,-0.7136688232421875,-0.0550994873046875,-0.3777696669438489,-0.5965504810227304,6.608473390101789
3309.55899999935,0.110260009765625,-1.321014404296875,0.1604156494140625,-0.3777696669438489,-0.5965504810227304,6.608473390101789
3339.6359999997,0.478424072265625,-2.147262573242188,0.5244293212890625,-0.08184906031027729,0.9294813036412423,7.010344398594746
3369.71500000072,1.816146850585938,-2.213821411132812,0.746063232421875,-0.5248240960158443,2.772545638164281,6.660851909789249
3399.79699999913,2.2396240234375,-1.675506591796875,0.47784423828125,-0.562657228777619,1.242644014120314,5.100773741117486
3429.89599999964,2.764678955078125,-0.607574462890625,0.9014129638671875,-0.3385522230474511,2.143269967350548,2.02317312009677
3459.97499999976,1.859420776367188,-1.498550415039062,0.1287841796875,0.9773228620956437,2.59089301810663,-2.016921615753918
3490.06399999962,0.392181396484375,-1.764892578125,0.931488037109375,1.863549902260146,1.056481863388832,-3.398280902624863
3520.13099999931,-0.0248565673828125,-0.53643798828125,0.1029052734375,1.562056098413366,-1.261714111738044,-2.288753131379396
3550.21599999964,0.582183837890625,-1.65777587890625,0.148406982421875,1.562056098413366,-1.261714111738044,-2.288753131379396
3580.30699999927,0.5013580322265625,-0.983001708984375,0.20263671875,1.085139340930848,-0.1485572508751271,-2.172623062569292
3610.39299999993,-0.12249755859375,-0.9709930419921875,0.050537109375,0.7367091870841836,-1.665066370429303,-1.067405084915901
3640.47400000072,0.1447906494140625,-1.04150390625,0.2597808837890625,0.8048733278169797,-0.5528863570542273,-0.9875312911861355
3670.55699999946,0.0812835693359375,-0.9901580810546875,0.372039794921875,0.5233875869238556,-0.623925912815982,-0.6248979666138609
3700.65299999987,0.0965118408203125,-0.9566650390625,0.2042236328125,0.3616346391634949,-0.6911190650153352,-0.4723121519577709
3730.73999999997,-0.028167724609375,-0.961273193359375,0.1658477783203125,0.3828555056775733,-0.3590692160854215,-0.6990249250273444
3760.82799999949,0.0911865234375,-0.9952850341796875,0.210296630859375,0.3828555056775733,-0.3590692160854215,-0.6990249250273444
3790.91399999925,0.078369140625,-1.056533813476562,0.3006591796875,0.382477869435,-0.1127233531436749,-0.992490097135863
3820.99799999924,0.09967041015625,-1.041412353515625,0.2422637939453125,0.3654450900511803,-0.5126728909101398,-1.246885630788483
3851.08299999956,-0.088775634765625,-1.144454956054688,-0.0424957275390625,0.4892144364481768,-1.244190511765323,-1.643013266074575
3881.15999999991,0.0544891357421875,-1.512664794921875,0.045623779296875,0.3850038777289402,-0.5483352810673908,-2.566553856272178
3911.2439999999,0.0139007568359375,-1.570114135742188,0.053314208984375,0.4255478421643065,-0.6869192599762802,-3.241908605530898
3941.32899999931,-0.16912841796875,-1.853591918945312,0.0079193115234375,0.5318255465216626,-1.613205569257754,-3.775457483593951
3971.41899999951,-0.6890716552734375,-3.2869873046875,-0.012786865234375,0.5318255465216626,-1.613205569257754,-3.775457483593951
4001.50499999927,-0.773895263671875,-1.066055297851562,0.4025421142578125,0.7565329592904064,-5.659017046704407,-2.522138454560163
4031.57399999964,0.4256591796875,-2.074813842773438,0.4901275634765625,-0.2613842009852061,-1.448799580419457,-3.826312675137886
4061.68399999933,0.205474853515625,-1.210006713867188,0.3187255859375,-0.007521299550601784,1.836498577171557,-4.497978946286846
4091.77,-0.0113677978515625,-0.310272216796875,0.0218048095703125,0.2313759681383022,1.042264577909444,-1.186262230682246
4121.85299999965,0.160247802734375,-0.08953857421875,0.105926513671875,-0.03705069603350938,-0.6800736043942315,0.9479173026034248
4151.93299999919,-0.302886962890625,-0.1361236572265625,-0.1457672119140625,-0.03705069603350938,-0.6800736043942315,0.9479173026034248
4182.01699999918,-0.259246826171875,-0.2672882080078125,-0.0352325439453125,-0.2824125209524718,-1.763751935151062,3.143273108237633
4212.10699999938,-0.1260986328125,-0.4187774658203125,-0.0350494384765625,-0.3570281694259848,-0.691349428449627,4.589210323117473
4242.19399999947,0.042572021484375,-0.6545562744140625,-0.0082244873046875,-0.3500956947923995,0.4474813705860901,5.693367031076467
4272.27899999889,0.1917724609375,-1.239151000976562,0.0318756103515625,-0.1505500943188334,0.7600406087621498,6.367363568179247
4302.36199999945,0.5884246826171875,-1.928817749023438,0.345947265625,-0.02615730191064927,0.875327787087244,7.002590871397089
4332.44699999887,1.378341674804688,-2.002334594726562,0.8725433349609375,-0.233115811278451,1.228992650372568,6.638668310541108
4362.53299999953,1.923797607421875,-1.701370239257812,0.5675811767578125,-0.233115811278451,1.228992650372568,6.638668310541108
4392.61799999986,2.6365966796875,-0.7307281494140625,0.7842254638671875,0.07180281773017139,1.89170856972999,4.319621455445951
4422.70099999951,2.30560302734375,-1.249847412109375,0.21258544921875,-0.07470752753112081,3.399230852185694,1.069151319642666
4452.7879999996,0.862945556640625,-2.485321044921875,0.6984710693359375,0.002049302458815974,3.172509290684523,-2.470258744944875
4482.86799999914,0.1268310546875,0.2028961181640625,0.254241943359375,1.511089054103647,1.82558813881772,-5.381089555343738
4512.96299999922,0.6607818603515625,-2.114013671875,0.229949951171875,1.737126183204667,1.221742460620936,-2.685403545187471
4543.04899999988,0.36907958984375,-0.8871002197265625,0.34295654296875,0.8807252156685076,-1.340950344702845,-1.390069155216048
4573.10799999959,-0.157684326171875,-1.004302978515625,0.1763153076171875,0.8807252156685076,-1.340950344702845,-1.390069155216048
4603.19099999924,0.1651153564453125,-1.03521728515625,0.2270965576171875,0.5899991047411355,-1.241916704826613,-0.7845917582193723
4633.28599999932,0.03240966796875,-0.9916534423828125,0.3979339599609375,0.6333026366980419,-0.4246857769194479,-0.7403561198809382
4663.37899999962,0.0162353515625,-0.9100341796875,0.3405914306640625,0.3811188583307326,-0.6349687102759956,-0.5034090850582992
4693.46199999927,-0.0690765380859375,-0.9418182373046875,0.195220947265625,0.280336054250537,-0.6315276398315042,-0.5670706193360983
4723.56899999886,0.0934600830078125,-1.01129150390625,0.1707916259765625,0.2936417396887909,-0.1648648514941183,-0.9683480092220766
4753.65699999929,0.115875244140625,-1.133895874023438,0.2032623291015625,0.2661352803699074,-0.205085508173149,-1.186718696493086
4783.74699999949,0.099700927734375,-1.07794189453125,0.3909912109375,0.2661352803699074,-0.205085508173149,-1.186718696493086
4813.83499999993,-0.1600189208984375,-1.02093505859375,-0.128875732421875,0.256440841369801,-0.5411652524645705,-1.436129591533405
4843.92699999989,-0.027252197265625,-1.558807373046875,0.072540283203125,0.4675448272904201,-1.127347248415296,-2.026393680803003
4874.01699999918,0.12152099609375,-1.598068237304688,-0.0469970703125,0.4084652616681023,-0.1235080902940598,-3.013303656506823
4904.10999999949,-0.304473876953125,-1.811630249023438,0.0460662841796875,0.5690991491384116,-0.9660640822712248,-3.347723186174689
4934.20399999923,-0.795928955078125,-3.176910400390625,0.1956634521484375,0.7796201690964124,-2.941335456472958,-3.713030058165295
4994.2552499997,0.3058929443359375,-2.080734252929688,0.5969085693359375,0.7256083327124063,-4.979033190838911,-2.212332924951245
5024.35624999998,0.397247314453125,-1.274734497070312,0.30328369140625,-0.3223269141061433,0.5083505804609412,-3.762309989924448
5054.44324999917,-0.1471405029296875,-0.3312530517578125,-0.0685882568359375,0.4874812512107533,3.43407565188829,-2.752597230019042
5084.53324999937,-0.0796661376953125,-0.2083587646484375,0.07464599609375,0.02722762635275212,-0.7027719926810859,0.1367149724558717
5114.61924999912,-0.1260223388671875,-0.20709228515625,-0.1473541259765625,-0.04666177809149635,-0.6293606256525066,2.53285554741886
5144.6942499997,-0.104736328125,-0.228363037109375,-0.2188568115234375,-0.6733648352922129,-0.3380579403491324,4.465224728039962
5174.79324999931,-0.021453857421875,-0.4727020263671875,-0.1454315185546875,-0.9694582810805307,-0.1978132141844696,5.664901567449046
5204.88024999941,0.25537109375,-0.73431396484375,-0.080657958984375,-0.9694582810805307,-0.1978132141844696,5.664901567449046
5234.96825000075,0.3556976318359375,-1.217910766601562,0.00555419921875,-0.723409626916437,-0.2399950226902347,6.627005795495432
5265.05424999959,1.029083251953125,-1.719070434570312,0.48297119140625,-0.1711110295147902,-0.5001879917198483,7.243391234000963
5295.13424999914,1.850936889648438,-2.059921264648438,0.61474609375,-0.3368038577918141,1.195006720121522,6.551778951551746
5325.2262499991,2.0732421875,-1.44171142578125,0.57073974609375,-0.07958164495818383,1.777617150734341,4.705905781027001
5355.31124999943,2.576126098632812,-0.7135772705078125,0.89312744140625,-0.3420889009750763,2.591417660841376,1.700721303735502
5385.39324999965,1.346710205078125,-1.6614990234375,0.0966339111328125,0.7390226751231355,2.037066831503714,-1.041521289649203
5415.48024999975,1.152328491210938,-1.527587890625,0.5567474365234375,0.7390226751231355,2.037066831503714,-1.041521289649203
5445.56524999916,0.18402099609375,-0.4675140380859375,0.1855316162109375,2.093783640606913,1.294162599091788,-3.782595820579799
5475.65424999993,0.69921875,-2.010406494140625,0.19329833984375,1.452790060996832,-1.881941959064342,-2.281460863682541
5505.74124999912,0.1915740966796875,-0.8160552978515625,0.2713470458984375,1.160196541513096,-0.4354249740151924,-2.164921200696783
5535.82524999911,-0.0720062255859375,-1.05426025390625,0.253692626953125,0.6315593314484761,-1.822621111047263,-0.8040786405477001
5565.91124999886,0.1181640625,-1.034408569335938,0.2452239990234375,0.4813455943753197,-0.4172041584690883,-0.8129626796280954
5595.99824999987,0.07000732421875,-1.0113525390625,0.2474822998046875,0.3313028322441464,-0.680022738017411,-0.5333448799235528
5626.06224999945,0.004364013671875,-0.9757843017578125,0.21282958984375,0.2852988549418996,-0.8787419596047256,-0.5015621828423292
5656.16625000075,-0.036224365234375,-0.9599609375,0.2272186279296875,0.2726805313809952,-0.7805517428457222,-0.8304199668896739
5686.25724999947,0.0108489990234375,-1.012771606445312,0.2674102783203125,0.2726805313809952,-0.7805517428457222,-0.8304199668896739
5716.33224999914,0.1510162353515625,-1.083297729492188,0.2044677734375,0.200514724794246,-0.4213909140188019,-1.215706406010271
5746.3982499994,0.0645904541015625,-1.051025390625,0.0469970703125,0.1314749366950318,-0.5999225755949887,-1.428207219922637
5776.4852499995,0.0009918212890625,-1.114578247070312,-0.1287078857421875,0.1890452889276018,-0.5892659364930367,-1.817767766276703
5806.57124999925,0.1616973876953125,-1.469467163085938,0.090789794921875,0.07826657601190271,-0.07857976375609602,-2.504746148429183
5836.66124999945,0.026702880859375,-1.6072998046875,-0.072662353515625,0.1578242525202758,-0.7801344255029067,-2.865179701941052
5866.74724999921,-0.476593017578125,-1.813125610351562,-0.28497314453125,0.1578242525202758,-0.7801344255029067,-2.865179701941052
5896.82724999966,-1.31512451171875,-3.151611328125,0.3869781494140625,0.07732594751488671,-1.908652399533401,-3.485209676398357
5926.9212499994,-0.719757080078125,-1.365875244140625,0.5699920654296875,-0.01573768414571425,-4.36791734918232,-2.771648419193033
5957.00324999962,0.4094390869140625,-1.903274536132812,0.776214599609375,-0.6194347579536723,0.8043359019090017,-4.376942003168271
5987.11224999988,0.443634033203125,-1.35174560546875,0.6149444580078125,-0.03499287145920515,3.035579667444791,-4.67295715202054
6017.17324999936,0.042388916015625,-0.441619873046875,0.2299346923828125,0.3937542261226135,2.415448226549954,-1.95535625557012
6047.27924999952,0.11602783203125,-0.161346435546875,0.3015594482421875,0.01631186167673533,-0.8269216384817457,0.6711767821406038
6077.34224999967,0.02752685546875,-0.1368560791015625,0.17352294921875,-0.3142639275898194,-1.745914614801929,2.626191087826758
6107.43224999987,-0.234405517578125,-0.1224365234375,0.077239990234375,-0.5828471856337277,-1.266515258551239,4.305526142744489
6137.5232499995,-0.2064666748046875,-0.3133087158203125,0.047454833984375,-0.5828471856337277,-1.266515258551239,4.305526142744489
6167.62324999945,-0.0743865966796875,-0.5431671142578125,0.042449951171875,-0.4187839456277233,-0.02687582277275265,5.583931882930713
6197.7032499999,-0.020904541015625,-1.136215209960938,0.0359649658203125,-0.105263572614254,1.184544758095254,6.374649444289486
6227.79424999953,0.387786865234375,-1.9033203125,0.2586212158203125,-0.0830626628190264,1.648802711968299,6.935521289872316
6257.88524999916,1.063720703125,-2.350601196289062,0.6562347412109375,-0.286890360009331,1.745003281076904,7.306233846243564
6287.97424999993,1.715469360351562,-2.034988403320312,0.4841461181640625,-0.4131194019891247,1.495642986097297,5.665018213904792
6318.06724999933,2.9508056640625,-0.842437744140625,0.7950592041015625,-0.09343540894877603,2.496828570508377,2.128337623118473
6348.15524999885,2.76763916015625,-0.7520294189453125,0.517303466796875,-0.09343540894877603,2.496828570508377,2.128337623118473
6378.21525000072,-5.169540405273438,-4.083175659179688,-0.3681793212890625,0.8073037286277861,0.5993438706901145,-2.051601832101148
6408.31524999976,1.764923095703125,-0.013427734375,-1.61322021484375,2.210185351848206,1.023825649470062,-4.842217550893834
6438.3952499993,0.80767822265625,-1.288421630859375,1.016937255859375,1.589393979635247,-1.172694490192729,-2.458497959254976
6468.48124999997,1.058670043945312,-1.305648803710938,0.1871185302734375,0.9616767906914282,0.1603462660725808,-2.449320972454672
6498.57124999926,0.0895843505859375,-0.97784423828125,0.102935791015625,0.3144807089025519,-1.915561172033285,-1.003055123496316
6528.66024999912,0.1200714111328125,-0.947021484375,0.034393310546875,0.7575944953009121,-0.5160338002058198,-0.7665227428554027
6558.72624999938,0.1627044677734375,-1.105728149414062,0.31549072265625,0.7575944953009121,-0.5160338002058198,-0.7665227428554027
6588.81324999948,-0.0118255615234375,-0.9337158203125,0.4824676513671875,0.5019051979907314,-0.6315380261597554,-0.5131487977969369
6618.90824999955,-0.1022491455078125,-0.91986083984375,0.2263336181640625,0.2373281331746293,-1.059970870732945,-0.2887844001765953
6648.9912499992,-0.060638427734375,-0.987152099609375,0.1142120361328125,0.212848090118512,-0.5962748438499073,-0.6519812496355307
6679.08024999997,0.0725250244140625,-0.941192626953125,0.2225341796875,0.2443048162823099,-0.04754355072842158,-1.16230283561924
6709.16624999973,-0.0456390380859375,-0.9817352294921875,0.3365020751953125,0.2443048162823099,-0.04754355072842158,-1.16230283561924
6739.25724999935,0.2098541259765625,-1.083877563476562,0.247528076171875,0.2138406502567845,-0.3180669216264526,-1.574226744595028
6769.35824999964,0.1347503662109375,-1.305831909179688,-0.086029052734375,0.3532177185382994,-0.5507595566076899,-2.092677629806203
6799.45024999961,0.2050323486328125,-1.536300659179688,0.06097412109375,0.3061197146602481,-0.8450596297179485,-2.544001941845278
6829.53924999947,0.1118927001953125,-1.599578857421875,0.14776611328125,0.3152295898010822,-0.5152963708999768,-3.035015876242021
6859.62624999956,-0.2613525390625,-1.853622436523438,0.2064208984375,0.419515249663059,-1.03844027858409,-3.432597064851079
6889.70724999945,-1.041824340820312,-2.806884765625,0.1990509033203125,0.4055155444447305,-2.751522378203086,-3.410277111755124
6919.80324999986,-0.1496124267578125,-1.2535400390625,0.44110107421875,0.6641324547412353,-5.876405560165395,-2.046322647872284
6949.89024999995,-0.1056671142578125,-2.042831420898438,0.572845458984375,-0.1185151958823792,-0.7313658206730487,-3.294854911162763
6979.97925000072,0.44940185546875,-1.41754150390625,0.387725830078125,-0.1185151958823792,-0.7313658206730487,-3.294854911162763
7010.06724999934,-0.0063323974609375,-0.594879150390625,0.003753662109375,0.5033997639944838,2.548631314768163,-2.833236948878314
7040.15824999988,0.060821533203125,-0.2285614013671875,-0.013336181640625,0.2146880681156477,-0.1951127688391293,-0.3753374019202796
7070.2462499994,-0.2999725341796875,-0.261322021484375,-0.14068603515625,-0.06803604268436331,-0.3102598648908853,1.798758655047935
7100.33425000074,-0.1274566650390625,-0.2520751953125,-0.058258056640625,-0.04995850520490544,-0.0938982663462318,3.470239515278803
7130.41924999925,-0.1274566650390625,-0.41217041015625,-0.1389007568359375,-0.1455755757186744,0.5744712776893195,4.932389522242827
7160.50324999924,-0.0379791259765625,-0.557098388671875,-0.14349365234375,-0.3084284090092378,1.127900919605923,5.906779977662185
7190.59024999933,0.079071044921875,-0.95892333984375,-0.0702362060546875,-0.3084284090092378,1.127900919605923,5.906779977662185
7220.65324999949,0.4304656982421875,-1.63726806640625,0.101531982421875,-0.4367706693140094,1.792919408041828,6.73690965999304
7250.76524999986,0.9857177734375,-2.2371826171875,0.696014404296875,-0.4586836913953994,1.51473651953262,7.419275979769721
7280.85024999928,1.785858154296875,-2.182830810546875,0.523590087890625,-0.5182508818133107,2.235099490162006,6.612057472296818
7310.93624999994,2.943008422851562,-1.324676513671875,0.9138641357421875,-0.7559638417654565,2.74495262610997,3.622815742554969
7341.02124999936,2.735885620117188,-0.410125732421875,0.9658050537109375,-0.1362667624444114,2.984254960600675,0.1891092047937636
7371.10424999992,-1.377899169921875,-4.08221435546875,0.857940673828125,0.2337978468336203,-0.4985743824153693,-0.9241091750903344
7401.19424999921,0.2550506591796875,0.346527099609375,-0.674560546875,0.2337978468336203,-0.4985743824153693,-0.9241091750903344
7431.27124999955,0.527801513671875,-1.560943603515625,0.5618896484375,1.457116366187665,-0.7998460786272372,-3.215098296520961
7461.3682499994,1.026321411132812,-1.293594360351562,0.2312164306640625,1.313273975706414,0.9217538754222684,-2.56322463859347
7491.4612499997,0.072052001953125,-0.9448089599609375,0.0831298828125,0.7733348426077163,-0.8302117076924297,-1.199123967166784
7521.52624999962,0.0927581787109375,-1.016983032226562,0.1403656005859375,0.5885796398801233,-1.235267590533012,-0.7526820283541519
7551.61124999995,-0.0681915283203125,-0.9969024658203125,0.4004974365234375,0.5796194343925517,-0.8869415662849706,-0.5578281187729783
7581.71824999954,-0.03131103515625,-0.968170166015625,0.4122161865234375,0.356866781863926,-0.4716799175149861,-0.5525611850851286
7611.8072499994,0.07769775390625,-0.95965576171875,0.149017333984375,0.356866781863926,-0.4716799175149861,-0.5525611850851286
7641.89224999973,-0.0211639404296875,-0.9984283447265625,0.102020263671875,0.2946478819486228,-0.6541378774862768,-0.6041077332480482
7671.96124999919,0.121368408203125,-1.044570922851562,0.2306365966796875,0.3532067995778301,-0.2845571645783125,-0.9309143506238139
7702.06224999947,0.0461578369140625,-1.0714111328125,0.363189697265625,0.3197212772956098,-0.365503413279053,-1.184235298776587
7732.13724999914,-0.073486328125,-0.9358062744140625,0.0200347900390625,0.3253764998703931,-1.013972486068987,-1.531722959913472
7762.23224999922,-0.0714111328125,-1.322967529296875,0.0697784423828125,0.3518975895859472,-0.6147212291403411,-2.359705868089614
7792.31524999886,0.1938629150390625,-1.686721801757812,0.1911773681640625,0.3911067776829658,-0.3026618663008892,-3.065588699240022
7822.39624999966,-0.11419677734375,-1.716629028320312,-0.027496337890625,0.3911067776829658,-0.3026618663008892,-3.065588699240022
7852.47524999886,-0.5831146240234375,-2.378143310546875,-0.057769775390625,0.6870867728088462,-1.557446965514765,-3.521035584646539
7882.57825000073,-1.735015869140625,-2.256301879882812,0.3668670654296875,0.5430030999328342,-3.485211274295011,-3.691220633050309
7912.66424999958,-0.2036285400390625,-2.045623779296875,0.4674530029296875,0.5788742819195475,-4.720300699351097,-2.503813243099328
7942.75524999921,0.6533966064453125,-1.643783569335938,0.9595184326171875,-0.3866710165713298,0.01311819889751231,-3.577527622953736
7972.83625,-0.102630615234375,-0.822113037109375,0.1582183837890625,0.2080924833599575,3.999431461798487,-2.961789332593094
8002.9292499994,-0.0850067138671875,-0.0394287109375,-0.0796661376953125,-0.07955607861171907,1.220623932963103,-0.001854359067022173
8033.01524999915,0.050506591796875,-0.1713104248046875,0.0158538818359375,-0.07955607861171907,1.220623932963103,-0.001854359067022173
8063.10125000073,-0.33331298828125,-0.29437255859375,-0.06402587890625,-0.4635729888406759,0.1767824973722229,2.668416305858292
8093.18924999934,-0.000152587890625,-0.3230133056640625,-0.1148834228515625,-0.7970444331604738,-1.11938120096265,4.541598329149036
8123.27724999886,-0.007476806640625,-0.583526611328125,-0.0060882568359375,-0.7354143581621871,-1.077142933441776,5.858658254661107
8153.36424999987,0.00152587890625,-1.033432006835938,0.0912933349609375,-0.2806140882683412,-0.7186484275195932,6.726119063888257
8183.45024999962,0.30718994140625,-1.744186401367188,0.1873779296875,0.2635850373100476,0.621741588089899,7.104438673597207
8213.53225000075,0.876708984375,-2.164398193359375,0.5643768310546875,0.2574784089304959,2.040997124640453,6.802531547149247
8243.61424999915,1.791061401367188,-1.891830444335938,0.57659912109375,0.2574784089304959,2.040997124640453,6.802531547149247
8273.70524999969,2.081558227539062,-1.41064453125,0.4122161865234375,-0.2477618656933418,1.588947900152659,2.587747292227029
8303.78924999968,2.401947021484375,-0.538909912109375,0.540802001953125,-0.2477618656933418,1.588947900152659,2.587747292227029
8333.87524999944,1.334228515625,-1.564727783203125,-0.105010986328125,0.6088622747421667,1.740429301904693,-1.117384895409527
8363.96324999987,1.5482177734375,-1.694107055664062,1.7491455078125,-1.41055099452763,1.711475414533351,-0.6363690003771592
8394.04924999963,0.4361419677734375,-0.2391204833984375,0.46063232421875,1.3806839092185,4.423180604962554,-5.391945665211337
8424.13824999949,0.5856475830078125,-1.673248291015625,0.2231597900390625,1.169241169207223,0.6475814411986108,-2.245134547465534
8454.22724999935,0.4306640625,-1.045684814453125,0.2458343505859375,1.169241169207223,0.6475814411986108,-2.245134547465534
8484.29824999948,0.08526611328125,-0.940460205078125,0.11273193359375,0.6026658978338794,-0.8410315985692036,-1.416656823958854
8514.40124999954,0.1806793212890625,-1.100906372070312,0.1056060791015625,0.5942308677132714,-0.692424812897801,-0.9478054498376415
8544.45824999948,-0.0300445556640625,-0.9740447998046875,0.3591156005859375,0.5654950932352074,-0.7582448392391093,-0.5512841993424356
8574.56724999975,-0.1013336181640625,-0.90045166015625,0.398895263671875,0.3288204997920836,-0.9697754635663591,-0.4654973890443672
8604.66225000073,-0.0570831298828125,-0.9079742431640625,0.1829376220703125,0.2088522832189571,-0.5699460343650569,-0.6809428601740334
8634.73324999995,0.0905914306640625,-1.021347045898438,0.105072021484375,0.2567718722932978,-0.1258468783633674,-1.120165768219788
8664.82225000073,0.185882568359375,-1.045074462890625,0.198577880859375,0.2567718722932978,-0.1258468783633674,-1.120165768219788
8694.91224999911,0.1618804931640625,-1.151046752929688,0.34393310546875,0.2717508218444485,-0.2093233964157921,-1.311301638603102
8725.0162499995,-0.1145782470703125,-0.93975830078125,-0.0351409912109375,0.2116768318710951,-0.7676386073521458,-1.416948706414327
8755.11124999957,0.0519866943359375,-1.403793334960938,0.132965087890625,0.3737546852844455,-1.386966039913888,-2.012712489651048
8785.20124999886,0.2367401123046875,-1.542129516601562,0.069091796875,0.25190441276896,-0.8160775128390522,-2.86955314508318
8815.2892499993,-0.18450927734375,-1.725021362304688,-0.0201416015625,0.3362363381635182,-1.303638658882508,-3.203586782709094
8845.3792499995,-0.6693115234375,-2.286941528320312,-0.0749969482421875,0.3590377907845586,-2.24935006515502,-3.619400504773052
8875.46824999936,-1.725601196289062,-2.20281982421875,0.6866302490234375,0.3590377907845586,-2.24935006515502,-3.619400504773052
8905.55624999888,-0.2659912109375,-2.012908935546875,0.7879638671875,0.4696359413783503,-5.806301040262367,-1.74569144190258
8935.63424999957,1.13970947265625,-1.818374633789062,1.276138305664062,-0.3921829610794668,-0.6938408156493961,-4.170845825361437
8965.73024999998,-0.053436279296875,-1.160140991210938,0.1411895751953125,0.4057432447179323,3.644273630406065,-4.515666596982717
8995.82024999927,0.0881500244140625,-0.0884552001953125,-0.0106048583984375,0.3396726149180475,0.2896438022603639,-0.9346086876879718
9025.8912499994,-0.254852294921875,-0.263946533203125,-0.0001983642578125,0.001867142240254554,-0.267531309413327,1.549727260462953
9055.9782499995,-0.2181396484375,-0.2125091552734375,0.0308380126953125,-0.2421196926078999,-0.3689932195714928,3.695271833700537
9086.05424999951,-0.14324951171875,-0.4055328369140625,0.0300140380859375,-0.252171794142404,0.5789046419559744,5.111590436200951
9116.15024999992,0.074920654296875,-0.5609283447265625,-0.051483154296875,-0.252171794142404,0.5789046419559744,5.111590436200951
9146.23524999934,0.1218109130859375,-0.8985137939453125,0.0190887451171875,-0.3454482123741023,0.943084464173258,6.19424371625421
9176.32024999966,0.4323883056640625,-1.5035400390625,0.2111663818359375,-0.2022649542626461,1.059613474514656,6.969177254464301
9206.40424999965,0.9029693603515625,-2.093490600585938,0.57733154296875,0.0846254057466849,1.305245876600371,7.374720229468259
9236.49324999951,1.847000122070312,-2.145904541015625,0.708282470703125,0.03508874525844801,2.038051934790934,6.527016879736189
9266.58124999994,2.170547485351562,-1.4530029296875,0.2668914794921875,0.02746704453475024,1.88013580321305,3.974157530421417
9296.67724999945,2.52618408203125,-0.54681396484375,0.5989227294921875,-0.165460600629969,3.299332483903513,0.4820318909882331
9326.74625000072,0.6410064697265625,-2.527542114257812,-0.0727691650390625,-0.165460600629969,3.299332483903513,0.4820318909882331
9356.83724999944,3.580963134765625,-0.703948974609375,1.559524536132812,0.5816959010944864,2.803326720359526,-2.795867738778432
9386.92824999998,0.1317596435546875,-0.245269775390625,1.125030517578125,1.467240373071601,3.735644290561702,-6.604740170885716
9417.02924999936,1.012527465820312,-2.089035034179688,0.1158447265625,1.487286519228846,0.5921035346345161,-2.615216999922869
9447.10724999914,0.3663330078125,-0.891143798828125,0.2662506103515625,1.005951311181777,-0.510059530932445,-2.014361518998025
9477.19824999967,-0.070281982421875,-1.02587890625,0.1920013427734375,0.5491925526222874,-1.887542054204561,-0.7840681807490627
9507.28824999987,0.1138916015625,-1.048965454101562,0.33807373046875,0.5633440580227504,-0.4478182604639852,-0.68748305117905
9537.37824999916,0.0220947265625,-0.973785400390625,0.3870849609375,0.5633440580227504,-0.4478182604639852,-0.68748305117905
9567.47724999968,0.020843505859375,-0.926727294921875,0.290252685546875,0.2682900440078905,-0.7186510906806833,-0.4291814591556106
9597.54724999948,-0.0317230224609375,-0.9564056396484375,0.062469482421875,0.1452730406188414,-0.6646459121994025,-0.4176872558908286
9627.64924999919,-0.0362701416015625,-0.9624176025390625,0.149169921875,0.270152126242074,-0.4182017786134319,-0.7389486392448312
9657.74024999973,0.1221466064453125,-0.997314453125,0.2824249267578125,0.3293139835420753,0.228174848508027,-1.155909917422504
9687.83024999993,0.183380126953125,-1.091751098632812,0.4442901611328125,0.2808817359578942,-0.1883025332995787,-1.467977536061335
9717.91824999946,-0.0032501220703125,-1.059860229492188,0.1841278076171875,0.3195023654540053,-1.233040388913379,-1.653986555030138
9748.00424999921,-0.042236328125,-1.449386596679688,0.0736083984375,0.3195023654540053,-1.233040388913379,-1.653986555030138
9778.10124999996,0.1514892578125,-1.53131103515625,0.072540283203125,0.2581258233914941,-0.9378803810871341,-2.439383386847041
9808.19224999959,-0.158050537109375,-1.777679443359375,0.019683837890625,0.4287971650103122,-0.887730128283743,-3.221450734669127
9838.28224999888,-0.6978759765625,-2.603424072265625,0.0973968505859375,0.4787732470784121,-1.607680042628058,-3.609699141554111
9868.37724999987,-1.197845458984375,-2.0546875,0.1200408935546875,0.486665524968862,-4.041409538480861,-3.051065150235275
9898.46224999928,-0.2512969970703125,-2.1025390625,0.7098541259765625,0.2713188571156377,-3.239365286689872,-3.584059824475482
9928.55624999993,0.83233642578125,-1.723358154296875,1.14312744140625,0.1880721698652868,0.1881302267770505,-3.811755037671186
9988.61824999949,-0.080718994140625,-0.1241455078125,0.039306640625,0.7095526671325366,1.925539504005593,-1.764465662323203
10018.7042499992,-0.18365478515625,-0.2282867431640625,0.0171661376953125,0.3352653496300753,-0.3432428486754077,0.5481022544720089
10048.7692499992,-0.2487030029296875,-0.2837982177734375,-0.026641845703125,0.1691003428917803,-0.07299112020856474,2.860260843407676
10078.87725,-0.144866943359375,-0.430816650390625,-0.00439453125,0.04428543945081864,-0.1680257573919333,4.350396146054579
10108.96125,0.0032958984375,-0.61749267578125,-0.0938720703125,-0.1158323274002334,0.5468300624192781,5.5475344603126
10139.05325,0.1091461181640625,-0.9179840087890625,-0.08148193359375,-0.1888090665389117,0.9614187303817995,6.424405815567654
10169.1462499994,0.3478240966796875,-1.581069946289062,0.0460052490234375,-0.1888090665389117,0.9614187303817995,6.424405815567654
10199.2202499996,0.7434844970703125,-2.136810302734375,0.4129638671875,-0.2273375506613061,1.022552392152895,7.120503393924784
10229.33225,2.020751953125,-2.002410888671875,0.7043304443359375,-0.325136282740068,1.688865709510797,7.095337586887971
10259.4262499997,2.40838623046875,-1.330307006835938,0.5356292724609375,-0.4878053579154159,1.893561330900358,5.211283741079195
10289.5222499992,2.8956298828125,-0.677001953125,0.64666748046875,-0.1202755453629216,2.920326843897759,1.790943608829098
10319.61125,-0.2807769775390625,-3.131973266601562,0.5369415283203125,0.3870462559689219,2.936205675581247,-1.494144957984127
10349.7042499994,3.566680908203125,0.1986541748046875,0.692413330078125,1.856744194094448,-0.2114105157620872,-4.796748336338476
10379.8022499996,0.3456878662109375,-0.513153076171875,0.9295654296875,1.856744194094448,-0.2114105157620872,-4.796748336338476
10409.8962499993,1.16888427734375,-1.980499267578125,0.154815673828125,1.344575173262552,-1.569197631192522,-2.486682193071284
10439.9882499993,0.179718017578125,-0.7955169677734375,0.2846527099609375,1.080230602409614,0.3533753776748321,-2.67227975365167
10470.0812499996,0.07208251953125,-1.027420043945312,0.13995361328125,0.6385892777779583,-1.841787881412563,-1.058537291118155
10500.1542499995,0.2327423095703125,-1.072174072265625,0.3096923828125,0.6351783010537847,-0.3603033249345642,-0.9229291284113204
10530.2582499999,0.097503662109375,-0.9925537109375,0.342803955078125,0.3854387719349501,-0.700860641966736,-0.4997674785837248
10560.3262499999,-0.004638671875,-0.9318695068359375,0.3184967041015625,0.1788762746212432,-0.7937074923146046,-0.3484338822721901
10590.4172499995,-0.004638671875,-0.9568939208984375,0.1319122314453125,0.1788762746212432,-0.7937074923146046,-0.3484338822721901
10620.5072499997,0.0849609375,-1.0377197265625,0.1578216552734375,0.1903915168586368,-0.4594847702512952,-0.5667121578533736
10650.5992499997,0.1537322998046875,-1.059463500976562,0.29034423828125,0.2520799150847963,-0.1036470338325759,-0.8848853396073204
10680.6962499995,0.112030029296875,-1.082427978515625,0.2590789794921875,0.2920092219405723,-0.4147053144182669,-1.083993915346005
10710.7902499993,-0.223541259765625,-1.02557373046875,0.0474853515625,0.3076491680742806,-1.020102017633914,-1.37201052618033
10740.8822499992,0.1187591552734375,-1.408447265625,0.211334228515625,0.2799717338134141,-0.5349451734225814,-2.335192002887653
10770.9722499994,0.0977630615234375,-1.478912353515625,0.14166259765625,0.3209021229229509,-0.6591768445848157,-2.948839711792583
10801.0582499992,-0.1613006591796875,-1.728912353515625,0.070220947265625,0.4649011072762984,-1.262893892100949,-3.454281321394831
10831.14725,-0.5246124267578125,-2.807891845703125,0.2451324462890625,0.5070054177943422,-3.030872796534185,-3.776376274170028
10861.2362500007,-1.71478271484375,-1.855209350585938,0.2810211181640625,0.5070054177943422,-3.030872796534185,-3.776376274170028
10891.3232499999,0.195892333984375,-2.268173217773438,0.69970703125,0.6039122572240365,-6.101875702270338,-2.278704491954309
10921.4082499993,0.3346099853515625,-1.530441284179688,0.2889404296875,-0.158098025480336,0.857245455917824,-4.677340182542593
10951.4932499997,-0.253509521484375,-0.65142822265625,-0.045989990234375,0.7249646466769342,1.48392454466873,-2.051377061305145
10981.5832499999,-0.05401611328125,-0.0857391357421875,0.1634063720703125,0.2331586881720013,-0.5652372992416878,0.2375992429735994
11011.6712499994,-0.1396026611328125,-0.1295166015625,-0.045654296875,0.02352503348921495,0.2685355874603959,2.550159969233868
11041.7642499997,-0.189727783203125,-0.244903564453125,0.0183563232421875,0.02352503348921495,0.2685355874603959,2.550159969233868
11071.8552499993,0.0203094482421875,-0.3552703857421875,-0.00323486328125,-0.2727740083352569,0.2778441344185498,3.983978469573302
11101.94925,0.0842742919921875,-0.5472564697265625,-0.0129547119140625,-0.5195217422854965,0.622651856550488,5.337243271156673
11132.0432499997,0.088531494140625,-0.9671478271484375,0.050628662109375,-0.4731342697862784,0.3491452125993503,6.421768753456258
11162.1152499993,0.5101318359375,-1.655792236328125,0.2823944091796875,-0.1655687249702262,0.4982729125799724,7.101885767376258
11192.2292499994,0.9261932373046875,-2.259246826171875,0.5689849853515625,-0.06804563006428758,1.621157768272731,7.430160319144875
11222.3162499995,2.06976318359375,-1.987075805664062,0.6037750244140625,-0.2430464726672475,2.2775659905883,5.644401618642052
11252.4022499992,2.374984741210938,-1.26318359375,0.4193878173828125,-0.3425368446704277,2.746634146022246,2.81736237825257
11282.4902499997,2.613967895507812,-0.46661376953125,0.8023834228515625,-0.3425368446704277,2.746634146022246,2.81736237825257
11312.5622499992,-2.255661010742188,-5.160736083984375,-0.62957763671875,0.5492000094733396,3.080190545180817,-0.9973077555478164
11342.6652499993,2.138046264648438,2.049911499023438,-0.1580810546875,0.7133798959350895,1.962262897541132,-2.821552063279483
11372.7572499993,0.69354248046875,-1.411361694335938,0.8331146240234375,1.601358497148537,1.473270835043977,-3.201555323429581
11402.8452499997,0.758148193359375,-1.484588623046875,0.277801513671875,1.251650824926962,0.1026811053052041,-2.19421171162991
11432.9322499989,-0.0009918212890625,-0.8470306396484375,0.201995849609375,0.5905586348861611,-1.701495484664388,-1.17804691135157
11462.9982499991,0.02410888671875,-1.037429809570312,0.1498260498046875,0.5067380364208982,-0.7086613071156871,-0.9537088790260201
11493.1082499998,0.0719146728515625,-1.002182006835938,0.224761962890625,0.5067380364208982,-0.7086613071156871,-0.9537088790260201
11523.1952500008,-0.0120849609375,-0.9618988037109375,0.3524322509765625,0.4078956115109343,-0.4847365973913176,-0.7278768133289358
11553.2862499995,0.016265869140625,-0.9056243896484375,0.251678466796875,0.1860811906343436,-0.4592509447075863,-0.6626338939958476
11583.3742499999,0.0326080322265625,-0.942230224609375,0.1182708740234375,0.1398769436181228,-0.3824488409791182,-0.7455085376419145
11613.4492499996,0.13189697265625,-0.9894866943359375,0.1630096435546875,0.1563752265711637,-0.09552013145009006,-1.024180915159479
11643.5502499999,0.2100677490234375,-1.106964111328125,0.2112579345703125,0.1556822720555251,-0.2337096962015387,-1.141582909706205
11673.6152499989,0.094085693359375,-1.058090209960938,0.2318267822265625,0.1231139424527281,-0.9128503952659155,-1.207906806125756
11703.7272499992,-0.15277099609375,-1.247314453125,-0.1532135009765625,0.1231139424527281,-0.9128503952659155,-1.207906806125756
11733.7872499993,0.0203094482421875,-1.540512084960938,0.012603759765625,0.3083663573558389,-1.310462210227509,-1.999847024740984
11763.8702499999,0.173919677734375,-1.572586059570312,-0.0854949951171875,0.1675322736419416,-0.3305965619230574,-3.028791536142288
11793.9712499992,-0.296173095703125,-1.836746215820312,0.021240234375,0.3158493073867436,-1.126623401231012,-3.514885546741219
11824.0582499993,-0.6230010986328125,-3.307693481445312,0.1355438232421875,0.3581216633695714,-1.944781641829743,-4.068783638693567
11854.1452499994,-1.184219360351562,-1.353240966796875,0.8613433837890625,0.7610736489489915,-6.406477947741458,-2.256405311514858
11884.2352499996,0.048858642578125,-1.960891723632812,0.6906280517578125,-0.3100731772984707,0.1550806639652762,-4.163796970588216
11914.3372499993,0.3821563720703125,-1.242904663085938,0.2252044677734375,-0.3100731772984707,0.1550806639652762,-4.163796970588216
11944.4222499997,-0.1134033203125,-0.4553680419921875,0.10552978515625,0.2613519767360161,3.151945692327476,-3.341757172700694
11974.5062499996,0.004486083984375,0.04412841796875,0.033660888671875,0.1963359587278027,-0.6040102615521514,-0.3068680629265604
12004.5902499996,-0.264862060546875,-0.1145172119140625,-0.037109375,0.04522393741896256,-0.2233140468864144,1.98234313216033
12034.6812499993,-0.1973114013671875,-0.2406158447265625,0.0828399658203125,0.06745360935396298,-0.01512995078495817,3.566543681353813
12064.7712499995,-0.0796966552734375,-0.435699462890625,0.01153564453125,0.1325702948513814,1.193135849455741,4.813482575364097
12094.8632499994,0.0497283935546875,-0.670989990234375,-0.0091552734375,-0.09189636815481923,1.544076831578132,5.881351582941891
12124.9562499997,0.245147705078125,-1.023345947265625,-0.0087432861328125,-0.09189636815481923,1.544076831578132,5.881351582941891
12155.0482499997,0.6477508544921875,-1.695404052734375,0.281768798828125,-0.1224367005875209,1.150140977869175,6.585682590125109
12185.1392499993,1.082794189453125,-2.201034545898438,0.4256744384765625,0.02670804362407765,1.241139328104419,6.60970803158315
12215.2282499992,2.015975952148438,-1.862335205078125,0.36785888671875,0.02670804362407765,1.241139328104419,6.60970803158315
12245.3142499999,2.437255859375,-1.127639770507812,0.540924072265625,-0.123749106372712,2.139237941460168,3.602734442671336
12275.4002499996,2.586959838867188,-0.5723114013671875,0.6347808837890625,0.006235525376311528,3.667161635762533,-0.3350411114662906
12305.4852499999,-4.399917602539062,-4.117584228515625,-0.0274658203125,-1.281519241816637,2.381484666852064,-1.296915508710603
12335.5642499992,1.9913330078125,-0.44476318359375,-1.641067504882812,1.282412998678467,4.634765291459932,-5.615634685179234
12365.6382499994,0.7142486572265625,-1.141433715820312,1.02587890625,1.282412998678467,4.634765291459932,-5.615634685179234
12395.7242499991,1.020111083984375,-1.144912719726562,0.2290802001953125,1.315466023599659,1.062792489907884,-2.486314410524745
12425.8062499994,-0.0312347412109375,-0.929779052734375,0.1754913330078125,0.651888837945705,-0.770429600174549,-1.632994986685915
12455.8942499989,0.0155029296875,-0.94586181640625,0.153045654296875,0.4630020071029629,-1.20790840402241,-0.9967394369711934
12485.9822499993,0.140533447265625,-1.007888793945312,0.3143157958984375,0.5119490437258563,-0.1733368995538784,-0.9080061052430614
12516.0652499999,0.0050201416015625,-0.9623565673828125,0.3194732666015625,0.2715830426957735,-0.5313096922185143,-0.6593901637881311
12546.1592499996,-0.0981903076171875,-0.9178314208984375,0.2294158935546875,0.257515693185757,-0.4056300603716039,-0.7572370990826234
12576.2442499999,0.0236358642578125,-0.9540252685546875,0.2342529296875,0.257515693185757,-0.4056300603716039,-0.7572370990826234
12606.3352499996,0.1497955322265625,-0.9970703125,0.2228851318359375,0.2837435688652933,0.05779618829300864,-1.16798282559216
12636.3992499992,0.271148681640625,-1.09283447265625,0.2549591064453125,0.2615860685958341,-0.1268964301489676,-1.369427792555171
12666.4862499993,-0.0028076171875,-0.945556640625,-0.0666046142578125,0.2496018436904775,-0.6840435786312127,-1.477905800605151
12696.5592499992,0.135009765625,-1.503890991210938,0.05621337890625,0.4156592587207333,-0.6497846743684333,-2.12673333487781
12726.6662499997,0.260101318359375,-1.594589233398438,0.048828125,0.4221565728321996,-0.5792804139857846,-2.839882867378607
12756.7632499995,-0.1142730712890625,-1.624710083007812,0.1679229736328125,0.5251396806050187,-1.055283440898296,-3.320870799219529
12786.8442499994,-0.105010986328125,-2.027603149414062,0.2871856689453125,0.5251396806050187,-1.055283440898296,-3.320870799219529
12816.9102499996,-1.833908081054688,-2.897354125976562,0.14422607421875,0.9106950989957143,-2.159928306285102,-3.781889283942601
12847.0002500007,-0.0240020751953125,-1.66033935546875,0.5890655517578125,1.019609865464467,-7.040712957137138,-1.887132726345016
12877.0912499995,0.833282470703125,-1.633758544921875,1.034927368164062,-0.1282786107547187,-0.2024252765602688,-3.743578380081266
12907.1812499997,-0.0390625,-1.032501220703125,0.263519287109375,0.3931169316737576,3.12648560599021,-3.375735646100688
12937.2622499995,-0.0727386474609375,-0.0178375244140625,-0.0245819091796875,0.2620582470571051,-0.3410420123505662,-0.2930870032337273
12967.3462499995,-0.0486297607421875,-0.3063507080078125,-0.0910186767578125,-0.06606264031661459,0.4137503048513645,2.023311071841237
12997.4492499996,-0.1479949951171875,-0.21240234375,-0.0773162841796875,-0.06606264031661459,0.4137503048513645,2.023311071841237
13027.5272499994,-0.1533355712890625,-0.3864593505859375,0.003570556640625,-0.3174472040407911,0.1035690032126365,3.888834909101349
13057.6232499989,0.000518798828125,-0.51824951171875,-0.021270751953125,-0.4613039755919284,0.5917823574070525,5.190861023943814
13087.7112499993,0.1063995361328125,-0.829742431640625,-0.0107879638671875,-0.5733809795390411,0.9536660021324699,6.134879192395254
13117.8022500008,0.54010009765625,-1.334548950195312,0.0392913818359375,-0.4795716627732179,0.5199614301814687,7.000233973832369
13147.8922499991,0.7705230712890625,-2.000778198242188,0.3087921142578125,0.01401222207545191,-0.0775909320433496,7.357247762188467
13177.9792499992,1.712371826171875,-2.1290283203125,0.3607330322265625,0.03771595367381118,1.309556735456882,5.775150044991711
13208.0652499999,2.142776489257812,-1.54632568359375,0.3269500732421875,-0.3001869906998786,1.611607406287598,2.891906654008869
13238.14425,2.620574951171875,-0.5518798828125,0.828857421875,0.1305582766478266,2.822180302980632,-1.067124654053116
13268.2402499995,-1.54949951171875,-4.243515014648438,-0.57733154296875,0.1305582766478266,2.822180302980632,-1.067124654053116
13298.3302499997,2.376953125,0.291351318359375,-0.2866668701171875,0.7929255882185573,0.1445952661214162,-2.248102107868209
13328.4172499989,0.75372314453125,-0.9791412353515625,0.8814239501953125,1.272833341921343,-0.09555235569928001,-2.750017692187191
13358.5042499999,0.990020751953125,-1.3218994140625,0.280120849609375,1.030955730656532,0.9792842802384871,-2.337773937564485
13388.5922499994,0.2381439208984375,-1.02642822265625,0.1818084716796875,0.6394444188039826,-1.272628544833516,-0.9097350294227408
13418.6792499995,0.0621490478515625,-0.9744873046875,0.250823974609375,0.6394444188039826,-1.272628544833516,-0.9097350294227408
13448.7662499996,0.0995941162109375,-1.055740356445312,0.2930450439453125,0.6187774897966407,-0.9808861716341697,-0.6123387652291562
13478.8532499997,-0.0553131103515625,-0.992645263671875,0.4308013916015625,0.4917353847360458,-0.7702903168495377,-0.4441739908283207
13508.9432499999,0.017303466796875,-0.9053802490234375,0.29541015625,0.3165518492823065,-0.8516898355678097,-0.3320889973979378
13539.0292499997,-0.0331573486328125,-0.938201904296875,0.2230987548828125,0.2962593607242298,-0.8109448024701424,-0.5359941925759637
13569.1182499995,0.061370849609375,-1.008102416992188,0.2602691650390625,0.3115909128037069,-0.7223848425289744,-0.8805563712553965
13599.2072499994,0.1060028076171875,-1.082321166992188,0.361663818359375,0.2896877444183502,-0.7296515438793646,-1.226938820539899
13629.2932499991,0.0242919921875,-1.043243408203125,0.19964599609375,0.2896877444183502,-0.7296515438793646,-1.226938820539899
13659.3782499995,-0.020294189453125,-1.1710205078125,-0.002655029296875,0.232308340835939,-1.055318594624685,-1.612091302657665
13689.4712499989,0.118316650390625,-1.533111572265625,0.194671630859375,0.2955395082815813,-0.7807940905049193,-2.362300585939678
13719.5542499994,0.102264404296875,-1.66058349609375,-0.03826904296875,0.2883846596969744,-0.4013674047308231,-3.135019173071151
13749.6412499995,-0.5308074951171875,-1.878982543945312,0.06475830078125,0.4929433946065058,-1.629545926758154,-3.43472546319427
13779.7232499997,-1.4676513671875,-3.5140380859375,0.3316802978515625,0.653708043286338,-3.380512291831854,-3.669709215661302
13809.8072499997,-0.3572998046875,-2.02081298828125,0.589935302734375,0.3789542409967162,-3.259720892165784,-3.261344887798514
13839.8852499995,0.7905731201171875,-2.235946655273438,1.09503173828125,0.1813479544289457,2.528322314611327,-5.362757419664068
13869.9692499995,0.011383056640625,-1.204727172851562,0.1042633056640625,0.1813479544289457,2.528322314611327,-5.362757419664068
13900.0612499995,-0.37298583984375,0.0626068115234375,-0.095184326171875,0.2852762180726339,0.796850821349225,-2.296598271318552
13930.1492499999,-0.326751708984375,0.131622314453125,-0.2330474853515625,-0.1838467984797671,-0.5171310225749324,1.270711335164768
13960.2352499996,-0.684234619140625,-0.20904541015625,-0.1001739501953125,-0.4694942612083581,-1.059167661348177,4.266753446750133
13990.3392499991,-0.168304443359375,-0.5244598388671875,-0.0576934814453125,-0.4565619509549333,-0.693398464592334,6.001185309879968
14020.43125,-0.0242767333984375,-1.252609252929688,-0.16265869140625,-0.3725131195842505,0.4390908152556864,7.085736358526017
14050.5222499996,0.4941253662109375,-1.812957763671875,0.0115509033203125,-0.3952791521627929,0.9394356671637405,7.652426145826234
14080.6132499993,0.6568756103515625,-2.106857299804688,0.32244873046875,-0.4973285556574302,0.9768110025341304,7.702541511219345
14110.7032499995,1.754425048828125,-2.162139892578125,0.5241241455078125,-0.4973285556574302,0.9768110025341304,7.702541511219345
14140.7892499992,1.7943115234375,-1.80145263671875,0.3900299072265625,-0.7533773797147716,1.785454034874117,6.085668769140551
14170.8762499993,2.815643310546875,-0.52728271484375,1.073837280273438,-0.920365036913792,2.678588782274067,3.624087668291591
14200.9642499997,2.164398193359375,-0.9403533935546875,0.4458770751953125,0.7343176684252924,1.113990163968003,-0.2910659302824662
14231.0512500007,-5.948165893554688,-4.433090209960938,-1.874359130859375,0.3671724163342057,0.941200277702027,-2.978728368706542
14261.1392499994,3.673446655273438,-0.9856719970703125,-1.209976196289062,0.3671724163342057,0.941200277702027,-2.978728368706542
14291.2282499992,0.526336669921875,-1.04754638671875,0.6747589111328125,1.265651062777508,-0.5545364516656404,-2.323171026359253
14321.3152499993,0.4495391845703125,-1.80035400390625,0.4759674072265625,1.265651062777508,-0.5545364516656404,-2.323171026359253
14351.3982499999,-0.00433349609375,-0.927520751953125,0.3599853515625,0.9515107058622687,-0.7603093217161389,-1.787352069783017
14381.48525,0.110382080078125,-1.020751953125,0.1985931396484375,0.5350762009482134,-1.217471815496885,-1.143147783162736
14411.56925,-0.002349853515625,-1.012252807617188,0.226837158203125,0.5030953646818879,-0.5500333125784254,-0.9323551207735468
14441.6502500007,-0.05670166015625,-0.955291748046875,0.3362884521484375,0.3670999783525555,-0.5269572880489978,-0.8025076418206624
14471.7452499999,-0.00482177734375,-0.944061279296875,0.2839508056640625,0.2164161933470001,-0.3454101291705141,-0.9156126259485456
14501.8442499995,0.0894622802734375,-0.92498779296875,0.1467132568359375,0.2473280367517679,-0.2322404302281419,-1.122770073449776
14531.9332499994,0.116912841796875,-1.040939331054688,0.2120361328125,0.2473280367517679,-0.2322404302281419,-1.122770073449776
14562.0222499992,0.161529541015625,-1.087997436523438,0.2553558349609375,0.2576914618177022,-0.4248785897823696,-1.268512096736581
14592.0852499994,0.214996337890625,-1.174163818359375,0.205596923828125,0.2291594191630293,-0.4409166784990448,-1.394351251932787
14622.1982499992,-0.0089111328125,-1.11077880859375,-0.1621246337890625,0.3974144747248184,-0.9822907227930775,-1.580371722494277
14652.2892499997,0.12030029296875,-1.418502807617188,0.23199462890625,0.2115782949107622,-0.5380682624329174,-2.430523848848674
14682.3792499999,0.124176025390625,-1.565185546875,0.143463134765625,0.3277136900430466,-0.7017575946218747,-3.080631564657335
14712.4662499991,-0.2523193359375,-1.862533569335938,0.186981201171875,0.3854938993695148,-1.672230806393835,-3.667550457281684
14742.5522499989,-1.072860717773438,-3.224884033203125,-0.0264739990234375,0.3854938993695148,-1.672230806393835,-3.667550457281684
14772.6432499994,-0.3814239501953125,-1.3709716796875,0.3734130859375,0.447208929206575,-5.052069851102116,-2.833036412848231
14802.7332499996,0.0850372314453125,-2.072052001953125,0.7642364501953125,-0.3978211394232736,-1.965679200587486,-3.787914685908905
14832.8072499999,0.1018218994140625,-1.178695678710938,0.3428955078125,0.008786034752280415,2.254879320210243,-4.576112364244245
14862.9072499989,-0.259063720703125,-0.4414825439453125,0.1656951904296875,0.07980029048367933,0.5378232516126301,-1.430392876229265
14892.9812499991,0.16839599609375,-0.257568359375,0.2235870361328125,-0.2001386864483268,0.2179829310162937,0.8078635250889207
14923.0782499999,-0.1858062744140625,-0.1405181884765625,0.063934326171875,-0.484984537688804,-0.3867083008265909,2.94132160803529
14983.1415416666,0.1062164306640625,-0.23309326171875,0.1345977783203125,-0.5673728881198223,0.02130928346226902,4.297595515334341
15013.2315416668,0.0700836181640625,-0.5080413818359375,0.175079345703125,-0.3709090976596958,0.03310628814299302,5.494433691337511
15043.3205416666,0.2242431640625,-1.142745971679688,0.235321044921875,0.2751367648543753,-0.2859358830746466,6.538077520375507
15073.4125416666,0.40460205078125,-1.854019165039062,0.34881591796875,0.7288350186891464,0.3190472312237108,7.378418827590162
15103.4755416667,1.607589721679688,-2.248687744140625,0.53326416015625,0.2986085351217886,2.382117966559285,6.510926060429931
15133.5715416662,2.106903076171875,-1.726547241210938,0.3058624267578125,0.2182567039763539,0.8462005279289384,5.131675997142329
15163.6545416659,1.952682495117188,-1.212249755859375,0.2498779296875,-0.02383369385955513,3.428562908431827,1.499787663701787
15193.7515416666,2.357406616210938,-0.5661163330078125,0.5173797607421875,-0.02383369385955513,3.428562908431827,1.499787663701787
15223.8305416668,-0.4534912109375,-3.69842529296875,-0.321807861328125,0.6455041755483489,4.574203943007094,-2.291850654043267
15253.936541666,0.0894927978515625,-0.124908447265625,-0.449737548828125,1.303258093162735,0.6960459130319817,-5.083716194335528
15284.0025416663,-0.0697021484375,-2.067047119140625,0.188385009765625,1.466771124087529,-0.3065202540881961,-2.484040070953817
15314.0995416661,0.6168670654296875,-1.0130615234375,0.2406158447265625,0.7649967515507873,0.8500463988591218,-2.319849265531598
15344.1865416662,0.3722076416015625,-1.074432373046875,0.0794525146484375,0.247331232545076,-1.172635368016529,-0.9080710863736592
15374.2705416662,0.017303466796875,-1.017837524414062,0.080322265625,0.4635157308772392,-1.102522592314122,-0.3613446209207852
15404.3685416664,-0.0171661376953125,-0.989715576171875,0.3198394775390625,0.4635157308772392,-1.102522592314122,-0.3613446209207852
15434.4425416666,-0.080169677734375,-0.91632080078125,0.39361572265625,0.3013824837132152,-0.5859713399084997,-0.3445216986308637
15464.5385416661,-0.187530517578125,-0.863189697265625,0.2700347900390625,0.1549557617101515,-0.8038434834234461,-0.4071533885151292
15494.6375416666,-0.024383544921875,-0.9414825439453125,0.1701507568359375,0.1296011365520521,-0.3698339795276308,-0.8841702808546341
15524.7175416662,0.0959625244140625,-0.9992828369140625,0.1533966064453125,0.1129574450034929,-0.1029370350859607,-1.25673027207407
15554.7975416666,0.1416015625,-1.036834716796875,0.177642822265625,0.1316512379591951,-0.2624505306856738,-1.386633677409846
15584.8815416666,-0.1228179931640625,-0.9442596435546875,0.245391845703125,0.3329784932020243,-0.673670832501463,-1.784162668061538
15614.9655416666,0.0242462158203125,-1.340408325195312,0.091400146484375,0.3329784932020243,-0.673670832501463,-1.784162668061538
15645.0675416663,0.150848388671875,-1.528030395507812,0.08209228515625,0.1827913877397687,-0.5241591046916515,-2.536309401036584
15675.158541666,0.12640380859375,-1.607177734375,0.014373779296875,0.2036215685219324,-0.5871958613777181,-3.075916704263458
15705.2495416665,-0.0101318359375,-2.023513793945312,0.184417724609375,0.2537265475867923,-1.13918180366739,-3.596259499113026
15735.3165416662,-1.145477294921875,-2.863250732421875,0.186553955078125,0.3107054117412555,-3.978550414639503,-3.481116131486796
15765.4035416663,-0.53662109375,-1.253555297851562,0.6036224365234375,-0.04993613465174877,-4.418554161516868,-2.962305186896242
15795.4905416664,0.672607421875,-1.695465087890625,0.6533355712890625,-0.04993613465174877,-4.418554161516868,-2.962305186896242
15825.5765416661,0.342010498046875,-1.086883544921875,0.212371826171875,-0.2260555049125419,1.791817658298862,-4.431206839855835
15855.6595416649,-0.045501708984375,-0.219757080078125,-0.00115966796875,0.3658379063119669,1.502517137503009,-2.127789011933917
15885.7515416667,0.09930419921875,-0.180419921875,0.0848236083984375,0.07295543384995767,-0.807033417777143,0.3667841274472721
15915.825541666,-0.2255859375,-0.107391357421875,0.0066070556640625,-0.01282391959705855,-0.8365763963816101,2.291499649411595
15945.9235416662,-0.23565673828125,-0.258087158203125,0.0914306640625,-0.0009376990198168998,-0.2999917809919758,3.605083883385004
15976.0185416662,0.0127105712890625,-0.3532562255859375,0.0223541259765625,-0.004618453962415415,0.780113386530295,4.809674255005285
16006.104541666,0.0811004638671875,-0.7228851318359375,0.0179901123046875,-0.004618453962415415,0.780113386530295,4.809674255005285
16036.1935416668,0.2056427001953125,-1.141403198242188,0.0392608642578125,-0.05640521925566025,0.6656299502221867,5.866875171888438
16066.2595416661,0.5956268310546875,-1.849533081054688,0.3092803955078125,0.1002752055764265,0.5906473181504608,6.502476382923327
16096.3685416664,0.864959716796875,-2.129653930664062,0.5415496826171875,0.02311783615854184,1.212107676429247,6.947597127519171
16126.4575416662,1.556732177734375,-1.891769409179688,0.4567413330078125,-0.1925201815179372,2.233668573708306,5.718580242380684
16156.5465416661,2.262252807617188,-1.145751953125,0.5995025634765625,-0.2614379968392257,2.892651007533547,3.203821673517239
16186.6335416662,2.146575927734375,-0.5698699951171875,0.64056396484375,0.2710131262224966,2.331496600559059,0.3348485649194779
16216.7125416663,1.121490478515625,-1.501724243164062,-0.112152099609375,0.2710131262224966,2.331496600559059,0.3348485649194779
16246.8085416667,0.95233154296875,-1.59912109375,1.17333984375,0.770297507384481,1.517460933327771,-2.497642166221397
16276.8945416665,0.14996337890625,-0.3938751220703125,-0.2276763916015625,1.652570552278543,2.265568982509711,-4.586882720324744
16306.9805416662,0.6650543212890625,-1.643661499023438,0.48394775390625,1.240343575570704,-0.9430487778146509,-2.106791052003078
16337.0685416667,0.432952880859375,-0.9418792724609375,0.2903594970703125,1.015913930503655,-0.3972847787797316,-1.762487199949383
16367.158541666,-0.0023651123046875,-1.006240844726562,0.1600799560546875,0.5886582031322806,-1.557005946038248,-0.8199217858725815
16397.2505416659,0.091339111328125,-1.022613525390625,0.1845245361328125,0.5756103116875464,-0.4237624589695174,-0.7386780620780792
16427.337541666,0.0929107666015625,-1.022979736328125,0.2822723388671875,0.5756103116875464,-0.4237624589695174,-0.7386780620780792
16457.4255416665,0.0441436767578125,-0.9616851806640625,0.272064208984375,0.4310635150979696,-0.6835029569299266,-0.4739526591892597
16487.5115416662,-0.021697998046875,-0.9464111328125,0.2081146240234375,0.3138034670373447,-0.8499340134611204,-0.3747376580427937
16517.5985416663,0.0398712158203125,-0.9607696533203125,0.1769866943359375,0.2727788020252191,-0.7855238646009001,-0.5405966675718387
16547.6835416666,0.0969085693359375,-0.9710845947265625,0.24468994140625,0.2431516675303056,-0.4358809071938139,-0.8082989519271486
16577.7645416665,0.0706024169921875,-1.009017944335938,0.2546234130859375,0.2382655658783372,-0.4390111867390931,-1.049099847163241
16607.8575416659,0.060760498046875,-1.059280395507812,0.1993255615234375,0.21261240036204,-0.5765235096253346,-1.328641746776717
16637.936541666,0.1525115966796875,-1.0811767578125,0.0210113525390625,0.21261240036204,-0.5765235096253346,-1.328641746776717
16668.0135416664,-0.0402374267578125,-1.252914428710938,0.066162109375,0.2858658419379775,-0.6813532532980145,-1.672611638429716
16698.1065416667,0.1089630126953125,-1.409011840820312,0.085693359375,0.2415748098488697,-0.5066205910168257,-2.244041319838056
16728.188541666,0.0917510986328125,-1.555068969726562,0.0316009521484375,0.2453735428277587,-0.2393579945574877,-2.829527165479834
16758.2945416661,-0.223052978515625,-2.130615234375,0.14495849609375,0.2382221563525689,-1.254163783731561,-3.232356113016893
16788.3585416666,-1.35711669921875,-2.291259765625,0.5072479248046875,0.1989993861339909,-4.01107826419373,-3.02045584193034
16818.4565416659,-0.286346435546875,-1.552520751953125,0.60528564453125,0.07975581569347501,-3.287818573246665,-2.845846750323731
16848.5465416661,1.122695922851562,-2.0206298828125,0.889068603515625,-0.1936208659964669,1.094059599002068,-4.581078094412807
16878.6245416659,0.4705963134765625,-1.10931396484375,0.293243408203125,-0.1936208659964669,1.094059599002068,-4.581078094412807
16908.711541666,-0.0895843505859375,-0.1743011474609375,0.017974853515625,0.5355081656770242,0.9400418026278424,-2.045183347557948
16938.8015416662,0.03997802734375,-0.1664581298828125,0.093902587890625,0.1329324847596322,-1.523875689445445,0.3397676897689633
16968.8925416667,-0.306060791015625,-0.1736907958984375,-0.032257080078125,0.1248082455382365,-0.9151263327334972,2.016050495761354
16998.982541666,-0.1694793701171875,-0.2125396728515625,0.011505126953125,0.2174423093150077,-0.2664447396885746,3.355129437166199
17029.0735416665,-0.0301055908203125,-0.4373626708984375,-0.0579376220703125,0.198799915368344,0.8221266169390581,4.559551230689478
17059.1635416667,0.1398162841796875,-0.7054901123046875,-0.0434417724609375,0.09408841604806345,0.8972839523782933,5.549100931665785
17089.253541666,0.186981201171875,-1.148590087890625,0.0106353759765625,0.09408841604806345,0.8972839523782933,5.549100931665785
17119.3435416662,0.5528717041015625,-1.70965576171875,0.2725982666015625,0.09257307738780837,0.8442897098468065,6.193993379111743
17149.4335416664,0.811309814453125,-1.955596923828125,0.5396881103515625,-0.1402998535992274,1.60242056579126,6.502810875956241
17179.521541666,1.464874267578125,-1.732681274414062,0.5998077392578125,-0.3954666387035345,2.780037642942891,5.753012784746536
17209.6155416666,1.868499755859375,-1.455825805664062,0.499664306640625,-0.4024156249358782,2.606906339425167,4.034469873312332
17239.7035416661,2.088333129882812,-0.595123291015625,0.7077789306640625,-0.3559139028258957,2.645513386799719,1.688556516508238
17269.7895416659,1.833343505859375,-0.8214111328125,0.2197723388671875,0.8787488838235598,1.878677456200123,-1.701068047309431
17299.8835416665,-4.360015869140625,-3.370895385742188,0.5634002685546875,0.8787488838235598,1.878677456200123,-1.701068047309431
17329.9735416667,1.738693237304688,-0.7070465087890625,-1.856430053710938,-0.1935971638627652,-2.667213089677794,0.5532054037528188
17360.0665416661,0.553558349609375,-1.45220947265625,0.57330322265625,1.543813977578541,1.933251752206354,-4.364042449796254
17390.1565416663,0.8524627685546875,-1.0377197265625,0.0778961181640625,1.392349087425265,0.2044178536878661,-2.280055779891415
17420.2415416667,-0.06781005859375,-1.020675659179688,0.2335052490234375,0.9691445607041194,-1.747628358963395,-1.21957251696474
17450.307541666,0.1338043212890625,-0.994476318359375,0.2699432373046875,0.6863514740318754,-0.4214947773013149,-1.006317495831663
17480.4235416659,0.1937103271484375,-1.066146850585938,0.2061920166015625,0.4821671795716092,-0.2812409963889459,-0.7072652780722676
17510.510541666,0.07891845703125,-0.960693359375,0.280731201171875,0.4821671795716092,-0.2812409963889459,-0.7072652780722676
17540.6015416665,0.0256805419921875,-0.9598846435546875,0.24017333984375,0.3258848973224892,-0.7970486942182179,-0.4122639946469913
17570.6945416659,0.06585693359375,-0.963409423828125,0.2068023681640625,0.2490694777885707,-0.6505002657533376,-0.5373627910601554
17600.7865416659,0.103240966796875,-0.9856109619140625,0.2602386474609375,0.2683185398315544,-0.4768757448017307,-0.7599042549143378
17630.8775416665,0.1148681640625,-1.007431030273438,0.1753082275390625,0.3174607861623506,-0.4423297517734408,-0.9642981401523932
17660.9695416664,0.1082000732421875,-1.011749267578125,0.1547088623046875,0.2761333197342829,-0.4316448831639339,-1.194813640942491
17691.060541666,0.1171417236328125,-1.024856567382812,0.07025146484375,0.365940970646153,-0.3851532810660936,-1.507638928911449
17721.1505416662,0.10076904296875,-1.190505981445312,0.1060791015625,0.365940970646153,-0.3851532810660936,-1.507638928911449
17751.2405416664,0.153594970703125,-1.282623291015625,0.1566314697265625,0.4139258071672007,-0.3435203500609939,-2.002942949508201
17781.3315416661,0.1943511962890625,-1.353363037109375,0.1152191162109375,0.3745336599032937,0.0004886900600295402,-2.554084669732318
17811.4025416662,0.0569000244140625,-1.503219604492188,0.097381591796875,0.3599097097254506,-0.2976854834879671,-2.846387105708908
17841.4855416659,-0.1811370849609375,-2.741439819335938,0.175140380859375,0.4909548122205436,-1.874653153476904,-3.119978171866601
17871.583541666,-1.513900756835938,-1.444808959960938,0.395843505859375,0.5888443580924771,-6.09631022822429,-1.870804086753413
17901.6765416663,-0.0577850341796875,-1.92913818359375,0.2734832763671875,-0.1205676941345033,-0.3630053681765587,-3.745711039482202
17931.7825416665,0.931396484375,-1.582778930664062,0.6292572021484375,-0.1205676941345033,-0.3630053681765587,-3.745711039482202
17961.8675416659,0.2554168701171875,-0.9976959228515625,0.0985107421875,0.3386265252418643,2.481752415577439,-4.388528351806769
17991.9325416668,0.1455230712890625,-0.1372528076171875,-0.0324249267578125,0.3878145779434098,0.007566573289133132,-1.603680507302977
18022.0405416649,-0.0212554931640625,-0.25823974609375,-0.0553131103515625,0.001956890768990224,-1.263211340902887,0.7686143895755509
18052.1315416663,-0.139862060546875,-0.1246490478515625,-0.0482635498046875,-0.2380599698421831,-1.224610418798842,2.626718926354812
18082.2215416665,-0.1111602783203125,-0.225921630859375,-0.0103607177734375,-0.1230676034497607,-0.3569698461981121,3.945424951736661
18112.317541666,-0.042877197265625,-0.4650726318359375,-0.0363922119140625,-0.06067692964414734,0.3295118564110681,5.112502302558195
18142.3995416662,0.2007598876953125,-0.7898406982421875,-0.1309967041015625,0.002394980768308259,0.5414456833273559,5.876630330961398
18172.5035416666,0.5196075439453125,-1.250167846679688,0.1402435302734375,0.002394980768308259,0.5414456833273559,5.876630330961398
18202.5985416649,0.757659912109375,-1.7130126953125,0.4273681640625,0.006296511765274342,0.5638316828183439,6.505112379770288
18232.6925416664,1.757858276367188,-1.7689208984375,0.5251312255859375,-0.08342485272727718,1.815258003265412,6.252615413658785
18262.7865416662,2.26568603515625,-1.302398681640625,0.506011962890625,-0.244608682962688,2.256315030353904,4.400123488876866
18292.875541666,2.268218994140625,-0.907989501953125,0.5278472900390625,-0.06002472149318694,1.476824823518688,2.225532616578114
18322.9725416659,1.63421630859375,-0.821807861328125,0.232940673828125,0.3464037545732227,1.311155963691474,-0.4934701678701234
18353.0665416665,-1.808074951171875,-3.946502685546875,-0.018798828125,-0.07926259825959234,1.234442809543415,-1.124880362297555
18383.1595416659,1.5064697265625,0.1389617919921875,0.2040863037109375,0.9077187501614418,2.575372115273648,-3.191445431299422
18413.2495416661,0.6880645751953125,-1.492431640625,0.1798095703125,0.9077187501614418,2.575372115273648,-3.191445431299422
18443.3415416661,0.60491943359375,-1.029754638671875,0.102386474609375,0.8334887274137721,0.546490509380293,-1.897649549489739
18473.4355416667,0.105682373046875,-0.95367431640625,0.1284637451171875,0.6763840610200358,-1.361834321339028,-1.156066244978492
18503.5275416649,0.0371246337890625,-1.025772094726562,0.268646240234375,0.57855416995652,-0.7675336788051967,-0.7716647742881276
18533.6225416659,0.1548919677734375,-1.033233642578125,0.2960205078125,0.4084088026529926,-0.3857117459466832,-0.5889231876607435
18563.7145416667,0.052459716796875,-0.9687347412109375,0.2408599853515625,0.2074959352757797,-0.6681018963459984,-0.3436702860303654
18593.8065416649,-0.009918212890625,-0.94525146484375,0.1965179443359375,0.2164846365870152,-0.4695565791778659,-0.508914904295929
18623.9025416662,0.0811920166015625,-0.9426727294921875,0.1961517333984375,0.2164846365870152,-0.4695565791778659,-0.508914904295929
18653.9965416659,0.0649261474609375,-0.9440765380859375,0.2381439208984375,0.2286936322883744,-0.3695988224033768,-0.7630126965386782
18684.0905416666,0.1004180908203125,-0.975738525390625,0.23040771484375,0.2029059771370282,-0.3083458510154454,-1.054452268322082
18714.1855416667,0.1482696533203125,-1.059494018554688,0.1758270263671875,0.2456614305415963,-0.4945870976313027,-1.333159533249927
18744.2775416666,0.0810394287109375,-1.0550537109375,0.048583984375,0.1813008164776513,-0.4960172151366752,-1.605328737701627
18774.3565416667,0.095184326171875,-1.251907348632812,0.1106719970703125,0.1925886247579522,-0.2669893561314958,-2.187321314941548
18804.4665416664,0.107421875,-1.445068359375,0.1111907958984375,0.1694721201799554,-0.131144438403753,-2.836118755493889
18834.5625416659,-0.0902252197265625,-1.662063598632812,0.1497802734375,0.1694721201799554,-0.131144438403753,-2.836118755493889
18864.657541666,-0.094329833984375,-2.926406860351562,0.3346099853515625,0.2257801340558277,-0.4530540351670809,-3.564541250530183
18894.7535416664,-1.897415161132812,-2.503875732421875,0.3445281982421875,0.3540685985065797,-2.907882957388254,-3.771937583581193
18924.8475416662,-0.036102294921875,-1.685379028320312,0.4949798583984375,0.4347645100648527,-5.265930208750968,-2.841384623917303
18954.9295416664,1.327178955078125,-1.524826049804688,0.93792724609375,-0.1020201087226465,-0.3715626373912013,-3.383274522514484
18985.0315416661,0.2327728271484375,-0.7866058349609375,0.0670166015625,0.5009544494815731,0.7509230104541545,-1.390107238419636
19015.0955416666,-0.00048828125,0.1031341552734375,-0.0428009033203125,0.2135769973088666,-1.170341853685753,0.743038189414757
19045.2115416665,-0.0786285400390625,-0.134857177734375,-0.1158294677734375,0.2135769973088666,-1.170341853685753,0.743038189414757
19075.2905416666,-0.201416015625,-0.1029205322265625,-0.15478515625,0.1439561074597972,-0.2793134003919465,2.243418140142977
19105.391541666,-0.161285400390625,-0.2828369140625,-0.0740966796875,0.09332169197022964,0.7789581072494187,3.645947427151179
19135.4765416663,0.066680908203125,-0.5004730224609375,-0.0488739013671875,-0.07132824242391926,1.814622040397101,4.927343364609345
19165.5705416661,0.1861572265625,-0.83966064453125,-0.0334320068359375,-0.1932291150001162,1.347169092164289,5.893516902801372
19195.654541666,0.344970703125,-1.387542724609375,0.1707763671875,-0.1836593119390255,0.6018650852940925,6.784671323614739
19225.746541666,1.058578491210938,-2.0003662109375,0.4774169921875,-0.4713377013149109,1.4614693029894,6.913441021274469
19255.8565416666,2.190628051757812,-1.694839477539062,0.516571044921875,-0.4713377013149109,1.4614693029894,6.913441021274469
19285.9325416666,2.241989135742188,-1.250762939453125,0.5452117919921875,-0.3010993896893397,2.598983701498291,4.944098908923688
19316.0395416662,2.0029296875,-0.9327850341796875,0.357086181640625,-0.1463060808056831,2.530476545617093,1.975364052207668
19346.1275416666,-0.7647705078125,-5.108291625976562,0.200653076171875,0.04718855135511402,3.783432585794302,-1.179255187538139
19376.2195416666,0.5462188720703125,0.4258880615234375,0.00958251953125,1.31983600463237,-0.4072964002656665,-4.40335150643415
19406.2845416665,1.04266357421875,-1.609024047851562,0.496185302734375,1.0764518431389,-0.00611222101784086,-2.176777061237598
19436.4015416659,0.6294097900390625,-1.018417358398438,0.19921875,1.010868838134609,-0.4009343747375761,-1.690055609885844
19466.4795416666,0.1784820556640625,-0.9942779541015625,0.147674560546875,1.010868838134609,-0.4009343747375761,-1.690055609885844
19496.5695416668,0.09991455078125,-1.023773193359375,0.2005462646484375,0.6630650597763315,-1.02619932494965,-0.9515780838378477
19526.6605416664,-0.0057830810546875,-1.008743286132812,0.30072021484375,0.5678511918516005,-1.034623436109789,-0.537818724238777
19556.7505416666,-0.0343475341796875,-0.9699859619140625,0.3592071533203125,0.3734931628653997,-0.7708509122589995,-0.472787259896241
19586.8405416659,0.0137176513671875,-0.9534912109375,0.19696044921875,0.199169295811538,-0.600938837866963,-0.5710869325760468
19616.9315416664,0.0485076904296875,-0.99102783203125,0.1460113525390625,0.1787130228464213,-0.5207574490312933,-0.764585825794588
19647.0475416663,0.085113525390625,-1.012252807617188,0.1726837158203125,0.1971974913404433,-0.424927059314209,-1.005824278397781
19677.1115416659,0.1060333251953125,-1.037338256835938,0.2675323486328125,0.1717145018178021,-0.3662546910225644,-1.225862903459507
19707.2235416663,0.127655029296875,-1.098678588867188,0.1583709716796875,0.1717145018178021,-0.3662546910225644,-1.225862903459507
19737.2925416666,-0.07989501953125,-1.017227172851562,-0.063262939453125,0.1873656332280888,-0.8220842726777259,-1.433843267737572
19767.4055416664,0.072052001953125,-1.380874633789062,0.2194671630859375,0.1867475135390814,-0.3781539610891474,-2.127008705734524
19797.4955416666,0.1875762939453125,-1.459365844726562,0.188568115234375,0.1633561707365884,-0.01368705010635324,-2.778302859808814
19827.5835416662,-0.050201416015625,-1.980331420898438,0.1634674072265625,0.284435458116496,-0.9759340235871674,-3.293400292575362
19857.653541666,-0.5499420166015625,-2.762237548828125,0.1793365478515625,0.339959969999667,-3.007818343609587,-3.63931136234692
19887.7525416665,-1.023590087890625,-1.48040771484375,0.513916015625,0.4125731876495495,-5.27701641573675,-2.762646934708565
19917.8395416666,-0.0168304443359375,-1.98583984375,0.4923553466796875,0.4125731876495495,-5.27701641573675,-2.762646934708565
19977.8656666667,-0.1610260009765625,-0.63604736328125,-0.0025482177734375,0.5885977493755358,0.7681155795033791,-1.895605307036994
20007.9516666665,-0.1650390625,-0.1636810302734375,-0.0126953125,0.4474302378931606,-2.540944899229976,0.3187308476862094
20038.0366666659,-0.2261962890625,-0.248077392578125,-0.1126251220703125,0.5956031946229893,-1.013985002926111,1.748636631752099
20068.1206666659,-0.26824951171875,-0.278411865234375,-0.1513214111328125,0.668327466090328,0.4880370529302528,3.146151452743791
20098.2036666664,-0.1067962646484375,-0.3957061767578125,-0.1186981201171875,0.3847910911578429,1.933930858284324,4.308997573225406
20128.2896666662,0.032318115234375,-0.5903167724609375,-0.0535888671875,0.3847910911578429,1.933930858284324,4.308997573225406
20158.3736666662,0.2461090087890625,-0.97442626953125,0.0535430908203125,-0.4541890744236727,1.889188686706557,6.059637434749463
20188.4596666659,0.526031494140625,-1.505691528320312,0.47393798828125,-0.4541890744236727,1.889188686706557,6.059637434749463
20218.5436666659,1.099609375,-1.737167358398438,0.7670745849609375,-0.6453326679741479,1.307952713532327,6.923706442012288
20248.6276666659,1.926193237304688,-1.585952758789062,0.71112060546875,-0.4070535199742513,2.064071551273226,5.726501548727015
20278.714666666,2.143508911132812,-1.20892333984375,0.440216064453125,0.3040911848579347,1.782299520562919,3.388806174414688
20308.798666666,1.92535400390625,-0.8732757568359375,0.3437347412109375,0.07544469052085474,2.297504278721397,0.1513607605546535
20338.8806666662,1.265045166015625,-0.8349151611328125,0.2193756103515625,0.6482704009726142,2.736913075411239,-2.124794020972014
20368.9686666667,-0.6329345703125,-3.11029052734375,-0.073516845703125,1.280634806018621,1.374752250522567,-4.55223286401394
20399.0536666661,0.0943603515625,-0.567718505859375,-0.877349853515625,1.280634806018621,1.374752250522567,-4.55223286401394
20429.1426666659,0.4376373291015625,-1.517547607421875,0.26043701171875,1.1526547356221,-1.71955597791287,-2.100485485490098
20459.2186666659,0.4333038330078125,-0.9042205810546875,0.3878936767578125,1.012757818295802,-0.347185924985379,-1.872562039388974
20489.3026666659,0.113372802734375,-1.028366088867188,0.1807098388671875,0.5155693449117099,-1.224951303418373,-1.016468400642609
20519.3906666664,0.0969390869140625,-1.03668212890625,0.240447998046875,0.4704351560214831,-0.3788061692401078,-0.7962406911434879
20549.4786666659,0.126312255859375,-1.00091552734375,0.2629241943359375,0.2994053529199404,-0.5272435778661813,-0.5654439605422779
20579.5666666663,0.1040496826171875,-0.972015380859375,0.24359130859375,0.2646044953753299,-0.8944135973554059,-0.4622043903564842
20609.6566666665,-0.0644989013671875,-0.9538421630859375,0.1903839111328125,0.2646044953753299,-0.8944135973554059,-0.4622043903564842
20639.760666666,0.09051513671875,-0.9981689453125,0.2021331787109375,0.2453647543961615,-0.5889141329130372,-0.7966710579756447
20669.8486666664,0.1783599853515625,-1.068893432617188,0.2637176513671875,0.2607290633570466,-0.3040608248215079,-1.068946788870948
20699.9346666662,0.051300048828125,-1.098968505859375,0.210296630859375,0.2034993294278978,-0.7428850576520774,-1.255224520793739
20730.0226666666,0.060211181640625,-0.9615325927734375,0.08197021484375,0.230997799263511,-0.514394890870985,-1.655968479513375
20760.1136666663,0.207855224609375,-1.308792114257812,0.0726776123046875,0.1610735753662815,-0.2337104951498657,-2.140895492922633
20790.2006666664,0.0111083984375,-1.474578857421875,0.103485107421875,0.2477890299364606,-0.6298847357550342,-2.608658166790221
20820.2856666667,-0.0366973876953125,-1.485763549804688,0.0127410888671875,0.2477890299364606,-0.6298847357550342,-2.608658166790221
20850.3716666664,-0.3377838134765625,-2.427169799804688,0.1138153076171875,0.379957720095458,-1.097372837714236,-3.222649423475772
20880.4556666664,-1.025650024414062,-2.297592163085938,0.21673583984375,0.1833898000367095,-3.265893034308152,-3.050804959396774
20910.5416666662,-0.4029693603515625,-1.999099731445312,0.6554107666015625,0.2972710956223508,-3.102734470124447,-3.033896017003643
20940.6276666659,0.716949462890625,-1.830047607421875,0.9211273193359375,0.06686531706916447,0.8887360042274659,-4.048267710920033
20970.7156666664,0.4295501708984375,-0.9871673583984375,0.0042572021484375,0.5576558122504501,1.567956065492327,-1.996731925213919
21000.8026666665,0.0193328857421875,-0.249908447265625,-0.125152587890625,0.3427741323235537,-1.78633367698217,0.4240053392609326
21030.8886666662,-0.1833648681640625,-0.2501068115234375,-0.034515380859375,0.3427741323235537,-1.78633367698217,0.4240053392609326
21060.9766666666,-0.3770751953125,-0.23529052734375,-0.0679931640625,0.4021354603892019,-1.664547852965065,2.340376112265601
21091.0626666664,-0.2784576416015625,-0.371551513671875,-0.0796966552734375,0.5456745168222927,-0.4577121702297385,3.644398000028971
21121.1416666665,-0.0533599853515625,-0.5750274658203125,-0.1623687744140625,0.3769286406716019,0.8030187024338485,4.881738861470611
21151.2336666665,0.1215362548828125,-0.777313232421875,-0.122467041015625,0.09948877410652614,1.025996924706804,5.925492945377735
21181.3206666666,0.2110748291015625,-1.211135864257812,0.0037841796875,-0.02932699624006158,0.6133222706197224,6.832673204366763
21211.4046666666,0.5959625244140625,-1.814254760742188,0.359710693359375,-0.08606457799976372,1.283819147734029,7.160449745011536
21241.4936666664,1.680801391601562,-2.21588134765625,0.635406494140625,-0.08606457799976372,1.283819147734029,7.160449745011536
21271.581666666,2.59375,-1.735748291015625,0.679931640625,-0.3765840276265457,2.040750515923512,5.975124148084671
21301.6676666666,2.551101684570312,-1.014175415039062,0.54779052734375,-0.1136493342546955,2.963487364104128,2.859331133871129
21331.7456666664,2.182662963867188,-0.9329833984375,1.146575927734375,0.1279225461169751,5.271065315964858,-1.222022358851503
21361.8456666663,0.9720916748046875,-1.303466796875,0.4736480712890625,1.231694427298453,-0.9555344759532695,-1.697662663223546
21391.9056666664,-0.5099639892578125,-0.83746337890625,-0.0734710693359375,1.250835098685071,-1.128351792778473,-2.26536285384134
21422.0176666668,0.603118896484375,-1.450897216796875,0.17205810546875,1.320752664679575,0.9410964144195139,-2.168020587573417
21452.0946666662,0.6006011962890625,-1.095657348632812,0.232574462890625,1.320752664679575,0.9410964144195139,-2.168020587573417
21482.1766666664,0.0194244384765625,-0.976470947265625,0.123291015625,0.7731843740061269,-1.288394458486785,-0.929908474680091
21512.275666666,-0.07647705078125,-1.011428833007812,0.2484130859375,0.7760352879530568,-1.341439034762874,-0.7910515217594685
21542.3536666649,0.0414276123046875,-0.955169677734375,0.388671875,0.6636150025414328,-0.3074377130837283,-0.5938276651242335
21572.4426666666,0.0167236328125,-0.958892822265625,0.2804107666015625,0.4295718785714163,-0.226361502121792,-0.4906722508288862
21602.5446666663,0.013092041015625,-1.009872436523438,0.1195220947265625,0.3577778492728421,-0.282455131529913,-0.5611948870230565
21632.6336666662,0.08392333984375,-1.007644653320312,0.2369537353515625,0.300773418771914,-0.3955318861502414,-0.7090216328111748
21662.7476666663,-0.0729217529296875,-0.959564208984375,0.252655029296875,0.300773418771914,-0.3955318861502414,-0.7090216328111748
21692.8486666666,-0.176788330078125,-0.970306396484375,0.2034759521484375,0.3503407056126868,-0.6670629972047584,-1.014843606061552
21722.9476666662,0.047149658203125,-1.152374267578125,0.085845947265625,0.5492016073699937,-0.7416810425232525,-1.721333904256607
21753.0406666665,0.040191650390625,-1.40155029296875,0.1493682861328125,0.5347198699943607,-0.8066685647078021,-2.353893252694407
21783.1396666661,0.0954132080078125,-1.588394165039062,0.05096435546875,0.534863148061007,-0.7757460686586741,-2.967761471337596
21813.2276666665,0.029144287109375,-1.76898193359375,-0.10821533203125,0.5362589107883176,-1.294200149663158,-3.531307663287083
21843.3216666663,-0.2811279296875,-2.74896240234375,-0.0411529541015625,0.5340767165911067,-4.01079383858931,-3.591051953917485
21873.4166666663,-2.269119262695312,-1.610870361328125,0.4974822998046875,0.5340767165911067,-4.01079383858931,-3.591051953917485
21903.5106666661,0.0191650390625,-1.843246459960938,0.5520782470703125,0.4509189789211644,-5.726432306538673,-2.101117187300665
21933.5936666666,0.52398681640625,-1.546966552734375,0.5362548828125,-0.181391363954714,0.8634088096285943,-5.194282653312348
21963.6996666659,-0.119842529296875,-1.007049560546875,0.2872467041015625,0.7881713130405478,0.7377422272710253,-1.778804920580517
21993.7966666666,-0.1690673828125,-0.07318115234375,0.097991943359375,0.2783834245392909,-1.178597653064998,0.3781563579341284
22023.8876666663,-0.0306549072265625,-0.16925048828125,-0.02874755859375,-0.1197690121235885,0.02481480240514032,2.198988091044968
22053.9826666663,-0.098388671875,-0.168426513671875,-0.039459228515625,-0.5996858205740807,0.4593537427256634,3.672407530477771
22084.0606666661,-0.005523681640625,-0.3460235595703125,0.1089019775390625,-0.5996858205740807,0.4593537427256634,3.672407530477771
22114.1726666665,0.114501953125,-0.62054443359375,0.1071929931640625,-0.8102755500882055,0.715143707525049,5.051013108781573
22144.268666666,0.1719970703125,-0.9486846923828125,0.1128692626953125,-0.660093238315912,0.2254696094727245,5.944855191767048
22174.3646666664,0.3867340087890625,-1.588027954101562,0.2421875,-0.2783264328919632,0.8503244328769261,6.519228198812144
22204.4566666664,1.052810668945312,-1.865188598632812,0.58099365234375,-0.4578807483267405,2.425406052181869,6.337525511326
22234.5516666664,2.028396606445312,-1.638626098632812,0.7522125244140625,-0.4285015541293134,3.121347036666902,5.008032884581002
22264.6456666662,2.243804931640625,-1.139877319335938,0.727447509765625,-0.09496140025339143,2.239024723292674,2.699931621566071
22294.7396666659,2.253463745117188,-0.73931884765625,0.5192108154296875,-0.09496140025339143,2.239024723292674,2.699931621566071
22324.8326666662,1.0753173828125,-1.62701416015625,0.0507659912109375,0.3272210052413819,1.812284583908339,-0.4594621333820296
22354.9306666664,0.9890594482421875,-0.6304931640625,1.285614013671875,-0.8664099258610046,2.462978994105143,-1.473197598114
22385.0236666649,0.0149688720703125,-0.997314453125,0.0078582763671875,1.318904164566951,4.497437791953343,-4.521382805946462
22415.121666666,0.9198455810546875,-1.501724243164062,0.20050048828125,1.107604436306211,0.6278346343478912,-2.171975381792185
22445.2116666662,0.31158447265625,-0.9244384765625,0.24578857421875,0.7238546411345892,-1.018733152833613,-1.342159153521632
22475.2796666662,0.0501708984375,-1.004913330078125,0.1343841552734375,0.5051175028975849,-0.6177127579928271,-1.012887514240889
22505.3966666665,0.153839111328125,-1.048126220703125,0.11053466796875,0.5051175028975849,-0.6177127579928271,-1.012887514240889
22535.4906666662,0.1340179443359375,-1.023239135742188,0.2492218017578125,0.5776878436539172,-0.2524575513273695,-0.8537316811755734
22565.5826666662,-0.0006866455078125,-1.000045776367188,0.270263671875,0.343589858565445,-0.6177388569715099,-0.5911711619368794
22595.6676666665,0.0533447265625,-0.9307708740234375,0.1608123779296875,0.2281293084533866,-0.5858714713676217,-0.6838901805524241
22625.7666666661,0.15875244140625,-0.9908447265625,0.1528472900390625,0.2422049137627824,-0.152117897252563,-0.9539104803205392
22655.8546666665,0.10931396484375,-1.004150390625,0.2190399169921875,0.2010478896444799,-0.2469551941991568,-1.087878135795885
22685.931666666,0.14996337890625,-1.120071411132812,0.185211181640625,0.1852292454016272,-0.3402140355676606,-1.294107205341114
22716.0256666666,0.08062744140625,-1.102813720703125,0.026580810546875,0.1852292454016272,-0.3402140355676606,-1.294107205341114
22746.1086666663,0.11077880859375,-1.264312744140625,-0.0521697998046875,0.2694655633130515,-0.6417887995115794,-1.642089149176318
22776.1996666659,0.1590728759765625,-1.479934692382812,0.0738525390625,0.1983106926760964,-0.1735755187875495,-2.333822072822916
22806.3036666663,-0.06854248046875,-1.579681396484375,0.23907470703125,0.1492534011840738,-0.08217396596326695,-2.948449558692887
22836.3906666664,-0.27301025390625,-1.9429931640625,0.17364501953125,0.2694413285471318,-1.084932679630257,-3.475020155751605
22866.4676666667,-1.817733764648438,-2.7333984375,0.0813446044921875,0.2439695243010689,-3.921810702350928,-3.041973650905962
22896.5746666663,0.0572052001953125,-1.416275024414062,0.314300537109375,-0.05874081153165974,-2.614707537206336,-3.557494259969724
22926.6216666665,0.464630126953125,-1.908920288085938,0.7667694091796875,-0.05874081153165974,-2.614707537206336,-3.557494259969724
22956.7106666664,0.3394012451171875,-1.146575927734375,0.3141632080078125,0.05803933490053287,1.796812949555523,-3.934686819905353
22986.8166666665,-0.1157073974609375,-0.3284759521484375,0.0196533203125,0.408791232585528,1.731484542751444,-1.978664774062712
23016.9066666667,0.064697265625,-0.251007080078125,0.1439208984375,-0.012838833299163,-0.34295229780048,0.4420586419744708
23046.9956666666,-0.193817138671875,-0.1543426513671875,0.001708984375,-0.3468623509129343,0.01134826203704565,2.561682934638423
23077.0856666659,-0.12078857421875,-0.291473388671875,0.1642608642578125,-0.5316556368441155,0.390309427252596,3.909887197518426
23107.1506666649,0.0187225341796875,-0.4633026123046875,0.048370361328125,-0.7296925565601519,0.7793503908779874,5.197197216809331
23137.2686666664,0.0810089111328125,-0.7500762939453125,0.0300445556640625,-0.7296925565601519,0.7793503908779874,5.197197216809331
23167.3566666659,0.3526611328125,-1.189285278320312,0.175048828125,-0.7703704779983491,0.7571958200857272,6.10368452128272
23197.4456666667,0.6771240234375,-1.781280517578125,0.430084228515625,-0.557648621715507,0.7845805729427939,6.878648952161456
23227.535666666,1.542266845703125,-2.054351806640625,0.7487640380859375,-0.5265026864509212,1.819884979343316,6.934212079880433
23257.6186666665,2.5145263671875,-1.623779296875,0.52740478515625,-0.5080871938291324,1.727987545924061,5.131190236559498
23287.714666666,2.529876708984375,-0.9197235107421875,0.668701171875,-0.3151318517890763,0.7625437138707153,2.597718433664394
23317.7836666664,2.226028442382812,-0.77105712890625,0.337066650390625,0.7019450811626163,0.8715471636037675,-1.025999321551785
23347.8956666659,-3.798538208007812,-4.231903076171875,0.366058349609375,0.7019450811626163,0.8715471636037675,-1.025999321551785
23377.9866666664,2.0701904296875,-0.2965545654296875,-0.9341583251953125,0.2260405912104375,-2.384455955680266,-0.9645852289179038
23408.077666666,0.579559326171875,-1.277862548828125,0.446807861328125,1.308342866632024,1.671888856509868,-3.886929417341397
23438.1656666665,0.692962646484375,-1.130523681640625,0.20745849609375,1.211455468278287,0.8112803607674923,-2.516444882465683
23468.2546666663,0.0705718994140625,-0.9433746337890625,0.182464599609375,0.6875043564677706,-1.330700636615457,-1.499236655672249
23498.3436666662,0.021270751953125,-0.97076416015625,0.2332763671875,0.6706928857705364,-0.7764326315876965,-1.095845248512966
23528.432666666,0.2142333984375,-1.0272216796875,0.3353271484375,0.6706928857705364,-0.7764326315876965,-1.095845248512966
23558.524666666,0.10125732421875,-0.988677978515625,0.3244781494140625,0.5388112843770495,-0.42304500337185,-0.8923866654497465
23588.6156666666,0.0432891845703125,-0.968292236328125,0.221282958984375,0.2962162175145704,-0.7216735122018143,-0.5429450430210705
23618.7016666663,0.1130828857421875,-0.9755096435546875,0.16571044921875,0.2431740380834623,-0.4565132151069848,-0.608938174833234
23648.795666666,0.0793914794921875,-1.004638671875,0.2587738037109375,0.3024253775960902,-0.4416716846680823,-0.75772925125207
23678.8666666662,0.17352294921875,-1.079437255859375,0.337310791015625,0.2843310622017649,-0.4689602974097972,-0.9590613001848614
23708.9826666661,0.04534912109375,-1.04229736328125,0.0905609130859375,0.3136021320589347,-0.9978457140880124,-1.133451746265975
23739.0656666666,-0.0399169921875,-1.133819580078125,0.0067291259765625,0.4065520467409893,-0.6925012456210863,-1.770690002422936
23769.1496666666,0.1641693115234375,-1.350173950195312,0.156982421875,0.4065520467409893,-0.6925012456210863,-1.770690002422936
23799.258666666,0.108154296875,-1.479034423828125,0.2042694091796875,0.3745733410035358,-0.06456088377791891,-2.450332973668902
23829.3476666668,-0.0500030517578125,-1.586700439453125,0.1148681640625,0.3835098443574058,-0.6195958791996221,-2.816491258260005
23859.4386666664,-0.4146728515625,-2.857681274414062,0.0810699462890625,0.603965254129729,-1.884385941996708,-3.299095995198714
23889.529666666,-1.604568481445312,-1.4522705078125,0.1880035400390625,0.6806906588188029,-5.698515986728027,-2.516086687299067
23919.6356666662,-0.01226806640625,-2.041854858398438,0.3984222412109375,-0.01958195717924363,-1.740854342414669,-3.730988286027917
23949.7236666666,0.7523193359375,-1.516876220703125,0.566070556640625,0.1427310533583607,1.709902285277441,-4.550359596503179
23979.808666666,0.0820770263671875,-0.851287841796875,0.118194580078125,0.1427310533583607,1.709902285277441,-4.550359596503179
24009.8956666661,0.2269134521484375,-0.0626678466796875,0.0574798583984375,0.3390811268399408,0.4382204942114485,-1.593965295646368
24039.9736666659,-0.0304107666015625,-0.1904449462890625,-0.0099029541015625,-0.07639756955888509,-0.6308005968539124,0.6276815025852117
24070.0676666665,-0.1589508056640625,-0.217498779296875,0.012176513671875,-0.3141403569152398,-0.6902540702932775,2.58443431983097
24100.1596666665,-0.083160400390625,-0.3478546142578125,0.07080078125,-0.346480453612617,-0.2490519009253762,3.95047723464065
24130.2526666659,0.0167999267578125,-0.578582763671875,0.01507568359375,-0.3409866185998925,0.2356631248611118,5.169514722542393
24160.3426666661,0.1464691162109375,-0.85791015625,-0.0174102783203125,-0.2426201005767258,0.4327788571560897,5.930812875971278
24190.4326666663,0.537139892578125,-1.348983764648438,0.212493896484375,-0.2426201005767258,0.4327788571560897,5.930812875971278
24220.5236666659,0.84893798828125,-1.665206909179688,0.4267730712890625,-0.08021707519427673,1.248817487843227,6.42131974449647
24250.6166666662,1.763900756835938,-1.778076171875,0.6194915771484375,-0.1401267481283723,1.814120833479948,6.261771894118695
24280.7096666666,2.279403686523438,-1.087509155273438,0.5634002685546875,-0.2528322580927436,1.669192938538381,4.641316667741527
24310.7966666666,2.2911376953125,-0.789581298828125,0.4386749267578125,0.1622389746593002,0.7791503874801224,2.399950759534565
24340.878666666,0.7826080322265625,-1.459426879882812,0.4073638916015625,0.3336908887936205,1.622307721231427,-0.5413263737105203
24370.9696666665,1.023605346679688,-1.3441162109375,-0.19647216796875,0.9258354361089238,1.469763451888342,-3.151365922158166
24401.0636666662,0.3294219970703125,-0.66326904296875,0.42401123046875,0.9258354361089238,1.469763451888342,-3.151365922158166
24431.1556666662,0.7639312744140625,-1.493057250976562,0.0952606201171875,1.26768012521204,0.3351558937092731,-2.124158324419812
24461.2476666662,0.0805816650390625,-0.92779541015625,0.3037567138671875,0.9340925670687145,-0.2185121011248925,-1.723753119790835
24491.3396666661,-0.0228118896484375,-0.978912353515625,0.283538818359375,0.6486693425039082,-1.45417304055091,-0.751913440063555
24521.4166666665,0.0871734619140625,-0.9696502685546875,0.2965240478515625,0.5243907997064884,-0.4292472392345356,-0.742236844242752
24551.5176666659,0.09033203125,-0.9815521240234375,0.247467041015625,0.3056770972870769,-0.4644401140916057,-0.5604609198266306
24581.6196666665,-0.067047119140625,-0.96368408203125,0.21417236328125,0.2449208054424452,-0.5902704808562146,-0.4568003038724954
24611.7146666666,7.62939453125E-05,-0.938995361328125,0.2263336181640625,0.2449208054424452,-0.5902704808562146,-0.4568003038724954
24641.8116666664,0.065582275390625,-0.9506683349609375,0.2455902099609375,0.2621613113912912,-0.2350910778589628,-0.7135199782084277
24671.8796666664,0.0951080322265625,-0.9874267578125,0.206298828125,0.2299727485599395,-0.1942605572903039,-0.9036675495112132
24702.0016666665,0.1761932373046875,-1.034469604492188,0.2240753173828125,0.2414411191621477,-0.2063260086089079,-1.075034242490651
24732.0676666659,0.1738433837890625,-1.111953735351562,0.179351806640625,0.2576389975442276,-0.3432513707908959,-1.174201306737495
24762.1676666668,-0.1065216064453125,-1.294967651367188,-0.0250091552734375,0.3366616449896038,-0.7970710647713746,-1.41579635661065
24792.2766666661,0.000946044921875,-1.430206298828125,0.1739044189453125,0.2112107786803313,-0.4880623529606085,-2.302990124250851
24822.3526666661,0.134307861328125,-1.57489013671875,-0.01263427734375,0.2112107786803313,-0.4880623529606085,-2.302990124250851
24852.4476666662,-0.101409912109375,-1.924346923828125,0.1380767822265625,0.2635892983677917,-0.3825582968999204,-2.916919861915221
24882.5576666659,-0.898712158203125,-3.013900756835938,0.1696014404296875,0.4607327275381064,-1.381970216025008,-3.449307601742999
24912.6276666666,-0.72430419921875,-1.279800415039062,0.462310791015625,0.6799036947166844,-4.91833335800939,-2.936479714857416
24942.7326666664,0.2838897705078125,-1.836761474609375,0.5693817138671875,0.1206198920918689,-1.635538039210832,-3.771045957248234
25002.7908750008,-0.069610595703125,-0.4190673828125,0.0417327880859375,0.5396419243210452,-0.05442222950798725,-1.31339062216216
25032.8858749999,-0.0622100830078125,-0.037261962890625,0.1492919921875,0.5396419243210452,-0.05442222950798725,-1.31339062216216
25062.9838749992,-0.3450927734375,-0.121429443359375,-0.036102294921875,0.1782118159292684,-0.7483866158319631,1.100234936937744
25093.0798749996,-0.0417938232421875,-0.193145751953125,0.06585693359375,-0.1851408284534366,0.04965517115674541,3.012299378459754
25123.1728749999,0.0784912109375,-0.414276123046875,-0.0009918212890625,-0.4867121302879384,0.7451721803962374,4.355489175323247
25153.2768749994,0.1642303466796875,-0.797271728515625,0.0077362060546875,-0.8040866300309704,0.3698435669075551,5.710577975937214
25183.3628749991,0.2700042724609375,-1.268356323242188,0.0270233154296875,-0.7579401736104043,-0.1985900582744457,6.754328331418813
25213.4548749991,0.9644622802734375,-1.605255126953125,0.4063262939453125,-0.577850030164303,1.870805684650067,6.935626751051482
25243.5508749995,1.95654296875,-1.679718017578125,0.5328369140625,-0.7635937982885336,3.084524573538812,5.78341543175088
25273.6458749996,2.606002807617188,-1.232650756835938,0.771759033203125,-0.7635937982885336,3.084524573538812,5.78341543175088
25303.7448749992,1.963836669921875,-0.747955322265625,0.4682464599609375,-0.1825953790835388,2.514476540104005,-0.01393712093271168
25333.8348749994,-3.775741577148438,-3.639373779296875,-0.6122283935546875,-0.1825953790835388,2.514476540104005,-0.01393712093271168
25363.9428749993,2.765731811523438,1.107025146484375,-0.39471435546875,0.5700333860488115,0.2197629878889027,-0.5967829749858944
25394.0148750007,-0.2448883056640625,-1.783935546875,0.6385955810546875,1.585229328322581,-0.5506980375865091,-1.848742460283197
25424.0998749992,0.424652099609375,-1.116195678710938,-0.057159423828125,1.10081577237149,-0.258726632533416,-2.127065697381851
25454.1898749994,-0.0869293212890625,-0.9371337890625,0.2505950927734375,0.9135007392041128,-0.6806784082777885,-1.042357522231488
25484.2868749993,0.2440948486328125,-1.0357666015625,0.285125732421875,0.4442032856003116,0.3482447978347945,-0.8297549755654811
25514.3578749994,-0.0241546630859375,-0.9623260498046875,0.16876220703125,0.4442032856003116,0.3482447978347945,-0.8297549755654811
25544.4768749994,0.0608673095703125,-0.9904937744140625,-0.001220703125,0.1377083315424713,-0.06033524607629018,-0.3842342241739073
25574.5578749993,0.1574859619140625,-1.046463012695312,0.013824462890625,0.1246894685536189,0.1174177071971576,-0.4866601986466818
25604.6478749995,0.1029510498046875,-0.9840545654296875,0.1250152587890625,0.1151628087021875,-0.09323540555091107,-0.3692874988719466
25634.7398749995,-0.0225982666015625,-0.9003753662109375,0.3962860107421875,0.1211317516533821,-0.160013903568539,-0.2207318458934735
25664.8398749994,0.1054229736328125,-0.9582061767578125,0.1290740966796875,0.09149316556578124,-0.08403018924305218,-0.1553810685362371
25694.9168749998,0.04071044921875,-1.013641357421875,0.1389617919921875,0.09149316556578124,-0.08403018924305218,-0.1553810685362371
25725.0088749997,0.093841552734375,-0.963287353515625,0.0618743896484375,0.1540114047876094,0.02382676964072093,-0.1225432270311241
25755.1038749989,0.1177215576171875,-0.89776611328125,0.233917236328125,0.2693337368390926,-0.0470231690514201,-0.111618141291292
25785.2088749996,0.0443572998046875,-1.068801879882812,0.1086883544921875,0.2826247748913511,-0.04014289237520039,-0.05722227707809656
25815.2988750007,0.0323333740234375,-0.9733123779296875,0.22491455078125,0.1643713677441266,0.1450011318715443,-0.008156197154476675
25845.3868749993,0.1081390380859375,-0.90216064453125,0.2126922607421875,0.133833432156406,0.3389841877762619,-0.07246461326105608
25875.4758749992,0.1000213623046875,-0.9600677490234375,0.1896209716796875,0.1165500493140098,0.3040352584750431,-0.05000644210452686
25905.5638749996,0.1000823974609375,-0.9888916015625,0.21234130859375,0.1165500493140098,0.3040352584750431,-0.05000644210452686
25935.6548749993,0.0836181640625,-1.096527099609375,0.0852813720703125,0.07149682052092128,0.4273028653226688,-0.04686444465045138
25965.7408749999,0.16534423828125,-1.0269775390625,0.0034637451171875,0.09140102019206449,0.07815179376892029,0.03218190492862652
25995.8318749996,-0.018463134765625,-0.9293365478515625,0.242523193359375,0.139480665247919,-0.1958201044246543,0.06409855901268115
26025.9228749992,0.0035858154296875,-0.9155120849609375,0.4122161865234375,0.2168273854193083,-0.2796801176740504,-0.06688875288675718
26056.011875,-0.036712646484375,-0.907989501953125,0.405853271484375,0.1209250903527919,-0.2567391154118899,-0.09014880184750923
26086.1008750007,-0.008453369140625,-0.9244384765625,0.3045196533203125,-0.0230459308091097,0.04972627755785053,-0.1475159548889061
26116.1918749995,0.0752105712890625,-0.9610748291015625,0.166168212890625,-0.0230459308091097,0.04972627755785053,-0.1475159548889061
26146.2808749993,0.090545654296875,-0.9873809814453125,0.192413330078125,0.0560675304294382,0.2272864179683766,-0.1767790352628058
26176.3688749998,0.100128173828125,-0.9579315185546875,0.253509521484375,0.0560675304294382,0.2272864179683766,-0.1767790352628058
26206.4568749993,0.0888824462890625,-0.95989990234375,0.247406005859375,0.0170231920038955,0.08423764949196937,-0.1037394455224016
26236.5448749997,0.074432373046875,-0.9442291259765625,0.121368408203125,-0.01946424545906213,0.2170721299234867,-0.103787116105914
26266.6298749991,0.1436004638671875,-0.9646759033203125,0.1327667236328125,0.06931942001367249,0.1375240407950378,-0.1068635997971736
26296.721875,0.0951080322265625,-0.940338134765625,0.2342376708984375,0.1337482110015235,0.1023631238710487,-0.1349106808173431
26326.8118749993,0.1381683349609375,-0.9911041259765625,0.2261810302734375,0.1342158620889414,0.09752895386033682,-0.07841012039465797
26356.8988749994,0.0691375732421875,-0.9540557861328125,0.16741943359375,0.1342158620889414,0.09752895386033682,-0.07841012039465797
26386.9838749997,0.1087188720703125,-0.9511566162109375,0.2411346435546875,0.1708180817948814,0.01325668327419643,0.004436826376072011
26417.0708750007,0.1027374267578125,-0.9835357666015625,0.2186737060546875,0.1708180817948814,0.01325668327419643,0.004436826376072011
26447.1578749999,0.084503173828125,-0.952301025390625,0.291900634765625,0.1747435812416582,-0.03001409180130202,0.04202707884643145
26477.2488749995,0.102996826171875,-0.9469146728515625,0.235321044921875,0.1168882707724498,0.01884372892507366,0.05299291095094172
26507.3388749997,0.032379150390625,-0.9531097412109375,0.2294464111328125,0.1137822259930904,0.06868798451921471,0.03774152002027594
26537.4318749991,0.03009033203125,-0.9473419189453125,0.249542236328125,0.1137822259930904,0.06868798451921471,0.03774152002027594
26567.523875,0.1071014404296875,-0.9221954345703125,0.30517578125,0.1562567159026552,0.1223293751955907,-0.04536668285339081
26597.5978749993,0.1303253173828125,-0.9643402099609375,0.2301788330078125,0.1536337685450361,-0.01858353808657292,0.01728764390014037
26627.6888749999,0.096099853515625,-0.966796875,0.2617034912109375,0.1536337685450361,-0.01858353808657292,0.01728764390014037
26657.7788749992,0.0664520263671875,-0.9359283447265625,0.271209716796875,0.1590162834241953,0.01114293231700054,0.009685650568509181
26687.8558749995,0.1082763671875,-0.97021484375,0.1790618896484375,0.1417033394936991,-0.06415182223448274,0.03985367308081778
26717.9748749995,-0.0097503662109375,-0.9071807861328125,0.436492919921875,0.1340203860649296,-0.1999887504789553,0.07580182042303436
26748.0338749992,-0.01092529296875,-0.887664794921875,0.4230804443359375,0.02388908761022878,-0.01958488665644272,0.06529751413543483
26778.1478749994,0.0665435791015625,-0.9728240966796875,0.262359619140625,0.02388908761022878,-0.01958488665644272,0.06529751413543483
26808.214875,0.051422119140625,-0.9430694580078125,0.2402801513671875,-0.01894279851762461,0.0687785319962774,-0.03466983001897855
26838.3268749994,0.1031494140625,-0.9349212646484375,0.29302978515625,-0.01894279851762461,0.0687785319962774,-0.03466983001897855
26868.4028749994,0.0915374755859375,-0.921173095703125,0.231903076171875,0.004391552637540663,0.04134850540067926,-0.01620560154924117
26898.4868749994,0.0462799072265625,-0.93743896484375,0.297027587890625,0.05528828949448102,-0.09739073579976171,0.03513029057145325
26928.5928749996,0.0674285888671875,-0.9344482421875,0.2982940673828125,0.06010994264806948,-0.03407301561869179,-0.0238257043762849
26958.6638749997,0.1173553466796875,-0.94805908203125,0.271209716796875,0.05153243340914226,0.02967134296900882,-0.02855228267895753
26988.7688749996,0.02886962890625,-0.9539794921875,0.27642822265625,0.05304750575328834,-0.04100921867780317,0.03795670343635434
27018.8588749998,0.1006317138671875,-0.953765869140625,0.308563232421875,0.05304750575328834,-0.04100921867780317,0.03795670343635434
27048.9508749997,0.0638275146484375,-0.95111083984375,0.2523345947265625,0.04537999865884121,0.00267834110829269,0.05040911206134684
27079.0408749999,0.03839111328125,-0.9597015380859375,0.2799530029296875,0.04595896987982444,-0.03623896453325323,0.1007311387550481
27109.1308749992,0.016448974609375,-0.94287109375,0.308746337890625,0.05708645586250252,-0.01956651084492117,0.05703132842793788
27139.2228749992,0.0595245361328125,-0.9459991455078125,0.2617340087890625,0.05514980511779689,0.058883823282197,0.02882525669069065
27169.3128749994,0.0186767578125,-0.92987060546875,0.2779693603515625,0.08946942945343002,-0.00275397488325094,0.02308401401269783
27199.4058749997,0.0338897705078125,-0.9467315673828125,0.2801055908203125,0.1254569915797798,0.01375043334029712,-0.04812278826551382
27229.4978749997,0.0359039306640625,-0.9612884521484375,0.2828216552734375,0.1254569915797798,0.01375043334029712,-0.04812278826551382
27259.5868749995,0.10064697265625,-0.92608642578125,0.308929443359375,0.144184872997435,0.003785949805656645,-0.1001204759170929
27289.6798750007,0.0543670654296875,-0.948516845703125,0.2906036376953125,0.1451313604488492,0.08249860530014762,-0.09847437604731495
27319.7728749992,0.1192779541015625,-1.008819580078125,0.22119140625,0.1494118592689335,0.1152211319300602,-0.003824299325353786
27349.8628749994,0.0256500244140625,-0.92877197265625,0.4367828369140625,0.1489346208015913,0.002989664639722953,0.05440571790922875
27379.9578749995,0.0012359619140625,-0.85577392578125,0.4958343505859375,0.04519411001475368,0.02003789035786519,-0.0338682185308647
27410.0478749997,0.015380859375,-0.9550933837890625,0.2436676025390625,-0.06260239511227464,0.03243943260603718,-0.04223880015309275
27440.1418749994,0.02789306640625,-0.9311981201171875,0.2677154541015625,-0.06260239511227464,0.03243943260603718,-0.04223880015309275
27470.2308749993,0.11163330078125,-0.967376708984375,0.22607421875,-0.003747333969850496,0.1262080030071821,-0.1638256860367694
27500.3198749991,0.1359710693359375,-0.991668701171875,0.1971893310546875,0.03993889423570032,0.004236290345989044,-0.1392857218561252
27530.4088749999,-0.045654296875,-0.8802947998046875,0.5087432861328125,0.05571892264274683,-0.161257067165388,-0.09657793903506953
27560.4998749996,0.029815673828125,-0.907562255859375,0.47869873046875,0.002667688463932373,-0.05331701765560436,-0.1424109413953332
27590.5868749996,0.0504150390625,-0.980865478515625,0.2818756103515625,-0.08782439484808807,-0.1018094526804212,-0.06396859675148528
27620.6758749995,0.1237945556640625,-0.9341278076171875,0.2454681396484375,-0.07781463757491626,0.009448362915383122,-0.1146608028367076
27650.7668749991,0.11407470703125,-0.9387054443359375,0.27081298828125,-0.01769856965633959,-0.1725107869837358,-0.02143232150463069
27680.8378749993,0.10614013671875,-0.9517974853515625,0.2857208251953125,-0.01769856965633959,-0.1725107869837358,-0.02143232150463069
27710.9368749989,0.0048980712890625,-0.9302215576171875,0.3281707763671875,0.01332992020417361,-0.2343033148085173,0.08040829016054442
27741.0298749992,0.0625762939453125,-0.897216796875,0.3159027099609375,0.02639618746042938,-0.1516036408460687,0.04696484582354737
