time(ms),accelerometerAccelerationX,accelerometerAccelerationY,accelerometerAccelerationZ,gyroRotationX,gyroRotationY,gyroRotationZ
0,0.1072540283203125,-0.9720611572265625,-0.1324920654296875,0.003383546164945672,-0.006507434123608618,-0.0159142517259865
30.0719999995636,0.061492919921875,-0.986663818359375,-0.1223297119140625,-0.0129834429463543,-0.1611638565272352,-0.06408311267835869
60.1520000000164,0.0782318115234375,-0.973297119140625,-0.122833251953125,0.01430596874368765,-0.008795089499986685,-0.03818893108340925
90.2289999994537,0.103790283203125,-0.97308349609375,-0.1424407958984375,0.01430596874368765,-0.008795089499986685,-0.03818893108340925
120.302999999694,0.03155517578125,-1.064605712890625,-0.100189208984375,0.01828632930892008,0.0137562922946953,-0.01379464181439244
150.380000000041,0.095306396484375,-0.9477691650390625,-0.18212890625,0.04196103245139748,0.1196979057224834,0.05604356197962749
180.457999999817,0.1040496826171875,-0.963287353515625,-0.152679443359375,0.04647349260242774,0.2289410399536428,0.02023709480740312
210.536999999931,0.076416015625,-0.9631500244140625,-0.14764404296875,0.06556649340553283,0.03702646126758966,-0.04340526471054745
240.617999999813,0.10595703125,-0.9709320068359375,-0.1271514892578125,0.09584024341311757,-0.01311580205253124,-0.07162332067270004
270.695999999589,0.1045074462890625,-0.9871978759765625,-0.1195220947265625,0.1065717173417009,-0.03649942168786299,-0.07352481769101661
300.772999999936,0.0838775634765625,-0.9741973876953125,-0.1197967529296875,0.1065717173417009,-0.03649942168786299,-0.07352481769101661
330.848999999944,0.0356903076171875,-0.9623260498046875,-0.1519012451171875,0.1184949558580946,-0.113095396747959,-0.08041148595385252
360.925999999381,0.1012725830078125,-0.955352783203125,-0.1475067138671875,0.1184949558580946,-0.113095396747959,-0.08041148595385252
391.002999999728,0.093292236328125,-0.9618988037109375,-0.112396240234375,0.1890716542223935,-0.1235994367194495,-0.0872568752197922
421.080000000075,0.0819091796875,-0.96990966796875,-0.0989227294921875,0.2982825642043629,-0.1660177339300136,-0.1074537562947351
451.154999999744,0.083648681640625,-0.971832275390625,-0.0767364501953125,0.3552425199150867,-0.06947335072467907,-0.1523631743889593
481.210999999348,0.07086181640625,-0.97821044921875,-0.0195770263671875,0.3081298686510399,-0.09266096170378098,-0.2378160242863318
511.273000000074,0.053497314453125,-0.9604644775390625,-0.036529541015625,0.2706397510376675,-0.04252908471191139,-0.3332413472016151
541.360000000168,0.0658721923828125,-0.9581451416015625,-0.080596923828125,0.2610947153747145,0.2210692684035866,-0.4713355707860388
571.452999999565,0.1613006591796875,-0.9279327392578125,-0.0345611572265625,0.2610947153747145,0.2210692684035866,-0.4713355707860388
601.531999999679,0.233428955078125,-1.002059936523438,-0.147705078125,0.3389708719708115,0.2872139340817756,-0.4711456874003162
631.607999999687,0.164093017578125,-0.9747161865234375,-0.0835723876953125,0.4000704452799544,-0.09227214018462941,-0.3457779117170541
661.662999999862,0.15643310546875,-0.96502685546875,-0.0247650146484375,0.4705986741124139,-0.05493222485673743,-0.3539881710416594
691.759999999704,0.127166748046875,-0.921630859375,0.0779571533203125,0.4772525820959769,0.02244192587387972,-0.3863825962252742
721.83700000005,0.10980224609375,-0.976959228515625,0.0761566162109375,0.4241424920570717,0.2047928267693493,-0.4358774450843969
751.913000000059,0.1986541748046875,-0.945404052734375,0.0311737060546875,0.4241424920570717,0.2047928267693493,-0.4358774450843969
781.990999999834,0.169830322265625,-0.9335174560546875,0.0135040283203125,0.3798967337064952,0.3592923889847702,-0.5117647529784227
812.066999999843,0.14520263671875,-0.8712158203125,0.029754638671875,0.4418874007163787,0.3827937203402834,-0.5188892415266028
842.149999999492,0.29486083984375,-0.973419189453125,-0.1446075439453125,0.7107950317810586,0.6303776868728079,-0.6270252996926161
872.230999999374,0.094329833984375,-0.8826751708984375,0.1817474365234375,0.837853115808194,0.376427966386667,-0.8908058130266755
902.310999999827,0.2978668212890625,-0.9449005126953125,0.24420166015625,0.9049341489256549,0.2911492872245857,-1.060218544714322
932.389999999941,0.4276885986328125,-0.9524078369140625,0.2196044921875,0.775204648009061,0.466700605224865,-1.134768945741128
962.469999999485,0.4723968505859375,-0.926025390625,0.2292633056640625,0.5929171303475353,0.4540394047704102,-1.065785084024806
992.548999999599,0.47711181640625,-0.9339447021484375,0.1735382080078125,0.5929171303475353,0.4540394047704102,-1.065785084024806
1022.62999999948,0.4890594482421875,-0.8888092041015625,0.1900787353515625,0.5702701410697195,0.1033626082281554,-0.9028915043695641
1052.7119999997,0.4625701904296875,-0.9830474853515625,0.21337890625,0.7267652098899368,-0.4059608249789917,-0.69393642313253
1082.79099999982,0.38690185546875,-1.021987915039062,0.4320068359375,0.6999429166550947,-0.5536022147552405,-0.6644552298653529
1112.86599999949,0.814483642578125,-1.3017578125,0.84527587890625,0.382946852102963,-0.2401585407811656,-0.7221411632892322
1142.94699999937,0.4356689453125,-1.652862548828125,-0.0482177734375,0.1851938253591291,-0.4572719497015484,-0.6796996965771844
1173.02399999971,0.11865234375,-1.69427490234375,-0.1006927490234375,0.2123476821496861,-0.407615979596476,-1.225289524876813
1203.10100000006,-0.090545654296875,-1.7034912109375,0.0337066650390625,0.2123476821496861,-0.407615979596476,-1.225289524876813
1233.17899999984,-0.6752777099609375,-1.602218627929688,0.207794189453125,0.5164918639133134,-0.5646729754066999,-1.780225983338183
1263.25600000018,-0.4756011962890625,-1.681503295898438,0.39093017578125,1.138713886263863,-2.821834890987249,-2.158692865855415
1293.33399999996,-0.54351806640625,-2.875381469726562,0.48321533203125,1.442568848733107,-2.249867517354822,-3.77081372960118
1323.39799999954,0.38336181640625,-3.017608642578125,0.284912109375,1.25216667923011,-0.8418369384828436,-6.20383269407515
1353.46599999957,0.5361328125,-3.474761962890625,-0.4067840576171875,1.172166119032457,1.298941641667935,-7.172442492032381
1383.56899999962,-0.33050537109375,-1.992523193359375,-0.041259765625,-0.06475289769251362,-0.6624306948046745,-4.331513002345372
1413.63699999965,-0.13720703125,-0.607177734375,-0.038421630859375,-0.06475289769251362,-0.6624306948046745,-4.331513002345372
1443.72599999951,-0.276580810546875,0.381622314453125,0.0273284912109375,-0.8877362535542502,-0.9090082527612581,-0.5647973450296067
1473.81499999938,-0.178680419921875,0.50518798828125,-0.162506103515625,-1.611645755807295,-1.901116452596804,3.913713094740433
1503.89399999949,-0.02044677734375,-0.1236572265625,0.0742645263671875,-1.794734618640826,-1.204862280367578,7.550578343626116
1533.97700000005,0.2813262939453125,0.092803955078125,0.218536376953125,-0.9303311183450865,-0.585447496122081,8.831894918883798
1564.05699999959,2.098892211914062,0.2888946533203125,0.6809539794921875,0.02510908170559408,2.2484211545668,7.629388737132612
1594.13799999948,4.85699462890625,0.0885772705078125,1.49896240234375,-0.05626433803399506,2.315989013531528,5.352620363290791
1624.22399999832,4.9849853515625,-0.017974853515625,1.717788696289062,-0.05626433803399506,2.315989013531528,5.352620363290791
1654.30599999945,3.088043212890625,0.1936798095703125,0.896942138671875,0.8761312627881209,-1.186730414401882,1.107317081224591
1684.3859999999,0.8431549072265625,-2.592239379882812,-0.6562347412109375,1.851072992553125,-1.390002043556578,-2.333655358938677
1714.47099999932,0.4653472900390625,-1.353118896484375,-0.232940673828125,1.382831216005431,-1.923551454251849,-2.524656207054724
1744.55799999942,1.404403686523438,0.4895172119140625,0.71435546875,1.010698395824844,2.1231734874487,-3.873944642814498
1774.6389999993,1.344436645507812,-1.5997314453125,0.849365234375,1.715393457129076,-1.083314010319707,-2.367520647992343
1804.7289999995,1.024215698242188,-2.455612182617188,-0.130645751953125,0.7799144483968662,-1.984886717317464,-1.172677445961752
1834.80999999938,0.811676025390625,-4.013137817382812,0.6103057861328125,0.7799144483968662,-1.984886717317464,-1.172677445961752
1864.88999999983,-2.71905517578125,-4.382583618164062,0.710693359375,-1.312124022747718,-1.744616057454406,-1.023118846516755
1894.96899999995,-0.764007568359375,-1.914566040039062,1.973037719726562,-2.05013016928277,-3.032292527711306,1.22403118126175
1925.02999999942,2.02325439453125,-2.075881958007812,0.2542266845703125,0.1565565878413981,7.801004968306191,-3.105279120546018
1955.12700000018,-1.835586547851562,-5.551162719726562,0.58087158203125,2.865007129102415,-1.624573006054649,-7.711044984579968
1985.20300000018,-1.613525390625,-2.803237915039062,-0.2956085205078125,1.550333662243164,-2.772284115745235,-7.575552935696661
2015.28199999939,-0.93646240234375,-2.72796630859375,-0.151092529296875,1.189252694270296,-2.143054783934469,-5.257559893444848
2045.36300000018,-0.720458984375,-0.5415496826171875,-0.026947021484375,1.189252694270296,-2.143054783934469,-5.257559893444848
2075.42199999989,0.0450439453125,1.057815551757812,-0.032745361328125,-0.2394168504175785,-0.1150030190367827,-0.5658032209733296
2105.5239999996,0.12286376953125,0.0536956787109375,0.16436767578125,-2.211389633293139,1.957428194898202,4.886430818679112
2135.60099999995,-0.4284210205078125,-0.2781219482421875,0.3989410400390625,-3.043397376824719,-0.6633665296117285,9.586301876675993
2165.68499999994,0.413848876953125,0.5696258544921875,1.156890869140625,-1.618445072386376,1.021945457740466,10.35390160187622
2195.75999999961,3.430633544921875,0.42437744140625,1.176101684570312,-0.9183282513120994,5.501379748092655,9.651591933960376
2225.82899999998,6.495376586914062,-0.9775390625,2.378875732421875,-0.8476964255132359,1.093435354042553,6.897909998429345
2255.91399999939,5.876113891601562,-0.260528564453125,1.580062866210938,-0.8476964255132359,1.093435354042553,6.897909998429345
2285.99599999961,6.210647583007812,1.756439208984375,4.47491455078125,1.193228527461676,-1.85549543785931,0.900872561947175
2316.07900000017,-1.474227905273438,-0.7662506103515625,-1.489959716796875,3.846727136473888,-0.8586026028093284,-3.747033565279535
2346.17399999934,0.8734893798828125,-0.082855224609375,0.9421234130859375,1.603054930762917,-4.056475307083548,-4.669202094883529
2376.25399999979,1.600555419921875,-1.955368041992188,0.790618896484375,1.34234477584961,0.1177146496587014,-4.574794099504656
2406.33499999967,1.453536987304688,-4.514022827148438,-0.215545654296875,0.4319250477106102,-1.511486930370505,-2.54099203718127
2436.41399999979,-1.318832397460938,-7.357131958007812,0.2637786865234375,-1.300670033215396,-2.854694570413301,-1.754419686059206
2466.49399999933,-4.2294921875,-1.087112426757812,1.809860229492188,-1.300670033215396,-2.854694570413301,-1.754419686059206
2496.57200000001,1.312255859375,-4.250946044921875,1.224517822265625,0.8076273027002306,4.048669581928526,-7.975532034551225
2526.64099999947,-1.305648803710938,-4.22894287109375,0.3434906005859375,2.087048772526212,-1.935220094568031,-8.228658039312204
2556.71999999959,-1.826934814453125,-2.951278686523438,-0.3450927734375,2.087048772526212,-1.935220094568031,-8.228658039312204
2586.79299999949,-1.62823486328125,-2.403717041015625,-0.1589508056640625,1.630379229863239,-4.127846692717126,-5.315247691081491
2616.87699999948,-1.234390258789062,-1.1202392578125,-0.2801971435546875,0.9888500885579427,-2.901856223841405,-2.017654251369799
2646.96000000004,0.0611724853515625,0.950958251953125,-0.1643524169921875,-0.292336790754652,1.486809280761504,3.469134303426421
2677.03799999981,0.0020904541015625,-0.0852203369140625,0.3062591552734375,-1.715877619815252,1.317045810758294,8.450610678249371
2707.11699999993,0.0107421875,-0.538330078125,0.453857421875,-1.715877619815252,1.317045810758294,8.450610678249371
2737.1949999997,0.612152099609375,-0.1263885498046875,0.7905731201171875,-1.789434661755459,1.149673859413975,11.04429522181062
2767.27799999935,2.15875244140625,-0.6459808349609375,0.73583984375,-0.8457350073703925,3.675183875914178,10.97295978885176
2797.35600000004,5.250625610351562,-2.519943237304688,1.46551513671875,-1.261524228352322,2.755010852914981,9.823782342664975
2827.43499999833,6.932083129882812,-1.489852905273438,1.515457153320312,-0.2989475555285557,1.141195952399817,6.215739154676676
2857.52199999934,4.12176513671875,-0.481292724609375,0.775177001953125,1.520587750763633,-4.376179540148182,-0.2325416337474299
2887.58199999938,4.359298706054688,0.613861083984375,4.039413452148438,1.475257819533285,-3.485589443169802,-3.778816794992977
2917.6639999996,0.4109649658203125,-2.501434326171875,-0.188323974609375,1.952074442158816,-2.209409839338774,-5.671006597931944
2947.75799999934,1.354232788085938,-0.5559844970703125,0.516754150390625,1.952074442158816,-2.209409839338774,-5.671006597931944
2977.82499999994,1.552261352539062,-2.931686401367188,0.473052978515625,0.4820601204957879,0.7354220813293484,-5.695477852556464
3007.91599999957,1.036453247070312,-4.830398559570312,-0.3391265869140625,0.1319721488705496,-1.055151880740446,-3.80548302698794
3037.99799999979,-2.572021484375,-4.493988037109375,-0.1687164306640625,-0.2517105346416023,-4.589184756771008,-0.9598314863721122
3068.06599999982,-1.689529418945312,-2.009140014648438,1.593185424804688,-0.4017583567788467,-2.910673417578439,-0.6199016100927632
3098.15699999945,-0.60980224609375,-3.12890625,0.3414764404296875,0.1461295132254108,6.791255723093851,-8.275873754910437
3128.24699999965,0.4166259765625,-4.391311645507812,0.3293304443359375,2.238989835882394,0.1395371242630287,-9.404943802234905
3158.33800000019,-1.518905639648438,-3.831130981445312,0.1627197265625,2.113042023713712,-5.852779592870866,-6.090194012464814
3188.3969999999,-2.123916625976562,-2.737808227539062,0.141357421875,2.113042023713712,-5.852779592870866,-6.090194012464814
3218.50699999959,-1.57855224609375,-2.142227172851562,-0.348480224609375,1.215148207445791,-4.589577839347903,-4.583642185910335
3248.59299999935,-0.442108154296875,0.5347137451171875,-0.2247314453125,0.1906112276485683,0.03476304065713132,-0.8468066633930404
3278.67699999933,0.09521484375,0.579376220703125,-0.1685943603515625,-1.581115010754518,3.542290006990352,5.97132062141582
3308.73999999949,0.6832733154296875,-0.4809417724609375,-0.004608154296875,-2.752568467879269,-0.3363159666801115,10.80853515788583
3338.82399999948,-0.1512298583984375,-1.01409912109375,0.26788330078125,-0.9735217322717736,-2.389979618097199,11.9815383084489
3368.89799999972,0.3400726318359375,-1.000396728515625,0.5301055908203125,-0.9735217322717736,-2.389979618097199,11.9815383084489
3398.98199999971,2.997039794921875,-1.887222290039062,0.61920166015625,0.130807548525858,2.477439692508165,12.3783727466883
3429.06499999935,5.957855224609375,-2.974746704101562,1.08807373046875,-0.2644827889135133,2.97945115062639,10.14013818329105
3459.16399999987,6.521377563476562,-0.2507171630859375,1.249313354492188,0.4590008738812278,-0.6040512742329386,5.965103738167138
3489.24600000009,3.666168212890625,-1.035934448242188,0.0591278076171875,1.643281979028564,-7.271670808984298,-1.356675245675327
3519.32699999998,6.102096557617188,-6.550994873046875,-1.522415161132812,2.239077453882257,3.054068130680448,-7.583199936450714
3549.4149999995,0.3291473388671875,-0.4648895263671875,-0.21026611328125,0.2737774874339988,1.2081179948002,-8.437083950440639
3579.49499999995,2.413833618164062,-0.498687744140625,-0.127288818359375,0.4057807952893024,0.06694121716023173,-5.869813171203013
3609.5749999995,1.532150268554688,-2.705337524414062,0.1686553955078125,0.4057807952893024,0.06694121716023173,-5.869813171203013
3639.65399999961,0.9760589599609375,-5.121673583984375,-0.2740478515625,-0.09089262273996837,-1.299519281308373,-3.708729851953144
3669.73599999983,-3.410308837890625,-4.339736938476562,0.6847381591796875,-0.6585693775401688,-5.152514700039981,-0.7964545429790213
3699.81399999961,-1.367752075195312,-2.670730590820312,1.150741577148438,-1.16743527967204,-0.7643370865487746,0.4005886964280839
3729.88799999985,-0.5052947998046875,-2.644577026367188,0.640228271484375,-0.7602422100566688,8.216111887416842,-8.386624504634691
3759.96599999962,0.471771240234375,-4.573501586914062,0.366302490234375,1.755588281145533,0.05120992460113367,-8.636780019515795
3790.04499999974,-1.71136474609375,-3.123855590820312,0.072479248046875,1.637990277942577,-5.367034989006954,-5.971192789683496
3820.12299999951,-2.150772094726562,-2.635910034179688,0.4249420166015625,1.637990277942577,-5.367034989006954,-5.971192789683496
3850.19999999986,-1.65234375,-1.917739868164062,0.21527099609375,0.8949853780414458,-4.0335524143168,-3.878970294107587
3880.27599999987,-0.1789093017578125,-0.0601654052734375,0.2644195556640625,0.7028636054225846,-0.03280668252035911,-1.199327698990175
3910.34799999943,0.316497802734375,0.4405670166015625,0.1761322021484375,-1.166217948737765,1.700686150009113,5.752723032819936
3940.40599999971,0.4388885498046875,-0.69500732421875,0.5084686279296875,-2.00406813506876,-0.5578952304324483,10.65377780167689
3970.49499999957,-0.1752777099609375,-1.018020629882812,0.8020477294921875,-0.9274064348359615,2.571572050714214,11.65256441057803
4000.54499999987,1.54638671875,-1.021896362304688,1.052490234375,-0.9620272626908826,4.11945693633505,11.60320005661232
4030.64899999936,5.06756591796875,-1.449920654296875,1.174514770507812,-0.9620272626908826,4.11945693633505,11.60320005661232
4060.71499999962,6.607757568359375,-2.413894653320312,1.651947021484375,-0.5366123122649711,0.5134891497842491,10.12467906579536
4090.78399999999,5.949691772460938,-0.4802703857421875,0.8944549560546875,1.186661704845758,-1.534229793447564,4.655448465749924
4120.87799999972,2.722015380859375,-1.05792236328125,-0.5462493896484375,1.959476165776473,-6.446263443898371,-2.060424884792581
4150.93699999943,4.79205322265625,-6.02740478515625,-1.738754272460938,2.333927267685974,1.627738439326317,-6.891686190961829
4181.01799999931,1.806289672851562,-0.7891693115234375,-0.00408935546875,2.333927267685974,1.627738439326317,-6.891686190961829
4211.11399999972,2.20147705078125,-0.9307403564453125,0.50146484375,0.7362553844344342,-0.5744225418413711,-5.236782443252268
4241.19599999995,1.4041748046875,-3.155792236328125,0.565673828125,0.7362553844344342,-0.5744225418413711,-5.236782443252268
4271.26599999974,0.7881011962890625,-5.357666015625,-0.0311279296875,-0.3029667982457033,-2.110189245554019,-3.055405303863777
4301.34999999973,-5.22259521484375,-3.649627685546875,1.397476196289062,-1.233831880389351,-5.658783753792917,-0.3737136726036583
4331.42599999974,-0.1650848388671875,-3.028976440429688,1.809051513671875,-1.168717059104695,-0.9371312338724949,0.8395423588876313
4361.50399999951,-0.674285888671875,-3.595199584960938,0.69329833984375,-0.4895944695357311,7.375121834160643,-8.821415379994335
4391.5820000002,-0.0939178466796875,-5.263015747070312,0.4792633056640625,2.295310632931499,1.87344913834808,-9.492055801491396
4421.66399999951,-1.899810791015625,-2.637557983398438,-0.0262908935546875,2.256397322031587,-5.308450238715173,-6.278932771550948
4451.71799999935,-1.84747314453125,-2.7352294921875,0.00604248046875,2.256397322031587,-5.308450238715173,-6.278932771550948
4481.81999999997,-1.482345581054688,-1.483444213867188,-0.0781707763671875,1.219163455421303,-4.529682281167585,-3.671994740508808
4511.89699999941,-0.2679443359375,0.733551025390625,-0.068878173828125,-0.3181369627631216,1.030355187830719,0.4577435955306015
4541.97500000009,0.36962890625,0.0037841796875,0.337615966796875,-2.199497021129281,3.7354490808538,6.743071682123266
4572.05199999953,0.4011993408203125,-0.740020751953125,0.2918243408203125,-2.971822259367749,-0.2225808786383155,11.61903308192506
4602.12999999931,0.0425262451171875,-0.7903594970703125,0.4565887451171875,-0.6349945429385693,-1.400013665042513,12.36045499887425
4662.14633333311,6.137725830078125,-2.733367919921875,1.5596923828125,0.006165750555751452,3.856414384939052,12.37837487721717
4692.22133333278,7.140548706054688,-2.074295043945312,1.5535888671875,-0.8754018229655482,4.240337818213747,9.290111491823996
4722.29533333302,5.370269775390625,-0.3326568603515625,0.4977264404296875,0.5961520721236546,-2.925594576533936,2.429668175190432
4752.36133333419,7.258941650390625,-1.206527709960938,4.397140502929688,1.464421949689971,-4.602666743473425,-3.328707150727087
4782.44733333304,0.9873046875,-0.221893310546875,-0.0966033935546875,0.972425575167097,-0.7225526216776494,-8.215043427187501
4812.52433333339,2.14837646484375,0.1288299560546875,0.99200439453125,0.6240699898309552,1.737232709648271,-7.108046191609829
4842.60133333282,1.890060424804688,-2.750030517578125,0.22021484375,0.6906633981528226,-0.7450118580986147,-4.65009391406221
4872.68133333419,1.183135986328125,-3.683837890625,0.4672698974609375,0.6906633981528226,-0.7450118580986147,-4.65009391406221
4902.75133333307,-0.948883056640625,-4.56756591796875,0.040008544921875,-0.2508881504969858,-2.208026859784697,-2.323519101513727
4932.83133333262,-1.98345947265625,-1.452194213867188,1.85443115234375,-1.762733542350215,-7.192614872025295,2.123770301848988
4962.90133333332,0.1211395263671875,-1.2081298828125,1.766281127929688,-1.438024963281214,5.229043297124498,-1.79216706503388
4992.99033333318,-0.010284423828125,-2.973419189453125,-0.212554931640625,1.263652094063295,7.70014306834162,-8.919600803063377
5023.06233333275,0.374114990234375,-5.046112060546875,-0.186126708984375,3.276058320188984,-1.022911386267838,-8.368979464516261
5053.15333333419,-1.81329345703125,-3.4344482421875,0.5375823974609375,2.209238598080682,-6.370564687809522,-6.729719657682044
5083.22033333297,-1.846939086914062,-2.65997314453125,0.5090179443359375,2.209238598080682,-6.370564687809522,-6.729719657682044
5113.29933333309,-1.679489135742188,-1.809967041015625,-0.180511474609375,1.481645677723949,-4.809822326761893,-5.802225871162328
5143.38133333331,-0.169464111328125,0.525970458984375,0.0062408447265625,1.041425149533851,-0.1433835278254302,-3.672025633177453
5173.47633333338,0.1228790283203125,1.586318969726562,-0.41766357421875,-0.4913162031804674,3.466967555563532,3.156899438271132
5203.55333333282,-0.03851318359375,0.0713043212890625,0.5323028564453125,-2.473916596702098,1.063874265942674,9.054668876701143
5233.63033333317,-0.415008544921875,-1.154571533203125,0.77545166015625,-2.367514522721835,0.6728364641319412,11.42740905411393
5263.71133333305,-0.1827392578125,-0.609100341796875,0.9382781982421875,-1.089547405167147,3.127233954256522,11.26748303486137
5293.79133333259,1.8175048828125,-0.53204345703125,0.57269287109375,-1.089547405167147,3.127233954256522,11.26748303486137
5323.8673333326,5.339035034179688,-1.9866943359375,1.675186157226562,-0.4123233831393001,2.627399630329436,8.435472737981142
5353.94433333295,7.804412841796875,-2.128143310546875,1.966445922851562,1.31180151393971,-5.081975019614834,1.494085835807927
5384.01933333262,4.295394897460938,-0.13507080078125,0.3710479736328125,1.31180151393971,-5.081975019614834,1.494085835807927
5414.09233333343,7.885848999023438,-1.240753173828125,3.255386352539062,1.652393452066052,-3.378137817403939,-3.081338101294532
5444.17433333274,1.424774169921875,-0.9748382568359375,0.681488037109375,1.301034619968628,-0.4352651843497876,-5.931119672128855
5474.25033333275,2.392730712890625,-0.776611328125,0.8924713134765625,1.082472717731351,0.2619988585647964,-5.157292411035583
5504.32833333343,1.1802978515625,-3.260238647460938,0.3946533203125,-0.02987587374072691,-1.858704280656747,-2.956843842448816
5534.4033333331,0.4318695068359375,-5.35894775390625,-0.4242706298828125,-0.02987587374072691,-1.858704280656747,-2.956843842448816
5564.48033333345,-3.782562255859375,-3.547927856445312,0.4960784912109375,-0.594889201134739,-4.273667279256088,-1.264908307149485
5594.55733333289,-0.010955810546875,-2.30950927734375,1.754974365234375,-0.8957214757667438,-5.064364067958358,1.882793371664841
5624.63233333347,-1.05767822265625,-2.75836181640625,-0.0240325927734375,-0.8629078690275505,7.470164727143391,-7.78506222075654
5654.7093333329,0.4651947021484375,-4.304595947265625,0.4058074951171875,1.687617485907877,2.700446676920893,-9.594624787714709
5684.76033333263,-1.174652099609375,-3.297088623046875,0.0952301025390625,2.182122025545387,-4.623175214395907,-6.706760013292254
5714.86533333336,-1.688201904296875,-2.329010009765625,0.3895721435546875,2.182122025545387,-4.623175214395907,-6.706760013292254
5744.94033333303,-1.698715209960938,-2.0606689453125,-0.0185089111328125,1.908276094871373,-5.624548817979948,-4.952153373324523
5775.02433333302,-0.3487396240234375,0.13763427734375,-0.082000732421875,1.574457108029319,-2.210862327397304,-2.730195784193732
5805.10633333233,0.0308990478515625,0.7826385498046875,-0.368682861328125,0.3884774387387305,2.056170751267288,3.552886458651669
5835.18433333302,0.529296875,-0.67926025390625,0.1372222900390625,-1.157405282374584,1.889505602876276,9.185426890430726
5865.25633333258,-0.0951690673828125,-1.234329223632812,0.251739501953125,-1.604045360372318,-0.1956981316467287,11.84787105754451
5895.34333333268,0.0993804931640625,-0.9721527099609375,0.6436309814453125,-1.062133890170307,3.244864448024777,11.5844524678026
5925.4113333327,2.121627807617188,-1.679962158203125,0.7025604248046875,-1.062133890170307,3.244864448024777,11.5844524678026
5955.50033333257,5.200592041015625,-3.100540161132812,1.753204345703125,-1.000487569889371,3.411852637856015,11.19394676557766
5985.57533333314,4.959793090820312,-0.8411865234375,1.163742065429688,-0.6946149965782822,1.293651272162493,9.127747082277354
6015.63533333319,5.470443725585938,-0.7100830078125,0.019012451171875,0.9689152625342635,-4.654320350712166,2.242000539494728
6045.7343333328,1.517868041992188,-1.010421752929688,-1.00030517578125,1.065620500669439,-5.935361022480915,-3.224382875029304
6075.79633333262,2.471832275390625,-7.205368041992188,-2.615371704101562,1.548411658884454,7.269252658714505,-8.033607055810366
6105.87833333284,1.665847778320312,0.3321380615234375,-0.956939697265625,1.529374850780349,0.6888734875841803,-7.242570447753002
6135.9583333342,1.651580810546875,-2.125717163085938,0.9746551513671875,1.529374850780349,0.6888734875841803,-7.242570447753002
6166.02633333332,1.204437255859375,-3.649063110351562,0.381072998046875,0.2928941903708056,-2.257249533580413,-3.028561172707996
6196.12433333259,-0.63226318359375,-4.568344116210938,-0.11968994140625,-0.2715835753279915,-6.115961161275767,-0.4134746676785413
6226.19133333319,-3.2916259765625,-1.904937744140625,0.656402587890625,-0.2715835753279915,-6.115961161275767,-0.4134746676785413
6256.26633333286,0.1101226806640625,-3.084945678710938,1.997238159179688,-0.9829405340990569,-1.620536985422633,1.326819079326667
6286.34433333264,-0.714324951171875,-2.066497802734375,0.2703094482421875,-0.8459270212849872,6.891518411813155,-7.306140635605411
6316.42033333264,0.4872894287109375,-4.048538208007812,0.1228179931640625,1.538193642414037,2.961912903267673,-8.442512538006659
6346.49133333278,-0.99176025390625,-3.742584228515625,0.2879180908203125,2.351622375232897,-3.811041310499045,-7.175041737256298
6376.57533333277,-1.45086669921875,-2.671615600585938,0.1334991455078125,2.016504032094994,-4.993268319497603,-6.157043084251329
6406.64933333301,-1.376449584960938,-2.571853637695312,0.1339874267578125,1.44133340830342,-2.479192318821545,-4.224319703205247
6436.72633333335,-0.8668670654296875,-0.7813568115234375,0.09759521484375,1.44133340830342,-2.479192318821545,-4.224319703205247
6466.80033333269,0.0587310791015625,1.367111206054688,-0.2886810302734375,0.4381043803879211,1.349523592884028,0.6096995725888876
6496.87433333293,0.0849609375,0.3557891845703125,0.1284942626953125,-1.578449452819457,1.731826758951519,7.039545427315247
6526.93733333308,-0.4539947509765625,-0.466644287109375,0.5407562255859375,-2.959494752997881,1.107898715606665,11.5010742203944
6557.0393333328,-0.37335205078125,-1.34906005859375,0.789306640625,-1.981793189395228,0.877276954689073,11.58573504618358
6587.10433333272,0.819610595703125,-0.9444732666015625,0.9447021484375,-1.981793189395228,0.877276954689073,11.58573504618358
6617.1823333334,3.671310424804688,-1.600555419921875,0.94329833984375,-1.056090645024699,3.908062133223394,12.03421776533954
6647.28533333346,6.106430053710938,-3.270248413085938,1.729354858398438,-0.9567320994954781,1.862486768352986,10.19396279945042
6677.33733333262,5.66888427734375,-0.48052978515625,1.453353881835938,0.3578982241541137,0.03175207072868774,5.356258241339839
6707.43933333233,3.01708984375,-0.6582489013671875,-0.026397705078125,1.58764295121852,-5.651658732612518,-1.5462222741523
6737.49833333295,-0.1837158203125,-7.959228515625,-4.392730712890625,2.049636685532779,6.312390596957831,-11.02926327535378
6767.58833333315,1.608184814453125,0.792999267578125,-0.0651702880859375,1.633620030593757,1.653060573919117,-8.316395881424866
6797.67833333335,1.56884765625,-1.89166259765625,1.058975219726562,1.633620030593757,1.653060573919117,-8.316395881424866
6827.75933333232,1.405532836914062,-3.425643920898438,0.5670928955078125,0.2579295484191553,-2.508291881104515,-2.526520153501671
6857.8173333326,-0.490325927734375,-4.640350341796875,-0.032684326171875,0.2579295484191553,-2.508291881104515,-2.526520153501671
6887.88833333274,-3.206954956054688,-1.9443359375,0.4794158935546875,-0.2966620306810497,-7.021398647647446,0.5412712462759557
6917.96833333319,0.1966552734375,-3.126358032226562,2.32794189453125,-1.244277597132968,-0.32540685990682,0.1426165374314873
6948.05933333282,-0.3748626708984375,-2.070388793945312,0.1278839111328125,-0.1026273094511845,6.30502482601489,-8.224687266126896
6978.13333333306,0.934814453125,-4.24871826171875,0.1910552978515625,2.175953611828545,0.3862433129002631,-8.14020220896966
7008.21933333282,-1.680465698242188,-3.587600708007812,0.4587249755859375,1.832444713360239,-5.15450940769645,-6.799903539785556
7038.27933333287,-1.76373291015625,-2.197052001953125,0.3234100341796875,1.606148458685154,-4.652950420647429,-6.276348972661353
7068.36033333275,-1.6651611328125,-2.508834838867188,0.175689697265625,1.606148458685154,-4.652950420647429,-6.276348972661353
7098.42833333278,-1.084808349609375,-1.4666748046875,0.16705322265625,0.9564391517755694,-1.529247817996352,-4.53872211517175
7128.51733333264,0.199462890625,1.04022216796875,-0.0908050537109375,-0.375249517604307,3.132358142509943,0.04782850896506007
7158.61033333294,0.5290374755859375,0.595306396484375,0.1093597412109375,-2.375617190338402,2.293935909176799,6.612214598801132
7188.68433333319,-0.0212554931640625,-0.1751251220703125,0.35784912109375,-2.82853220849658,-1.224977668713164,11.62641003814458
7218.7633333333,-0.5235137939453125,-1.349807739257812,0.4846038818359375,-2.82853220849658,-1.224977668713164,11.62641003814458
7248.84233333341,0.2822418212890625,-1.401885986328125,0.75732421875,-1.484243591367321,0.3596543125769119,11.9614580738297
7278.91033333344,4.50872802734375,-1.070526123046875,1.920745849609375,-1.09974198581997,5.680464015595033,12.00255810630068
7308.99433333343,6.072235107421875,-2.101730346679688,2.773025512695312,-1.613169616583038,5.880782731733049,8.967302279244439
7339.0723333323,6.905227661132812,-0.1732330322265625,1.47943115234375,1.080059094835413,-1.461156115245206,4.528447107054006
7369.15433333343,4.14874267578125,0.692474365234375,2.882476806640625,2.498915423538563,-7.222959462117876,-1.774383540538767
7399.23333333263,-1.6019287109375,-5.1612548828125,-2.168304443359375,1.623244088670699,0.5996005994191982,-9.010931249486553
7429.30133333266,1.002365112304688,-0.261444091796875,1.11279296875,0.798866035346088,2.783537302931365,-6.805328931558266
7459.39833333341,1.992156982421875,-1.773406982421875,0.6063385009765625,0.5453253764033833,-1.501748016580194,-3.554444407889365
7489.4793333342,1.054367065429688,-4.138931274414062,0.3396759033203125,0.5453253764033833,-1.501748016580194,-3.554444407889365
7519.56033333317,-0.8074493408203125,-4.755340576171875,-0.272064208984375,-0.1386841137658763,-2.222016444990883,-2.128657735081501
7549.6393333342,-4.314483642578125,-1.572540283203125,1.092178344726562,-0.6637934343344681,-7.513637103513409,1.670838239459832
7579.69133333336,0.1544647216796875,-2.297637939453125,1.847000122070312,-0.9497769879926271,4.728842522231417,-3.734957195000462
7609.79933333419,-0.39556884765625,-4.020095825195312,0.13360595703125,1.036578196349907,4.739115399820289,-9.887288082019005
7639.8753333342,-0.6915740966796875,-4.659988403320312,0.0614013671875,2.375146609773785,-0.9061000808508916,-8.230728380743633
7669.96033333271,-1.702407836914062,-2.375885009765625,0.0229339599609375,1.9211996166932,-6.270051129315534,-6.076286985252421
7700.04033333316,-1.7940673828125,-2.716262817382812,0.14996337890625,1.9211996166932,-6.270051129315534,-6.076286985252421
7730.12233333338,-1.09796142578125,-0.6009521484375,0.16241455078125,1.321569189869793,-3.288083557775128,-3.017343405564364
7760.20033333316,-0.061614990234375,0.9407196044921875,-0.25543212890625,0.3727730441066423,1.68492929110355,2.673991633600373
7790.28233333338,0.3664398193359375,-0.32720947265625,0.0438079833984375,-1.138914155977837,2.314038780665263,8.207000680695462
7820.36133333258,0.05877685546875,-1.064865112304688,0.2704925537109375,-1.558208629586528,-0.6642158116833548,12.01309783263078
7850.44533333257,0.0399322509765625,-0.82122802734375,0.3005828857421875,-0.2563955676312696,0.5196157518719764,11.87728087809448
7880.52833333313,2.012985229492188,-0.9973907470703125,0.54791259765625,-0.4790323726524768,4.861866886048658,11.09090480194475
7910.60933333301,6.1552734375,-2.664047241210938,1.993759155273438,-0.4790323726524768,4.861866886048658,11.09090480194475
7940.66233333342,7.10784912109375,-0.9548492431640625,1.879623413085938,-0.9376361692151739,5.215269427966608,6.909801545328766
7970.77133333278,4.245513916015625,-0.3135528564453125,0.6513824462890625,1.238165908747346,-4.61285013884967,0.5359755504483331
8000.83433333293,7.042755126953125,-0.3625030517578125,3.884689331054688,1.578332007415385,-4.544285991321144,-3.003239570747414
8030.93533333231,1.516799926757812,-1.818679809570312,-0.1724700927734375,1.354605969508335,0.1301521445815895,-7.110451558706388
8061.00433333268,1.620330810546875,-0.3968658447265625,0.978271484375,0.4026651631300187,1.582630083098664,-6.462091142888929
8091.0693333326,1.515716552734375,-2.539993286132812,0.635498046875,0.1407781573310056,-1.125020977203111,-4.020190802495654
8121.15333333259,1.19171142578125,-4.710891723632812,-0.075225830078125,0.1407781573310056,-1.125020977203111,-4.020190802495654
8151.22833333317,-3.225830078125,-3.80792236328125,-0.5082855224609375,0.4221632307349248,-4.237820332035295,-1.495904242200233
8181.30933333305,-0.718231201171875,-2.374221801757812,2.174514770507812,-1.101931104236015,-9.367573260554478,2.518575943969964
8211.39933333234,-0.51898193359375,-1.64739990234375,0.061187744140625,-1.271234113686751,9.512402352219603,-6.114448485776601
8241.47533333417,0.3484344482421875,-3.394378662109375,0.2075347900390625,1.218703527501047,2.586183217718825,-8.879457378055958
8271.55333333303,-1.022262573242188,-3.717681884765625,0.251983642578125,2.031364204661527,-3.691337545822163,-7.004610080135588
8301.62933333304,-1.654281616210938,-2.210403442382812,0.292449951171875,1.873380961424173,-6.020947030432792,-5.53272462149067
8331.70533333305,-1.471466064453125,-2.697006225585938,0.1295928955078125,1.873380961424173,-6.020947030432792,-5.53272462149067
8361.78333333282,-0.7444000244140625,-0.5278167724609375,0.3181304931640625,1.136877370376144,-2.258577918332144,-3.449243153244619
8391.8583333334,0.367340087890625,1.032333374023438,-0.18804931640625,0.1954632408385837,2.510584063854746,1.281358386886796
8421.93533333284,0.5067138671875,0.0728912353515625,0.175445556640625,-1.601282064425252,1.492843204843296,7.206001517560687
8452.01233333319,-0.326812744140625,-0.592498779296875,0.4088287353515625,-1.969755967584179,-0.8502842191444658,11.27380857508252
8482.08533333309,-0.31427001953125,-0.998809814453125,0.365875244140625,-0.8656152385917251,1.02042772223523,11.06184864918755
8512.1613333331,1.33782958984375,-1.465194702148438,0.870361328125,-0.8656152385917251,1.02042772223523,11.06184864918755
8542.23733333311,5.142715454101562,-2.278656005859375,1.438201904296875,-0.8244062828321659,5.506512724777673,11.84490110029686
8572.31333333311,7.011322021484375,-1.905960083007812,1.826461791992188,-1.303585395660706,4.03600864779018,8.908785173244347
8602.38733333335,5.260589599609375,0.292449951171875,1.305007934570312,0.5981568997922663,-3.054471865901704,3.153902583096467
8632.45933333292,7.2041015625,-0.1089935302734375,4.508834838867188,1.936295745332314,-4.903200211431123,-2.179987768247797
8662.53233333282,-0.7077178955078125,-3.461654663085938,-0.11328125,0.7556194950365093,1.641018824734215,-8.704539892395118
8692.60633333306,2.097274780273438,0.67999267578125,0.2976837158203125,1.101851475719422,3.686961439518945,-6.58702429068229
8722.68433333284,1.518051147460938,-2.753005981445312,0.8735809326171875,0.644866881099493,-0.5024013449018132,-3.995672942552058
8752.75933333342,1.098770141601562,-3.572158813476562,0.41162109375,0.644866881099493,-0.5024013449018132,-3.995672942552058
8782.83133333298,-0.8220062255859375,-4.056167602539062,-0.296142578125,0.3292700413840889,-2.342632874973334,-2.327771370826256
8812.90733333299,-2.486572265625,-2.206329345703125,0.5074005126953125,-0.1013601774045248,-6.07739592553033,0.4388655118274657
8842.9663333327,0.1720733642578125,-2.115264892578125,0.7856903076171875,-0.3183814409511909,1.335492994997054,-1.546070740286274
8873.059333333,-0.3249053955078125,-2.699996948242188,0.103607177734375,0.6203463579948064,4.444723713968532,-7.989047577083378
8903.13633333335,0.1610870361328125,-4.642501831054688,-0.05059814453125,1.905464063076358,-0.334314068488699,-8.125008342318539
8933.21233333336,-1.719772338867188,-2.558456420898438,0.6242523193359375,1.991262591283223,-5.66971656269991,-6.408708611470509
8963.28833333337,-1.35382080078125,-2.22515869140625,0.39324951171875,1.991262591283223,-5.66971656269991,-6.408708611470509
8993.3563333334,-1.651214599609375,-2.083343505859375,0.114715576171875,1.722167473677801,-4.209985504954004,-5.498338950760003
9023.41733333287,-0.629791259765625,-0.2193756103515625,0.1652984619140625,1.289920982423619,-1.046724307470891,-2.931451400403238
9053.51333333419,-0.016998291015625,0.7916259765625,-0.1862030029296875,0.01079219400143711,3.139100201125588,2.587517994057173
9083.57733333287,0.3966217041015625,-0.1290283203125,0.282257080078125,-1.704321364897071,2.102316408739527,7.874731919923945
9113.6623333332,-0.0980682373046875,-0.7917022705078125,0.428192138671875,-1.882209606753895,0.1464565494072726,11.15425714321999
9143.74133333331,-0.1130828857421875,-1.167953491210938,0.396270751953125,-0.891593576077121,0.8967553149019125,11.40761324509916
9173.808333333,1.019485473632812,-1.4383544921875,0.7968597412109375,-0.891593576077121,0.8967553149019125,11.40761324509916
9203.88633333278,4.920684814453125,-1.739410400390625,1.397857666015625,-0.8807521135955174,5.074008439529972,11.27717481070038
9233.96433333346,7.67572021484375,-2.394805908203125,1.694259643554688,-0.6848377332682742,3.743117120580465,8.413601793844975
9264.05733333286,4.609573364257812,0.1208343505859375,0.95648193359375,0.9788592397285104,-3.780258097774928,2.60098373547694
9294.13633333297,6.760818481445312,0.3726043701171875,4.03656005859375,1.880824496670945,-5.335776402028258,-2.132966197093031
9324.22033333296,0.3604583740234375,-3.91448974609375,-0.9600830078125,0.4221203538413745,1.44974367102589,-7.959076362175626
9354.29633333297,1.25360107421875,0.1292266845703125,0.95703125,0.9852849148066536,1.624526667051681,-5.722706544173652
9384.37533333308,1.609176635742188,-2.02642822265625,0.6772918701171875,0.9852849148066536,1.624526667051681,-5.722706544173652
9414.45133333309,1.11724853515625,-3.608551025390625,0.8126068115234375,0.696053369883034,-1.486176247370392,-2.773493989828458
9444.52633333276,-0.611053466796875,-3.852767944335938,-0.217864990234375,0.1040054953153005,-2.181195778118257,-2.156864073134857
9474.60233333277,-2.511642456054688,-1.6715087890625,0.221282958984375,-0.3210975989469628,-5.581870596246992,0.252945708755181
9504.68333333265,0.51104736328125,-2.895553588867188,1.3685302734375,-0.3158740747848813,0.5950021191649584,-3.080939426079348
9534.76233333276,-0.1353759765625,-2.6165771484375,0.0665435791015625,0.721801610250247,2.685550817995753,-8.17010364905685
9564.83533333267,-0.4778900146484375,-4.168411254882812,0.2706298828125,1.512050987889384,-1.513219316659602,-7.447347828188028
9594.91033333234,-1.822265625,-2.765274047851562,0.4185638427734375,1.512050987889384,-1.513219316659602,-7.447347828188028
9624.98433333258,-1.603485107421875,-2.307754516601562,0.2315826416015625,1.84249468436587,-4.402055612247718,-6.734212410441008
9685.03425000017,-0.6080474853515625,-0.774810791015625,0.180633544921875,0.9009442009804982,-0.841281669395562,-3.035897915195056
9715.11224999995,0.370361328125,0.95147705078125,-0.103912353515625,-0.981231849943662,2.502308557083433,2.55078501314171
9745.19125000006,0.571624755859375,-0.0888519287109375,0.3349609375,-2.820920361468916,0.7390764709771551,8.488278428707451
9775.26924999984,0.031982421875,-0.8230438232421875,0.3469085693359375,-2.0738123292763,-1.907259832599399,12.44090696487667
9805.34524999985,-0.2969207763671875,-1.3653564453125,0.2720947265625,-2.0738123292763,-1.907259832599399,12.44090696487667
9835.42424999996,0.8676300048828125,-2.846328735351562,0.96966552734375,-0.7104490871554573,1.268950985684226,12.09707582391646
9865.5042499995,4.610809326171875,-2.95098876953125,1.736953735351562,-1.599490023327737,6.796231573274556,11.55915456797572
9895.58524999939,6.818099975585938,-1.9083251953125,1.921829223632812,-1.360226837305056,3.109936456660348,9.32431819812941
9925.66325000007,4.06243896484375,-0.135589599609375,1.015579223632812,0.3760841522899378,-3.797074095846015,3.437026967008316
9955.74624999972,2.991043090820312,-0.7115478515625,0.0981292724609375,1.216039034830422,-4.90203055108036,-2.440208434152748
9985.81825000019,2.779525756835938,-6.388641357421875,0.3749847412109375,1.798966381612962,5.621310946726629,-8.686180059840112
10015.9042499999,2.5087890625,4.126922607421875,-0.706878662109375,1.798966381612962,5.621310946726629,-8.686180059840112
10045.9872499996,1.512313842773438,-1.985549926757812,1.039306640625,1.773222135987383,2.826067452907712,-7.735606254049333
10076.0682499995,1.397506713867188,-1.37255859375,0.6053466796875,1.140444674656305,0.2510783001988174,-5.084327123489592
10106.15125,0.857177734375,-3.551437377929688,0.475555419921875,0.421835395604736,-0.995681629386214,-2.659358894990932
10136.2042499995,-0.5096893310546875,-3.148895263671875,-0.1078948974609375,-0.1062446811598391,-2.669722053740757,-1.514062473460721
10166.2982500002,-2.162185668945312,-1.878311157226562,-0.3397979736328125,-0.3948104358109389,-5.886743418884865,0.6900330279228009
10196.3812499998,0.78179931640625,-2.651931762695312,1.828048706054688,-0.5495675257037705,1.535822363779431,-0.9279803460508737
10226.4602499999,-0.8900146484375,-1.117919921875,-0.07373046875,-0.5495675257037705,1.535822363779431,-0.9279803460508737
10256.5482499995,0.6300201416015625,-2.899734497070312,-0.10260009765625,0.1720447337929719,5.286778499028544,-6.625536795838144
10286.6382499997,-0.6729736328125,-3.84661865234375,0.1414337158203125,0.8443493646552243,-5.694129227780448,-6.916053582303836
10316.72325,-1.270492553710938,-2.430740356445312,0.6140899658203125,0.8443493646552243,-5.694129227780448,-6.916053582303836
10346.8092499998,-0.9737091064453125,-2.247314453125,0.3697662353515625,0.8353244443531638,-3.765194459701112,-6.809921286541998
10376.8962499998,-0.7918701171875,-1.900405883789062,0.185577392578125,0.7746911905508937,-1.423112326441206,-5.628577115444801
10406.9852499997,-0.241943359375,0.091522216796875,0.1989288330078125,-0.06679021592642424,2.019823662393778,-1.1893562912367
10437.0732499983,0.317626953125,1.3148193359375,-0.1336517333984375,-2.046049673860551,2.781565764776379,4.704636518451469
10467.1612499997,0.4601898193359375,0.6197357177734375,0.282958984375,-2.046049673860551,2.781565764776379,4.704636518451469
10497.2272499999,-0.21368408203125,-0.6304779052734375,0.4564361572265625,-3.370467380832293,-0.8389082602320834,9.930057383861241
10527.3082499998,-0.3851318359375,-1.048187255859375,0.32843017578125,-2.066831651426984,-1.614247131560084,11.25758992404394
10557.3922499998,0.3727264404296875,-1.877716064453125,0.8604888916015625,-0.8593365700057543,3.34942760927234,10.68829556519763
10587.4672499995,3.064361572265625,-2.213714599609375,0.90301513671875,-1.542825145865794,5.381327109312973,10.23561037784152
10617.5492499997,5.273544311523438,-1.28515625,1.803955078125,-1.419952485807827,2.235221729256041,8.031653893466901
10647.6402499993,3.993881225585938,-0.7258148193359375,1.42388916015625,0.6015231354101264,-2.499401184121394,2.772238309374486
10677.7222499995,3.750564575195312,-0.7223663330078125,0.704315185546875,0.6015231354101264,-2.499401184121394,2.772238309374486
10707.8062499995,4.7762451171875,-2.376373291015625,2.712371826171875,1.603485563911183,-5.22843343323487,-2.178402388450873
10737.8872499994,0.267120361328125,-2.24456787109375,-0.0854949951171875,2.315920570291512,3.338191200001078,-8.209775694551325
10767.9782499999,1.330810546875,-0.1267547607421875,0.843231201171875,2.104519109277132,2.785557044302081,-7.352434897466476
10798.0622499999,1.566909790039062,-1.855880737304688,0.514617919921875,1.306206212489453,-0.3780040251197759,-4.331192357750127
10828.1382499999,1.052886962890625,-2.520095825195312,0.57220458984375,0.1955039872032619,-0.3965611979115571,-2.542335601951215
10858.2102499995,0.8049163818359375,-4.201065063476562,-0.3071441650390625,0.09863922571879086,-1.367444003859171,-1.757136909319414
10888.3032499998,-1.94256591796875,-3.118118286132812,-0.2497711181640625,0.3852060116556772,-6.20598825666146,0.7950244254736487
10918.3752499994,-0.93060302734375,-1.150482177734375,0.75665283203125,0.3852060116556772,-6.20598825666146,0.7950244254736487
10948.4532500001,-0.0484771728515625,-1.51739501953125,0.4444732666015625,-0.1960896163269703,-0.6760599543153731,-1.150066409358652
10978.5432499993,-0.2690582275390625,-2.47161865234375,0.0020294189453125,0.1990779493861483,2.881432707757697,-6.360985297368507
11008.6342499999,0.1029052734375,-3.722488403320312,-0.0759735107421875,1.119546849582453,-0.3180669216264526,-7.344926913721324
11038.6942499999,-1.242538452148438,-2.598709106445312,0.4536285400390625,1.041885343770217,-4.252185689271291,-6.492046378830141
11068.79725,-1.274078369140625,-1.930465698242188,0.2849578857421875,0.9925566761631149,-3.329852043679713,-5.691679119577575
11098.8742499994,-0.7657928466796875,-1.634368896484375,0.2646484375,0.8186570506709029,-0.3946314713856857,-3.384520349272423
11128.9512499998,-0.29608154296875,0.2274932861328125,0.1415252685546875,-0.3073293224273621,1.925386372242914,1.529361534974899
11159.0242499997,0.14935302734375,0.97467041015625,0.0799407958984375,-0.3073293224273621,1.925386372242914,1.529361534974899
11189.0942499995,0.4744415283203125,0.1669921875,0.1734771728515625,-1.786484944532087,1.27364747026658,6.875659820153951
11219.1902499999,-0.247711181640625,-0.8272857666015625,0.314849853515625,-2.163231424985128,-1.158309691880775,10.63072760981004
11249.2622499994,-0.3737640380859375,-1.265914916992188,0.480621337890625,-1.137222249737309,0.7016888850657507,10.93282275543096
11279.3322499983,0.7137298583984375,-2.034576416015625,1.086563110351562,-0.9802648561518542,5.522200874127113,11.23950812550674
11309.4152499998,5.09588623046875,-1.533096313476562,1.701919555664062,-0.698003869065408,4.669713421812824,8.829609394036291
11339.4762500002,6.319168090820312,-2.012664794921875,1.599624633789062,0.6452335983815969,-3.198297478468088,4.854495256151318
11369.5662499995,5.223953247070312,-0.145782470703125,0.7688751220703125,0.6452335983815969,-3.198297478468088,4.854495256151318
11399.6422499995,2.321792602539062,0.31207275390625,1.491485595703125,1.808625933202788,-6.085692737590362,-1.881662593465993
11429.7152499994,-0.4367828369140625,-5.545013427734375,-1.268356323242188,2.20179799231111,2.970164974221392,-7.184500752816041
11459.8062499999,1.253921508789062,-0.930908203125,0.2919769287109375,0.9456075429899991,1.080866565277925,-6.734951171327396
11489.8962500001,1.4852294921875,-1.5279541015625,0.4018402099609375,0.4619165026426466,0.2303820764194847,-4.056007123363912
11519.9572499996,1.074859619140625,-2.335662841796875,0.506500244140625,-0.02502173002183948,-0.8552475524680465,-2.637063709293116
11550.0482499983,0.6505584716796875,-3.971908569335938,0.034881591796875,-0.05231779961460663,-3.269588969268963,-1.290420325128008
11580.1262499999,-1.905471801757812,-3.36724853515625,0.0264129638671875,-0.05231779961460663,-3.269588969268963,-1.290420325128008
11610.1962499997,-0.454925537109375,-1.148605346679688,1.599014282226562,-0.4814353429040554,-7.603017050754212,1.607819858585287
11640.2682500002,-0.525787353515625,-1.576202392578125,-0.1738128662109375,-0.8528272716693825,5.612356333877347,-5.412422178200738
11670.3592499998,-0.2821044921875,-3.237701416015625,0.2307281494140625,0.4336361287109862,1.667537783920897,-8.362007841414652
11700.4362500002,-0.82208251953125,-4.010513305664062,0.0648193359375,1.191368842072473,-0.345908140294359,-7.763967854394241
11730.49825,-1.366180419921875,-2.506317138671875,0.3815765380859375,1.407728842720473,-2.474778129314739,-7.062859272130019
11760.5852500001,-1.10406494140625,-2.582244873046875,0.240570068359375,1.247466466222229,-1.835462341191407,-5.246246785134192
11790.6622499995,-0.986602783203125,-1.169403076171875,0.120269775390625,1.247466466222229,-1.835462341191407,-5.246246785134192
11820.7372500001,-0.132537841796875,0.8884124755859375,-0.194000244140625,0.4642915097027793,0.2660274223457592,-0.99955093613399
11850.8132500001,0.0702056884765625,0.51568603515625,-0.058319091796875,-1.501159457979287,1.179554526844664,5.47957538298374
11880.8912499999,-0.290863037109375,-0.5619964599609375,0.2458038330078125,-2.88564369807333,-0.1634182223899873,10.54859465652756
11910.9692499997,-0.4648895263671875,-1.375991821289062,0.49249267578125,-1.884307112428442,0.05270608850154019,11.75891508554925
11941.0492500001,0.8824310302734375,-1.554397583007812,0.82220458984375,-1.028410813918852,3.219160416131659,12.42548300110736
11971.1242499998,3.59130859375,-2.4923095703125,1.049774169921875,-0.6857546596315885,3.128489901026603,10.16577377194415
12001.1992499994,6.696990966796875,-2.392684936523438,1.640899658203125,-0.6857546596315885,3.128489901026603,10.16577377194415
12031.24725,5.841888427734375,-0.0634613037109375,1.048583984375,0.7053440736618845,-0.7885801082678749,5.823270170096134
12061.3492499997,2.1951904296875,-0.361541748046875,-0.473541259765625,1.903982812878056,-6.579480087946314,-0.9541267290010536
12091.4142499996,5.531082153320312,-4.622711181640625,1.224014282226562,3.38955185951991,-1.292998265063205,-3.787280320937249
12121.5012499997,0.260894775390625,-2.635116577148438,-1.6240234375,0.9219890325465223,-0.1610219100411339,-5.07918189626356
12151.5782500001,1.71209716796875,-0.4044342041015625,0.56683349609375,0.6522984321213591,1.861604463083843,-4.878702325195702
12181.6532499997,1.2010498046875,-2.349578857421875,0.649871826171875,-0.08488825974627572,-0.8209369828801197,-2.834842835015632
12211.7222500001,0.877227783203125,-3.8995361328125,0.233612060546875,-0.08488825974627572,-0.8209369828801197,-2.834842835015632
12241.7882499994,-2.068832397460938,-3.747894287109375,-0.11627197265625,-0.1882980059257255,-3.297947640136672,-0.9567579321580518
12271.85525,-1.271728515625,-1.6142578125,1.154342651367188,-0.09317335389751223,-6.488876684500728,1.318333449145347
12301.9402499995,-0.26043701171875,-2.003341674804688,0.349945068359375,-0.6450442476280923,3.05026646822436,-4.754485035103354
12332.0172499998,-0.5341796875,-2.638137817382812,0.515350341796875,0.119818280603755,0.7053209041604007,-7.365462016254708
12362.09125,-1.104766845703125,-2.68231201171875,0.16790771484375,0.9237097009268226,-0.6656946650366757,-6.271403482517075
12392.1802499999,-0.8914794921875,-2.045791625976562,0.212646484375,1.132871976096665,-2.489696092476927,-5.733133352473531
12422.2552499996,-0.8726043701171875,-1.87713623046875,0.1746978759765625,1.132871976096665,-2.489696092476927,-5.733133352473531
12452.3252499994,-0.833251953125,-1.77105712890625,0.2594451904296875,0.7652324413072593,-2.935637357004624,-4.661391576038544
12482.4062500002,-0.17431640625,-0.716949462890625,0.2242279052734375,0.516647925153192,-0.3843615232740131,-3.706547391439824
12512.4782499997,0.1885986328125,0.479736328125,-0.022491455078125,-0.5112757966022842,1.53282417702422,0.578824480807163
12542.5532499994,0.526092529296875,0.6809234619140625,0.02935791015625,-1.719849724581106,0.03843953454198571,5.795048652024565
12572.6242499995,0.10540771484375,-0.3036956787109375,-0.00592041015625,-1.515386863470817,-1.274550281876117,9.890687340834383
12602.6952499997,-0.0727996826171875,-1.052597045898438,0.27398681640625,-1.020458881219984,2.649866856233672,10.26312509295978
12632.7492499995,0.4117431640625,-1.469711303710938,0.7572479248046875,-1.020458881219984,2.649866856233672,10.26312509295978
12662.84825,2.01654052734375,-1.84893798828125,0.51885986328125,-1.245951660194192,4.083961526378147,10.39837426155167
12692.9202499996,3.765640258789062,-1.988876342773438,0.9934844970703125,-1.030204186596911,0.7213813634302326,9.716830858551829
12722.9952500002,5.76580810546875,-1.836257934570312,1.164077758789062,0.2130257229632203,-0.2485986309078447,7.444026333676481
12753.0712500002,3.688552856445312,-0.221405029296875,0.7045135498046875,0.7923578022741524,-4.199830339085314,1.720002323711567
12783.14125,2.33648681640625,-0.652374267578125,-0.14129638671875,1.155126948062021,-5.162440834054924,-2.404959366596677
12813.2242499996,2.585678100585938,-6.615219116210938,-2.382247924804688,0.5678373434139321,4.684003944222189,-9.593326230367186
12843.3052499995,0.1580047607421875,-0.374359130859375,0.512969970703125,0.5678373434139321,4.684003944222189,-9.593326230367186
12873.3832500002,1.94403076171875,-1.067672729492188,0.23260498046875,1.250802608119772,1.899490859067419,-7.607077838784365
12903.4592500002,1.170150756835938,-1.340667724609375,0.71148681640625,0.7504343203941251,-0.5170620467026994,-4.376180072780399
12933.5082499983,1.167984008789062,-2.439361572265625,0.4279327392578125,-0.08799856558337926,-0.816137966595797,-2.645253994909545
12963.6112499993,0.5526580810546875,-3.824111938476562,0.20367431640625,-0.7572749159701025,-1.70721835153086,-1.675346172237009
12993.68925,-1.809066772460938,-2.7725830078125,0.259857177734375,-0.4988881027917806,-5.009774591933914,0.4280461535829099
13023.76525,-0.8088836669921875,-1.420318603515625,1.113876342773438,-0.7900499068734897,-3.452881297609776,1.889519451313945
13053.83325,-0.1514129638671875,-0.9695892333984375,1.165557861328125,-0.7900499068734897,-3.452881297609776,1.889519451313945
13083.9142499999,-0.273956298828125,-2.193161010742188,-0.0607452392578125,-1.068805641333174,6.197118332334842,-5.859896091935776
13113.9872499998,0.0818023681640625,-4.185806274414062,0.16552734375,0.9516507881356069,1.726472473579914,-7.973749847149745
13144.0632499998,-1.204498291015625,-2.790390014648438,0.323455810546875,1.317245814156158,-2.137645637444409,-7.032640383240889
13174.1312499998,-1.046630859375,-2.405242919921875,0.2679443359375,1.420023592208933,-2.725690514577645,-6.685105850468819
13204.22125,-0.638214111328125,-1.901458740234375,0.2099151611328125,1.235196217815798,-1.231048078101891,-4.575715553241824
13234.2972500001,-0.3736114501953125,0.156890869140625,-0.12298583984375,0.2707609248672661,0.6687051023329013,0.2642700023424159
13264.35425,-0.0446319580078125,0.924560546875,-0.1754913330078125,0.2707609248672661,0.6687051023329013,0.2642700023424159
13294.4362499993,0.26324462890625,0.0941619873046875,-0.0459442138671875,-1.322258149643797,1.231860342234365,5.820500482562452
13324.5112499999,-0.242950439453125,-0.7802734375,0.4039459228515625,-2.235875268987546,0.05450904855952383,10.08561688419051
13354.5892499997,-0.098114013671875,-0.860870361328125,0.48834228515625,-1.181608622993442,0.1517610336664924,10.55876154030504
13384.6842499997,0.7174224853515625,-1.332855224609375,0.6385498046875,-0.5112960366265689,3.813863195990093,10.54425796500847
13414.7612500001,3.564834594726562,-1.643936157226562,1.214889526367188,-0.463239827388307,2.603589904919692,9.400487801098985
13444.8382499995,5.553024291992188,-2.16107177734375,1.15179443359375,-0.115548967060249,-0.06109477961918078,7.087658095568618
13474.9222499995,4.133926391601562,-0.6480560302734375,0.835205078125,-0.115548967060249,-0.06109477961918078,7.087658095568618
13505.0032499994,3.100936889648438,-0.7686920166015625,-0.051605224609375,1.116779558893752,-5.059450003114944,0.9544020998577677
13535.0832499998,6.029998779296875,-2.291183471679688,1.73577880859375,1.247202280642093,-4.338611924547088,-3.223369009602311
13565.1632499994,0.1582489013671875,-1.936767578125,0.7348480224609375,0.7499994261881151,3.058194965105635,-9.250409086293095
13595.2492500001,1.775741577148438,-0.2066192626953125,0.10931396484375,1.129666062776427,2.999660548558456,-6.506867935560868
13625.3272499998,1.17486572265625,-1.513168334960938,0.8034210205078125,0.9104197281390001,-1.358485662584363,-3.954170772756481
13655.40925,0.9876556396484375,-2.335906982421875,0.452423095703125,0.1692598662410761,-1.718553564078564,-2.422406800162222
13685.4902499999,0.860809326171875,-3.89666748046875,0.1317596435546875,0.1692598662410761,-1.718553564078564,-2.422406800162222
13715.5702499995,-1.698654174804688,-3.070770263671875,0.4117889404296875,-0.9540423067944981,-3.119821844310613,-1.776711942279823
13745.65325,-0.924224853515625,-1.46630859375,0.88336181640625,-1.067033041311617,-5.6988936229706,1.105552737002414
13775.7282499997,0.0129547119140625,-1.5889892578125,1.264739990234375,-1.684286137700296,4.045874061732269,-2.782836891564674
13805.8072499998,0.0698089599609375,-2.210205078125,0.132598876953125,0.2230975318897909,4.94906730225334,-7.459376794199698
13835.8792499994,0.0896759033203125,-3.880569458007812,-0.018829345703125,1.699718889901197,-0.5181321048286932,-7.044062148524021
13865.9552499994,-1.137725830078125,-2.49334716796875,0.3699951171875,1.610509118654049,-4.194074981653544,-6.340977500730959
13896.0332500001,-0.968505859375,-2.543670654296875,0.2947845458984375,1.610509118654049,-4.194074981653544,-6.340977500730959
13926.1072499994,-0.8054656982421875,-2.025497436523438,0.09521484375,1.562831610922797,-3.021700603423843,-5.526179636795691
13956.1852500001,-0.1759490966796875,0.2934417724609375,-0.1008453369140625,0.6016038291911557,-0.1252066544373123,-2.400251430421635
13986.2352499995,0.474853515625,0.9413909912109375,-0.4152679443359375,-0.4852428643145417,2.453580432302144,2.417494599531571
14016.3382499995,0.2876129150390625,-0.0198211669921875,-0.2493896484375,-2.021831685855697,-0.1455827662536176,8.378543408622955
14046.4152499999,-0.361572265625,-1.076736450195312,0.0155029296875,-1.843321063252122,-1.2611836100489,11.18679777594745
14076.4932499997,-0.048797607421875,-1.403091430664062,0.24468994140625,-0.940732093982391,2.317419929985227,11.035046595977
14106.5612499997,1.030441284179688,-1.997406005859375,0.604248046875,-0.940732093982391,2.317419929985227,11.035046595977
14136.6252500002,4.751373291015625,-2.205780029296875,1.447799682617188,-1.289967854058804,3.711974913741405,11.06197861144875
14166.7062500001,5.29632568359375,-1.721694946289062,1.3885498046875,0.2047627330490314,-2.538341126632206,4.814994185598827
14196.7752499995,4.45819091796875,-0.3514251708984375,0.690277099609375,0.2047627330490314,-2.538341126632206,4.814994185598827
14226.8592499995,2.561187744140625,-0.5939788818359375,0.287139892578125,1.112568568578119,-4.964695264162143,-1.151472558414214
14256.9482499994,5.375473022460938,-4.360198974609375,0.33331298828125,3.129529865432279,-0.7652777150457907,-5.298018104093114
14287.0322499994,0.4548492431640625,-0.7900238037109375,-0.07977294921875,1.31732597530497,-0.1717595092402244,-6.088190782692856
14317.1082499994,1.787124633789062,-0.71142578125,0.6030120849609375,1.31732597530497,-0.1717595092402244,-6.088190782692856
14347.1762499994,1.254913330078125,-1.43951416015625,0.652984619140625,1.00136561410077,0.6528912517800107,-5.310587159173852
14377.2572500002,1.061630249023438,-2.428848266601562,0.6458740234375,0.6383732954135528,-1.218183412140154,-3.004679275632711
14407.3342499996,0.3102569580078125,-3.61688232421875,0.1304779052734375,-0.4104357345586519,-1.870729784559,-2.127632151745711
14437.4092500002,-1.528961181640625,-2.829635620117188,0.0935821533203125,-0.8827071401517446,-3.72481587756944,-0.2893268860906445
14467.4852499993,-0.565887451171875,-1.657455444335938,1.347015380859375,-1.018469233569586,-4.58182644267912,2.512744686447127
14497.5602499999,-0.434112548828125,-1.014968872070312,0.4461822509765625,-0.8159115979031402,7.020838318554094,-4.746537097146121
14527.6342500001,0.08978271484375,-2.438522338867188,-0.1773681640625,-0.8159115979031402,7.020838318554094,-4.746537097146121
14557.7052499993,-0.2387237548828125,-4.1883544921875,0.03472900390625,1.325924523516509,1.752384498354167,-7.920937764836819
14587.7772499998,-1.600997924804688,-2.272842407226562,0.481109619140625,1.446762262185546,-3.817742356433902,-6.554484723219266
14617.8512500001,-1.162872314453125,-2.408355712890625,0.243072509765625,1.43386244249742,-4.322540546316787,-6.385224856978191
14677.8870833332,-0.28839111328125,0.31756591796875,-0.0115814208984375,0.3277685511615022,1.286002407195676,-0.9430602294073382
14707.9640833326,0.3421630859375,0.9318389892578125,-0.184844970703125,-1.467045429679808,2.553968289592681,4.520902371685812
14738.0420833333,0.432342529296875,0.083526611328125,0.072174072265625,-2.663219146991002,-0.5832767535175575,9.380991331390733
14768.1210833334,-0.245513916015625,-0.693695068359375,0.289276123046875,-2.663219146991002,-0.5832767535175575,9.380991331390733
14798.2030833327,-0.077423095703125,-0.9494476318359375,0.381134033203125,-1.52923503482312,-1.054520445245989,10.75538272358559
14828.2590833342,1.286163330078125,-1.617889404296875,0.74273681640625,-0.9048151056249284,3.927931179168148,10.57565450373163
14858.345083333,5.481735229492188,-1.637039184570312,1.172210693359375,-1.492236270430867,4.676841106154312,9.291126688831534
14888.4260833329,5.522018432617188,-1.409652709960938,1.993667602539062,-1.346374671211118,-0.5581974992161723,6.297087540702018
14918.5070833328,4.596343994140625,-0.0932464599609375,0.84478759765625,0.8071958706036378,-2.708745885825906,-0.6405632127779249
14948.5850833335,3.621337890625,0.279754638671875,2.2535400390625,1.997966034063061,-1.346457761837129,-4.381572441355591
14978.649083333,-1.553466796875,-3.413223266601562,-1.102645874023438,1.997966034063061,-1.346457761837129,-4.381572441355591
15008.7370833335,1.766647338867188,0.3814849853515625,0.3123321533203125,1.559642475517427,-0.8247993654090616,-5.300220005682392
15038.8150833323,1.152664184570312,-1.4200439453125,0.7765655517578125,1.448317548262152,2.100781096371096,-4.641770470391276
15068.8900833329,1.355789184570312,-2.251129150390625,0.6616058349609375,0.8582017970652714,-0.7755133083794011,-3.041967259319346
15098.9650833326,1.058319091796875,-4.092330932617188,-0.03857421875,0.02337349962318944,-0.9537770559499261,-1.860454510125147
15129.0580833329,-1.40777587890625,-3.851974487304688,-0.253509521484375,-0.2244344387570107,-4.029306802906996,-0.2865848954322989
15159.1220833334,-2.959030151367188,-1.279800415039062,0.667816162109375,-0.02102033048399543,-6.875471268348773,3.100543487495639
15189.2180833329,1.09619140625,-1.869155883789062,1.609909057617188,-0.02102033048399543,-6.875471268348773,3.100543487495639
15219.2670833329,-1.011688232421875,-2.346328735351562,-0.10107421875,-0.8144487235163597,4.065496232643974,-4.12183274234351
15249.3430833329,0.2191162109375,-3.973190307617188,0.151763916015625,0.6809452570190144,1.540661593796214,-8.103600255579828
15279.4180833334,-1.162643432617188,-2.757598876953125,0.1405792236328125,0.93061474500118,-1.131353175326993,-7.255007942675889
15309.4860833335,-1.500640869140625,-1.832290649414062,0.334075927734375,0.9088130430533553,-3.316537569809861,-6.348703331053279
15339.5770833331,-1.231460571289062,-2.24920654296875,0.3143768310546875,0.8505960753081142,-1.568548885150979,-4.125917498823473
15369.6360833328,-0.64385986328125,-0.4456634521484375,0.0647125244140625,-0.2308257590570919,0.4992217968763676,-0.2478225857661956
15399.7250833327,0.2006683349609375,0.5008544921875,0.0222015380859375,-0.2308257590570919,0.4992217968763676,-0.2478225857661956
15429.8050833331,0.34014892578125,0.06036376953125,0.2689666748046875,-1.776215795368742,1.065616772243913,5.049861557926222
15459.870083333,-0.115234375,-0.630950927734375,0.52081298828125,-2.379659602557033,-0.2270685713912081,9.784752118993209
15489.9670833329,-0.0775909423828125,-1.12664794921875,0.6871795654296875,-1.427403211589542,-0.4668611938385967,11.04655145188614
15520.0270833329,0.959320068359375,-1.849273681640625,0.8820648193359375,-0.7134102559715164,3.391763082173003,11.11745545274841
15550.1170833331,4.219039916992188,-2.574737548828125,1.335205078125,-0.7749817414258213,3.72936881776904,9.947179379141579
15580.2090833331,6.478530883789062,-2.087875366210938,1.765823364257812,-0.08957728747757823,1.881713459842813,7.811912210866719
15610.2680833328,3.914779663085938,-0.509033203125,1.113967895507812,-0.08957728747757823,1.881713459842813,7.811912210866719
15640.358083333,2.944839477539062,-0.879364013671875,0.007232666015625,1.436069670408878,-3.782034159905901,0.5035491673316373
15670.4190833334,-0.2158966064453125,-7.2156982421875,-2.264968872070312,1.903473882793742,-5.617147360678399,-4.207515423042956
15700.5080833342,2.700927734375,2.750289916992188,-0.3873748779296875,1.360619919881952,-0.3110255237042831,-7.218450197760154
15730.5980833335,1.034225463867188,-1.639495849609375,1.224349975585938,1.355453121051089,0.829316086617836,-5.683970866118449
15760.6840833323,1.24755859375,-1.332656860351562,0.6707000732421875,1.22501628454897,-0.8822003405963025,-3.571163200580664
15790.7650833331,0.83868408203125,-2.909957885742188,0.471343994140625,0.1478323384264075,-1.949517008564013,-2.188869676799321
15820.8390833333,-0.2064056396484375,-3.334625244140625,-0.093505859375,-0.7133844233089427,-3.781756392204206,-0.5348341196051252
15850.9110833329,-1.972686767578125,-1.703353881835938,0.3574676513671875,-1.11449829510399,-5.343859628568866,2.597735477895371
15880.9880833323,0.5006866455078125,-2.32440185546875,1.323455810546875,-1.11449829510399,-5.343859628568866,2.597735477895371
15911.0760833328,-0.4982147216796875,-1.5377197265625,0.1309814453125,-0.6587406187982608,4.747484117229754,-4.383784196640903
15941.150083333,0.231903076171875,-3.171401977539062,0.1761322021484375,1.045583409259901,0.9444354857942552,-7.176534172731179
15971.2300833335,-0.968994140625,-2.830917358398438,0.3436431884765625,0.8614066451210728,-3.175461404752876,-6.625893659424215
16001.2890833332,-1.277359008789062,-2.00982666015625,0.487640380859375,0.6054078884922249,-3.400560035885752,-6.62860102898839
16031.3790833334,-0.9227447509765625,-2.379257202148438,0.2926483154296875,0.6054078884922249,-3.400560035885752,-6.62860102898839
16061.4390833334,-0.5276031494140625,-1.513168334960938,0.2008819580078125,0.4309521949644043,-0.8849188954370554,-5.511017195445434
16091.5270833329,0.254364013671875,0.3044891357421875,0.005889892578125,-0.3440753528321664,1.555404320958675,-2.56191462965326
16121.587083333,0.45684814453125,0.7372894287109375,0.2000885009765625,-1.671870747014456,2.00873106382138,2.378053982735824
16151.6610833323,-0.080596923828125,0.224578857421875,0.4935455322265625,-2.517038501072661,-0.6857858186163425,7.914630334111076
16181.7360833329,-0.179718017578125,-0.8483123779296875,0.6087188720703125,-1.54757249682497,0.1228827800701092,10.03085909638518
16211.8250833328,-0.0391998291015625,-1.124893188476562,0.701324462890625,-0.6921758073358786,3.212408503819981,10.15667641366044
16241.891083333,1.079421997070312,-1.849639892578125,0.840087890625,-0.6921758073358786,3.212408503819981,10.15667641366044
16271.9500833327,3.196578979492188,-2.390380859375,0.67572021484375,-0.2341555093680179,1.182375613387385,9.028665771817609
16302.0470833326,5.501785278320312,-1.44049072265625,1.13665771484375,-0.2341555093680179,1.182375613387385,9.028665771817609
16332.1220833332,3.068740844726562,-0.5867462158203125,0.52764892578125,0.0601778532558665,-1.923120022155256,5.671945095900088
16362.1930833342,3.403106689453125,-0.77325439453125,-0.3902130126953125,1.087950041145317,-2.957539460125545,-0.5974125462675891
16392.2690833333,5.690841674804688,-0.811798095703125,3.026504516601562,0.8012980340535484,-3.838997844042151,-3.731755010105751
16422.3450833333,-0.90606689453125,-3.038314819335938,0.2909393310546875,0.482429500938982,0.8550110637632475,-7.63420266711904
16452.4180833323,1.995834350585938,0.16497802734375,-0.496612548828125,1.270267652527161,2.33295388230755,-5.793113599176513
16482.496083333,1.22430419921875,-1.37506103515625,0.8195037841796875,0.7265167369602323,-0.9823277407322296,-3.683071360114666
16512.5740833328,1.14630126953125,-1.986679077148438,0.674102783203125,0.7265167369602323,-0.9823277407322296,-3.683071360114666
16542.6530833329,1.198760986328125,-4.043548583984375,-0.0990447998046875,0.05989182975479199,-1.108932554741834,-2.357813425819004
16572.716083333,-1.063003540039062,-3.7508544921875,-0.0963287353515625,-0.7435069057666109,-2.961089187542512,-1.31155437259055
16602.808083333,-3.13427734375,-1.12005615234375,1.130859375,-0.7877966062751737,-6.985475800335586,1.914816285876389
16632.884083333,0.8691558837890625,-2.19549560546875,1.691543579101562,-1.522687120650942,3.997203461230527,-3.801943153267007
16662.9620833328,-0.25115966796875,-1.75799560546875,0.1446685791015625,0.4444211321774801,3.282200634927143,-6.581064136162693
16693.0340833342,0.243865966796875,-3.360443115234375,4.57763671875E-05,1.155288069307971,-1.565788784997221,-6.641137593503829
16723.0910833332,-0.6409454345703125,-2.799087524414062,0.3561248779296875,1.155288069307971,-1.565788784997221,-6.641137593503829
16753.1910833331,-1.077911376953125,-2.320968627929688,0.451995849609375,0.822157243291594,-4.738491154860775,-6.45874621255979
16783.253083333,-0.751129150390625,-2.318405151367188,0.42529296875,0.8193643862564279,-2.832164760223449,-5.139988255536684
16813.3440833326,-0.5032501220703125,-0.4436492919921875,0.2317047119140625,0.08267916762205499,0.004385959999251498,-2.130206363255382
16843.424083333,0.3734130859375,0.70245361328125,0.049957275390625,-0.8129738649046737,2.464269828285504,2.402103658959785
16873.4830833328,0.59539794921875,0.3579559326171875,0.2314605712890625,-2.174530951174225,0.2198644543264347,8.132162658270929
16903.5580833333,-0.0441741943359375,-0.585906982421875,0.4254913330078125,-1.888789212543045,-1.485822845893738,11.17186809487647
16933.6600833331,-0.1831512451171875,-1.171554565429688,0.3946685791015625,-1.888789212543045,-1.485822845893738,11.17186809487647
16963.7220833329,0.5574493408203125,-1.86083984375,0.6733245849609375,-0.7186918370453615,1.313966131273726,11.26784202897631
16993.8180833342,3.222015380859375,-2.264678955078125,0.811798095703125,-0.6027258189584062,4.450681205327039,10.9241823955903
17023.8800833331,6.119140625,-2.049362182617188,1.511566162109375,-0.7575843752887698,3.254123992818873,8.58442972933589
17053.9590833323,3.660552978515625,-0.599517822265625,1.123916625976562,0.02549577269587359,-2.202158318006598,3.764206160620584
17084.0390833328,3.233505249023438,-0.4273529052734375,0.230255126953125,1.020495366526918,-2.58551076954358,-2.218618251439942
17114.1070833328,2.660858154296875,1.0972900390625,1.9598388671875,1.797592723122698,-0.1073608119726914,-4.174592626699069
17144.2070833327,-0.2080535888671875,-4.7249755859375,0.0362396240234375,1.797592723122698,-0.1073608119726914,-4.174592626699069
17174.2770833334,0.7586669921875,-1.674224853515625,-0.435089111328125,1.688214566624272,2.144050273549941,-5.504229863091258
17204.3370833326,1.658920288085938,-1.041290283203125,0.3844451904296875,1.522157417910125,1.122453157280057,-5.03248070338793
17234.3950833329,1.066070556640625,-2.708358764648438,0.351287841796875,0.404088090100448,-0.6971039869330702,-2.933042372838451
17264.4830833342,0.7249298095703125,-3.4466552734375,-0.1285552978515625,-0.1232518941971942,-0.7722645181656135,-1.854201940517859
17294.5510833333,-1.037460327148438,-2.790969848632812,-0.2755584716796875,-0.1788528388036505,-3.845986511374737,0.1206742205781065
17324.6410833326,-1.535736083984375,-0.5207366943359375,0.9778289794921875,0.0341608999346644,-5.112177396905205,2.718120212862985
17354.729083333,0.4339447021484375,-1.676605224609375,1.196304321289062,0.0341608999346644,-5.112177396905205,2.718120212862985
17384.7920833332,-0.5665435791015625,-1.254730224609375,0.0223236083984375,-0.7081624970435153,4.328146766727512,-3.409892018661499
17414.8960833327,0.1068115234375,-2.976394653320312,0.0538177490234375,0.7582669434761571,2.197871693916006,-6.632582454818058
17444.973083333,-0.6996002197265625,-2.722152709960938,0.1826019287109375,0.7889787834830598,-1.963888491070516,-6.693691881823234
17475.0360833332,-0.89215087890625,-2.160598754882812,0.419097900390625,0.6513127962019208,-3.113587650514847,-6.662001862747945
17505.106083333,-0.6573944091796875,-2.18170166015625,0.2500152587890625,0.8916803951286576,-1.76214445111709,-5.640467064447569
17535.182083333,-0.53570556640625,-1.310134887695312,0.1345977783203125,0.6712897001708231,-0.0189827459339758,-2.935211251230212
17565.2810833326,-0.2716064453125,0.177734375,-0.169891357421875,0.6712897001708231,-0.0189827459339758,-2.935211251230212
17595.3620833334,0.2758636474609375,0.6262054443359375,0.043792724609375,-0.3768210489635627,2.163007186821343,1.606178019773253
17625.4380833334,0.251220703125,0.005035400390625,0.2405853271484375,-1.587633097522487,1.681759596774138,6.409064942424362
17655.5150833328,-0.047943115234375,-0.7171783447265625,0.4517974853515625,-1.714590247744308,-0.3064169234379009,9.624197593723386
17685.5900833334,-0.1185150146484375,-1.075332641601562,0.333892822265625,-0.5306454998426485,0.1496850995967756,10.11101917993212
17715.6760833332,0.73504638671875,-1.588790893554688,0.684906005859375,-0.5306454998426485,0.1496850995967756,10.11101917993212
17745.7580833334,2.543197631835938,-1.879806518554688,0.63714599609375,0.03574068709329941,3.450571804312459,10.17148145879241
17775.8420833334,4.918807983398438,-2.2296142578125,0.967987060546875,0.0781323526929627,2.971650751793548,8.86861192083272
17805.925083333,3.771743774414062,-0.5402984619140625,0.5897216796875,0.08080456853074822,-0.1277861922691631,6.812589773954258
17836.0080833327,3.072418212890625,-0.3350982666015625,-0.111602783203125,1.126444703121868,-5.583418425472546,1.113302269458436
17866.0690833331,1.862548828125,-7.289688110351562,-2.1553955078125,1.85863370688786,-1.567827434811676,-4.60713499515036
17896.1740833329,1.757904052734375,2.96209716796875,0.54449462890625,0.9147939702294553,1.052834664275969,-7.144132024380403
17926.2350833342,1.317108154296875,-2.278549194335938,0.60430908203125,1.048758696227602,-0.6958483064790979,-4.983230865349094
17956.337083333,0.8675689697265625,-0.6256561279296875,0.621337890625,1.118788913936217,-0.8672328426378392,-3.029786226809433
17986.4200833326,0.9705352783203125,-0.954376220703125,0.560882568359375,1.118788913936217,-0.8672328426378392,-3.029786226809433
18016.5000833331,0.75738525390625,-1.877639770507812,0.50469970703125,0.3022738437300647,-1.583119838423129,-1.79682733062541
18046.5660833333,0.2073822021484375,-2.499725341796875,0.457000732421875,-1.040572671668917,-1.287298035065999,-1.104844868784671
18076.6590833327,0.0015869140625,-1.658889770507812,0.6455078125,-1.247851559315855,-1.721654282535743,-0.8448409841924529
18106.7160833327,-0.5890045166015625,-1.589874267578125,0.5591888427734375,-0.008486961761864517,-2.082635381967732,-2.036895057613404
18136.8210833334,-0.31280517578125,-1.709869384765625,0.7830352783203125,0.7759751005124209,0.8621954734359543,-3.642013671905024
18166.8960833331,0.6252593994140625,-2.707321166992188,0.7467041015625,1.638975913862015,-2.313780720355634,-6.338661083214809
18196.9600833327,-0.530731201171875,-2.908004760742188,0.7821502685546875,1.638975913862015,-2.313780720355634,-6.338661083214809
18227.0460833333,-0.5366973876953125,-2.363922119140625,0.19842529296875,1.044444641577783,-5.6414199434856,-6.659134703518366
18257.1180833329,-0.6669921875,-2.104141235351562,-0.1945037841796875,0.3425618783846744,-3.521218543813427,-6.603248268043053
18287.2000833331,-0.3854827880859375,0.2152252197265625,0.1575469970703125,-1.57427175201745,1.979731902711507,-4.419388263570281
18317.2880833326,0.8908233642578125,1.336929321289062,0.0120086669921875,-1.846810603228453,5.186054018176221,-0.2203898960095074
18347.3670833328,0.4320068359375,1.208297729492188,-0.258758544921875,-2.703855523116194,-0.5050591796697123,5.596917456405939
18377.4430833328,0.03662109375,0.81182861328125,0.14654541015625,-2.489624453443604,-0.9880106601823497,8.87986217854165
18407.5210833334,0.64190673828125,0.0180511474609375,0.099884033203125,-2.489624453443604,-0.9880106601823497,8.87986217854165
18437.5990833323,2.20526123046875,-0.705352783203125,-0.0998992919921875,-1.708897208282045,0.9558042541716945,9.734611187253634
18467.6780833333,1.669158935546875,-0.8329620361328125,-0.13916015625,-1.037084196957022,0.4451351256657303,8.501806221780617
18497.7380833334,1.271881103515625,-0.667327880859375,-0.13800048828125,-0.7591622982346417,-0.6359431609188555,6.722960022203205
18527.8330833335,1.185287475585938,-1.071792602539062,0.317291259765625,-0.7175714451747652,2.259151829547057,4.881202500827069
18557.9090833335,1.531082153320312,-1.05523681640625,0.5047760009765625,-0.5951469951282586,3.315806265774526,3.296608602740581
18587.9870833323,1.281158447265625,-1.026596069335938,0.237091064453125,-0.2412741389617997,1.161851163498362,2.135537479125503
18618.0600833331,0.65338134765625,-1.017898559570312,0.2926025390625,-0.2412741389617997,1.161851163498362,2.135537479125503
18648.1280833332,-0.300079345703125,-0.7721710205078125,0.2867584228515625,0.06052539577812184,-1.004552352661159,0.6534523798216905
18678.2140833329,-0.55804443359375,-0.5652313232421875,0.2064056396484375,0.09814574196879917,-0.9795628468885094,0.3297030713773358
18708.293083333,-0.3179473876953125,-0.7332611083984375,0.217742919921875,0.2670580656876199,0.3244603724554058,0.5519230916879456
18738.3720833332,-0.25213623046875,-0.6625213623046875,0.309478759765625,0.3079130873383075,0.2227744904495643,1.334886060584626
18768.4520833327,0.797027587890625,-0.8879241943359375,0.2088775634765625,0.2419106344623287,-0.1270847156380362,1.357869939740336
18798.5140833334,0.7849578857421875,-0.279693603515625,0.5045166015625,0.4662782278759784,1.315509965757645,-0.02059209418071068
18828.6120833327,3.21820068359375,-0.2468719482421875,0.6387176513671875,0.4662782278759784,1.315509965757645,-0.02059209418071068
18858.689083333,-1.99993896484375,-3.671401977539062,-0.5688323974609375,0.8092193403998801,2.274251420295588,-3.9275897619164
18888.773083333,1.04217529296875,-0.4775543212890625,-0.115875244140625,1.142601302507051,1.769528597871552,-2.985356444027532
18918.8520833331,0.5977325439453125,-1.58770751953125,0.396759033203125,1.287825607277944,2.490007149692248,-3.469234970915626
18948.9100833334,0.34393310546875,-1.287200927734375,0.08966064453125,1.200755685966676,0.1683067208869367,-1.341623059194199
18979.0180833334,0.5813446044921875,-0.646759033203125,0.4524078369140625,0.571665637480921,-0.005682919450120086,-0.7210793609626176
19009.0970833326,0.059173583984375,-1.465866088867188,0.2804107666015625,0.141731835317363,-0.03527596548308058,-0.06580218316200484
19039.1740833329,0.2966156005859375,-1.021469116210938,0.282135009765625,0.141731835317363,-0.03527596548308058,-0.06580218316200484
19069.2500833329,0.496246337890625,-0.558868408203125,0.1096954345703125,-0.2085990165992905,0.1261273092261527,0.01570732410928735
19099.3240833332,-0.0811767578125,-1.17840576171875,0.24627685546875,-0.1843578590929533,-0.04629665870604648,0.3653619994251698
19129.3740833335,0.2035064697265625,-1.038818359375,0.0398712158203125,-0.1959820246189311,0.1509554274367435,0.4290288600251491
19159.4780833329,0.178131103515625,-0.775146484375,0.042877197265625,-0.1138325597376929,0.1578341062163091,0.3369316895241379
19189.5520833332,-0.0988311767578125,-1.05267333984375,0.321624755859375,-0.1125491824083837,-0.06308655779845104,0.2445666050174647
19219.6320833327,0.2001953125,-0.8461761474609375,0.0635223388671875,0.02969637668325557,0.1734072070066565,-0.001919340197620107
19249.7070833333,0.121856689453125,-0.80523681640625,-0.0137481689453125,0.02969637668325557,0.1734072070066565,-0.001919340197620107
19279.7810833326,0.1503448486328125,-0.9969024658203125,0.273468017578125,-0.0848741449924983,0.3838925406060501,-0.1000096884157456
19309.8680833327,0.0835418701171875,-1.1016845703125,0.1746063232421875,-0.1155961050115434,0.5695223254356252,-0.1461553458879846
19339.9430833333,0.1739349365234375,-0.9778594970703125,-0.0359649658203125,-0.0001371527961390808,0.5814274544566065,-0.1581201297173836
19370.0430833342,0.3673858642578125,-0.8607330322265625,0.0466461181640625,0.07489368249131735,0.4709302376681288,-0.1696329751097962
19400.1260833329,0.236846923828125,-0.989959716796875,0.1644287109375,0.127077791419202,-0.05913842148240857,0.008812133730963191
19430.2090833335,-0.1737213134765625,-1.013534545898438,0.40838623046875,0.1166195578184608,-0.2964609620187487,0.1167556453501639
19460.297083333,0.259765625,-0.927734375,0.1514434814453125,0.1166195578184608,-0.2964609620187487,0.1167556453501639
19490.3800833326,0.0327606201171875,-0.99700927734375,0.3456878662109375,0.05281687600288748,0.09430626262523194,-0.05664703428263945
19520.465083333,0.102081298828125,-1.035888671875,0.2301025390625,-0.1272136126347961,0.07624337253176951,0.001733984185750592
19550.5480833326,-0.0793304443359375,-1.136245727539062,0.00567626953125,-0.04375520407778387,0.1647351555490314,-0.1228255221066725
19580.6350833327,0.1977691650390625,-1.320449829101562,0.2292633056640625,0.118271250326528,0.09614890378345776,0.01416562015424048
19610.7210833334,0.4103546142578125,-0.7010955810546875,-0.0344696044921875,0.3903693483771228,-0.3308383769500366,-0.00982306968075727
19670.7594583331,-0.0204925537109375,-0.889404296875,0.32135009765625,0.2960553625847296,-0.467240694293933,0.236408543650225
19700.8454583329,0.161163330078125,-1.122589111328125,0.3266143798828125,0.1444463954164808,-0.1982795336913425,0.3976256633992618
19730.9274583331,-0.0024566650390625,-0.9949493408203125,0.2042694091796875,0.3096297609769725,-0.491607553003722,0.3677114401388377
19761.0034583331,0.012115478515625,-0.9755706787109375,0.3011932373046875,0.203675630692061,-0.5554571064544808,0.39605572993666
19791.0934583333,0.201385498046875,-0.8776397705078125,0.2269744873046875,0.006825415557764079,0.3487694405695401,0.1171985290394441
19821.1824583332,0.1312255859375,-0.8977813720703125,0.136749267578125,-0.01959660456523907,0.1039229373215081,0.2208037512429057
19851.2684583329,0.014007568359375,-0.9928131103515625,0.1906890869140625,-0.05957118515954644,0.2679957647074368,0.1438242809858383
19881.3584583331,0.1897430419921875,-0.81268310546875,0.115386962890625,-0.033576069759283,0.3115488348584837,0.00525015577298221
19911.439458333,0.161895751953125,-0.781646728515625,0.0163726806640625,-0.033576069759283,0.3115488348584837,0.00525015577298221
19941.5224583327,0.0071563720703125,-1.046768188476562,0.193267822265625,-0.07387209389716295,0.1932914329696241,-0.007107710633312479
19971.6104583331,-0.060211181640625,-1.085662841796875,0.542236328125,-0.2088954264286164,0.5971965639031837,-0.1140235083878516
20001.6964583328,0.0995330810546875,-1.015777587890625,0.3052825927734375,-0.04242948248714242,0.4248093475940276,-0.1787769387125832
20031.7794583334,0.06463623046875,-0.8925933837890625,0.0402984619140625,0.02147919313981608,-0.2547851541200987,-0.07921199819888083
20061.8624583331,0.161346435546875,-0.89752197265625,0.289459228515625,-0.05940047653367237,0.5149703999825511,-0.2007802419549269
20091.9454583327,0.204254150390625,-1.074966430664062,0.154449462890625,-0.05940047653367237,0.5149703999825511,-0.2007802419549269
20122.0324583328,0.0789794921875,-0.8922882080078125,0.0050811767578125,-0.02377297378670133,0.02140276041653081,0.02312103195184993
20152.1174583331,0.011260986328125,-1.005966186523438,0.2528228759765625,-0.02668860254812008,0.02604784598984701,0.194600376645398
20182.2044583323,0.124725341796875,-1.039031982421875,0.20526123046875,-0.05393646892515679,0.2393087260773213,0.02045973507453375
20212.2674583334,0.00274658203125,-0.989776611328125,0.1809844970703125,-0.0404928317424368,0.05718552545505347,-0.01558694922801577
20242.3694583331,0.1112060546875,-0.94219970703125,0.190216064453125,-0.0557617995362971,0.02467818224121926,-0.08155744417091361
20272.4324583323,0.1137542724609375,-0.946502685546875,0.17437744140625,-0.04182680913245749,0.02892459259935061,-0.08680307257004269
20302.5244583323,0.1089019775390625,-0.923095703125,0.1590118408203125,-0.04182680913245749,0.02892459259935061,-0.08680307257004269
20332.610458333,0.1104736328125,-0.9718780517578125,0.140777587890625,-0.03524240965334558,0.03708611607600744,-0.00476652571902382
20362.6954583342,0.1523590087890625,-0.96417236328125,0.078765869140625,-0.02469575910441378,0.04253201418911047,0.007000651557491294
20392.7864583329,0.12506103515625,-0.9365692138671875,0.0904541015625,0.01137622522849148,-0.1696500193407727,0.05548456446681985
20422.8714583323,-0.119476318359375,-1.05487060546875,0.25189208984375,0.0309139739336398,-0.2293378509560646,0.03363545825159177
20452.9584583333,0.1375579833984375,-0.9447174072265625,0.2294921875,0.1276786005611239,-0.06386286925620914,-0.04655498533178417
20483.0444583331,0.038299560546875,-0.9466094970703125,0.2552490234375,0.0354780994098176,-0.1339460838705163,-0.005280249493300106
20513.1304583329,0.0653533935546875,-0.954620361328125,0.228057861328125,0.0354780994098176,-0.1339460838705163,-0.005280249493300106
20543.2164583326,0.12054443359375,-0.9493255615234375,0.1332550048828125,-0.04555337044580537,0.07182305775445598,-0.04341831419988884
20573.3024583342,0.0690765380859375,-1.0509033203125,0.1785736083984375,-0.05951419351221875,0.09734279890014029,-0.03942437151309701
20603.3874583327,0.128082275390625,-0.990264892578125,0.1153106689453125,-0.09229903811163921,0.1913321453556528,0.01833160304745143
20633.4754583331,0.105743408203125,-0.9658355712890625,0.1359710693359375,-0.07810119370820878,0.06788903619219093,0.004297543051060866
20663.5604583334,0.0556793212890625,-0.9730377197265625,0.14910888671875,-0.108961638103938,0.1357077649316038,-0.01447747631788875
20693.6474583326,0.0511016845703125,-0.94830322265625,0.2134857177734375,-0.1223799752563022,0.2821211711292171,-0.175308171392755
20723.7144583323,0.0076141357421875,-0.9365692138671875,0.2539520263671875,-0.1091190309243617,0.2733050426566188,-0.2156358871476069
20753.800458333,0.1099395751953125,-0.9787750244140625,0.1790771484375,-0.1091190309243617,0.2733050426566188,-0.2156358871476069
20783.892458333,0.14910888671875,-0.9706878662109375,0.1047210693359375,-0.09138237806443394,0.1047722193931343,-0.15584738804311
20813.9754583326,0.127716064453125,-0.9665679931640625,0.1102447509765625,-0.09816784620584683,0.196415320928287,-0.1319684204450235
20844.0604583329,0.1101837158203125,-0.9552154541015625,0.1438751220703125,-0.04633474190963462,-0.04738935370130599,-0.05546405812642625
20874.1524583329,0.1099700927734375,-0.9718170166015625,0.1466827392578125,-0.005113002976843129,-0.1170520551794897,-0.006765760749346305
20904.2204583329,0.104461669921875,-0.9710235595703125,0.149505615234375,-0.007542072207104403,-0.1295742386250423,0.02205976225745335
20934.3084583334,0.10791015625,-0.9761505126953125,0.126678466796875,-0.02032604438781177,-0.02658633716226104,0.006401173996114457
20964.3874583326,0.0899200439453125,-0.963897705078125,0.1402435302734375,-0.02032604438781177,-0.02658633716226104,0.006401173996114457
20994.4664583327,0.1015472412109375,-0.96142578125,0.1565399169921875,-0.03462562154488323,0.01960086562298319,-0.06005374994906881
21024.551458333,0.05126953125,-0.9562225341796875,0.16412353515625,-0.02972620408746446,0.01167982559276052,-0.117498400978187
21054.6384583331,0.102874755859375,-0.96978759765625,0.14501953125,-0.02703641138648443,0.07180148614962634,-0.176450933816508
21084.7214583328,0.097564697265625,-0.953857421875,0.138946533203125,-0.010586864281392,0.129934031688312,-0.2235649166610998
21114.7964583333,0.114898681640625,-0.9676971435546875,0.1172332763671875,0.01434165510229471,0.111651963437136,-0.2552197820099997
21144.8784583326,0.121185302734375,-0.9619293212890625,0.147491455078125,0.02826865602286409,-0.01476403245118128,-0.2436675218334539
21174.9744583331,0.108154296875,-0.960662841796875,0.1630096435546875,0.02826865602286409,-0.01476403245118128,-0.2436675218334539
21205.0654583327,0.1150665283203125,-0.955780029296875,0.14715576171875,0.04961628900483026,-0.02425793542120476,-0.2413119558492789
21235.1254583327,0.10906982421875,-0.9584503173828125,0.1784515380859375,0.06587089271812889,-0.02971208933368704,-0.2624601180655981
21265.2164583342,0.149383544921875,-0.9662017822265625,0.137847900390625,0.08786274436778523,-0.08454897302339963,-0.215068900151529
21295.3054583331,0.156341552734375,-0.930419921875,0.1882781982421875,0.09962885637986429,-0.1270255934618365,-0.2115159769412543
21325.3964583328,0.2272186279296875,-0.9740753173828125,0.1107177734375,0.07226088143766501,-0.04901787670788945,-0.1589451770230902
21355.478458333,0.137939453125,-0.95465087890625,0.1776275634765625,0.04302070424914001,-0.04452645552947081,-0.1219104599561213
21385.5474583333,0.1114349365234375,-0.9588470458984375,0.2426300048828125,0.04302070424914001,-0.04452645552947081,-0.1219104599561213
21415.6364583323,0.16998291015625,-0.9580535888671875,0.1959991455078125,0.002499642999148373,0.1539735879001302,-0.1522313479150004
21445.7074583333,0.2117156982421875,-0.9611663818359375,0.1203460693359375,0.002499642999148373,0.1539735879001302,-0.1522313479150004
21475.798458333,0.19171142578125,-0.981658935546875,0.0780181884765625,-0.01994547866803945,0.2144806078667305,-0.1581105423374593
21505.8784583334,0.259521484375,-0.943450927734375,0.08990478515625,-0.02891340732277227,0.06925124308976646,-0.1008054409494613
21535.9684583327,0.2138519287109375,-0.9596099853515625,0.0986480712890625,0.01980672797524632,0.045271874318584,-0.05979249384613203
21566.0574583326,0.1785888671875,-0.9442291259765625,0.1316680908203125,0.07050532564708478,-0.09968478276275597,0.01075810553948409
21596.1444583327,0.2032470703125,-0.95538330078125,0.1240692138671875,0.07050532564708478,-0.09968478276275597,0.01075810553948409
21626.2074583328,0.118927001953125,-0.94305419921875,0.196746826171875,0.09954656470218086,-0.1645727027225366,-0.0003307646073878414
21656.2984583334,0.187713623046875,-0.9497222900390625,0.1793212890625,0.09954656470218086,-0.1645727027225366,-0.0003307646073878414
21686.3884583327,0.1575164794921875,-0.9567413330078125,0.185394287109375,0.09982300082333108,-0.01075091500454088,-0.04497200237984107
21716.4784583329,0.1389007568359375,-0.9831390380859375,0.210296630859375,0.05372128550907839,-0.03091850130749293,-0.02602574175279936
21746.5384583329,0.1679534912109375,-0.9633636474609375,0.1660003662109375,0.01887009421986545,0.08659667758556155,-0.07710463882830113
21776.6444583331,0.14349365234375,-0.9639129638671875,0.2003326416015625,0.02959597551015958,0.04940696454315003,-0.07678905423912674
21806.7194583327,0.236572265625,-0.961029052734375,0.163116455078125,0.05595061765758372,0.09543277976633545,-0.05023733817103673
21836.8064583328,0.3389434814453125,-0.9252777099609375,0.09857177734375,0.0766566951329498,-0.0229756233563316,0.02524197344398903
21866.8674583323,0.207427978515625,-1.073211669921875,0.162139892578125,0.0766566951329498,-0.0229756233563316,0.02524197344398903
21896.9784583342,0.375213623046875,-0.747283935546875,0.0062103271484375,0.1118130846830858,-0.03067801786105878,0.23331741257297
21927.0654583333,0.216827392578125,-0.9353485107421875,0.06854248046875,0.09459921034514066,-0.4226306155062337,0.2931663654342117
21957.1474583327,-0.0643157958984375,-0.9675445556640625,0.3207855224609375,0.1061781021325872,-0.5380461581958698,0.2236605241442337
21987.224458333,0.123504638671875,-0.959716796875,0.368377685546875,0.1587768652421972,-0.1905137559526714,0.05675702283565972
22017.3214583328,0.0932159423828125,-0.96014404296875,0.3047027587890625,-0.0348597134047012,-0.1100354246554579,0.07712727569756681
22047.4054583328,0.130859375,-0.956756591796875,0.1798248291015625,-0.1390942405737485,0.07312960458524886,0.01444631733313483
22077.4714583331,0.1418609619140625,-0.9567108154296875,0.1353759765625,-0.1390942405737485,0.07312960458524886,0.01444631733313483
22107.5744583331,0.1867218017578125,-0.9355010986328125,0.1464691162109375,-0.09774972991470439,0.03014352143027987,-0.05102004121541102
22137.6514583326,0.165130615234375,-0.980255126953125,0.146087646484375,-0.04615977222601641,-0.01353258676312864,-0.07591713529823479
22167.7464583327,0.1395721435546875,-0.961517333984375,0.1707611083984375,-0.03023060679792547,-0.1154030258325126,-0.05491411536132489
22197.8324583333,0.1506805419921875,-0.9722900390625,0.1784515380859375,-0.02931847412457332,-0.08234414195692302,-0.04445961018610983
22227.9164583333,0.1398162841796875,-0.9651031494140625,0.1656951904296875,-0.02931847412457332,-0.08234414195692302,-0.04445961018610983
22257.983458333,0.1916961669921875,-0.9420013427734375,0.1660614013671875,-0.02662521931417619,-0.03093900764788654,-0.003209109113545482
22288.0814583332,0.1821746826171875,-0.9626007080078125,0.1227569580078125,-0.02662521931417619,-0.03093900764788654,-0.003209109113545482
22318.1444583333,0.1717529296875,-0.95867919921875,0.11688232421875,-0.03049079763642621,-0.0506091154592118,0.06080848980199726
22348.2244583329,0.193878173828125,-0.9563140869140625,0.140655517578125,-0.02455993788881974,-0.0810226814240257,0.1089880033987298
22378.3134583327,0.16693115234375,-0.9564666748046875,0.13641357421875,-0.01536510790921217,-0.186901710566197,0.1608607887951842
22408.4074583334,0.1045379638671875,-0.94647216796875,0.183624267578125,-0.01779204661060137,-0.2376700830585955,0.1941870540442177
22438.4934583331,0.1308441162109375,-0.9691925048828125,0.1671905517578125,-0.01779204661060137,-0.2376700830585955,0.1941870540442177
22468.5804583323,0.1120452880859375,-0.9648284912109375,0.1694183349609375,-0.009750898015216123,-0.1594831355632862,0.1319668225483695
22498.6804583332,0.1015777587890625,-0.9580078125,0.1696014404296875,-0.009750898015216123,-0.1594831355632862,0.1319668225483695
22528.7604583327,0.1074676513671875,-0.9611053466796875,0.1611785888671875,-0.01017966695071888,-0.1217469418651904,0.06780301608898137
22558.8424583329,0.1317596435546875,-0.953857421875,0.1550445556640625,-0.01696566772434979,-0.05113535609061146,-0.005138835639416898
22588.9254583326,0.13470458984375,-0.9683685302734375,0.1425628662109375,-0.03619582132359395,-0.1000501684643148,0.001410410113305965
22619.005458333,0.104583740234375,-0.9902496337890625,0.1519317626953125,-0.04513685205131698,-0.02008316409639654,0.02854189635070622
22649.0944583329,0.13800048828125,-0.99725341796875,0.1389617919921875,-0.02606196074362443,0.09800699127600604,0.02795147353703565
22679.1804583327,0.1403045654296875,-0.93902587890625,0.0988922119140625,-0.0358983462298321,-0.04207128732052676,0.06604026976345792
22709.265458333,0.141571044921875,-0.958221435546875,0.1283111572265625,-0.0358983462298321,-0.04207128732052676,0.06604026976345792
22739.3514583327,0.0750885009765625,-0.9515380859375,0.1640625,-0.03843367558758753,-0.1647785650747997,0.01884426155729168
22769.4364583331,0.144317626953125,-0.940338134765625,0.1468048095703125,0.02167067442219278,-0.0756148665145108,-0.01960219720352823
22799.5204583331,0.1070709228515625,-0.943878173828125,0.14312744140625,0.004397944224156854,-0.1647519334638989,0.008521849172144554
22829.6034583327,0.087371826171875,-1.039932250976562,0.1601715087890625,-0.01077222029326151,-0.09025532829111241,0.0196581235864199
22859.6894583334,0.1380157470703125,-0.9842071533203125,0.131439208984375,0.001066862332685743,0.01912602400062206,-0.002242115321737711
22889.7744583328,0.112945556640625,-0.9550018310546875,0.147247314453125,-0.007176153873327516,-0.02894057156589108,-0.02437910925080336
22919.8594583331,0.1209564208984375,-0.9577484130859375,0.1209716796875,-0.007176153873327516,-0.02894057156589108,-0.02437910925080336
22949.9444583334,0.1089935302734375,-0.9577789306640625,0.129058837890625,-0.01577123997544925,-0.06079357609989282,-0.01572330307582782
22980.0234583327,0.1105804443359375,-0.96697998046875,0.157806396484375,-0.01726101228923958,-0.1473604262812455,-0.06526795304733495
23010.1054583329,0.095001220703125,-0.9750213623046875,0.1358642578125,-0.03359897294465768,-0.1301545414265705,-0.03780144114480272
23040.1904583332,0.105682373046875,-0.9785003662109375,0.1308441162109375,-0.01107795118640261,-0.06855163067140264,-0.05399319425637548
23070.2754583326,0.1330413818359375,-0.96990966796875,0.137176513671875,0.01242444543354667,0.1078561599354461,-0.07622206724304886
23100.3594583326,0.1470184326171875,-0.9716949462890625,0.1209869384765625,0.01764610538286503,0.01022813648255832,-0.05319770803876882
23130.4434583326,0.150482177734375,-0.9725494384765625,0.108062744140625,0.01764610538286503,0.01022813648255832,-0.05319770803876882
23160.5274583326,0.1085205078125,-0.950042724609375,0.135406494140625,0.02049808459423089,-0.046851661477219,-0.01339862976029766
23190.6144583327,0.1296844482421875,-0.9869842529296875,0.1468658447265625,0.0301208845610142,-0.09251528679215365,-0.008776980004574145
23220.7014583328,0.0888214111328125,-0.969451904296875,0.146728515625,0.01301220508612716,-0.1116671434553495,-0.004528172801461729
23250.7894583332,0.1287689208984375,-0.96917724609375,0.1495513916015625,0.008060057039124815,-0.05568376891635778,-0.04753289808406127
23280.8704583331,0.114227294921875,-0.9769744873046875,0.1341094970703125,-0.01657444936021715,-0.01638722913558458,-0.04583859499855285
23310.9684583342,0.123687744140625,-0.963287353515625,0.1263580322265625,-0.004759335184080607,0.02077345545094508,-0.05663345216108004
23341.0444583342,0.1385498046875,-0.9580841064453125,0.1037139892578125,-0.004759335184080607,0.02077345545094508,-0.05663345216108004
23371.1234583334,0.1459503173828125,-0.964141845703125,0.1242828369140625,0.004630970819538787,-0.03108042150176975,-0.02960130183233974
23401.2104583326,0.073150634765625,-0.9793701171875,0.1493377685546875,0.01249422025410675,-0.1854068782463355,-0.04668761075407012
23431.2954583329,0.10247802734375,-0.973663330078125,0.152069091796875,0.01759071163219138,-0.04603247312591063,-0.04112693039798467
23461.3784583335,0.1508941650390625,-0.973663330078125,0.1217498779296875,0.01472754714424719,0.1204779456057676,-0.09332968145349987
23491.474458333,0.1222991943359375,-0.9562835693359375,0.1360321044921875,0.01017460694464773,0.007017429472358793,-0.05323552492624794
23521.5574583326,0.138641357421875,-0.96197509765625,0.1138916015625,0.01318424529254628,0.04329953721527131,-0.0395886885523549
23551.6244583323,0.1318817138671875,-0.96893310546875,0.130828857421875,0.01318424529254628,0.04329953721527131,-0.0395886885523549
23581.7154583328,0.121002197265625,-0.9758453369140625,0.131500244140625,0.02069649009544179,0.0231063845658545,-0.04046966224095312
23611.7984583334,0.1428985595703125,-0.9693145751953125,0.130340576171875,0.02905615275720052,-0.01284469225356117,-0.01887195843262851
23641.8794583342,0.12713623046875,-0.960479736328125,0.1350860595703125,0.02187067782005773,-0.03434146225657177,-0.04329767300250825
23671.9604583332,0.1282806396484375,-0.953399658203125,0.1461029052734375,0.01110697964228447,-0.003495931562947016,-0.03931225243120468
23702.0454583326,0.12396240234375,-0.9732513427734375,0.1329345703125,-0.005832855419491548,0.006964432566666216,-0.05442462635296832
23732.1294583326,0.0977935791015625,-0.963165283203125,0.1695404052734375,-0.01202417232170776,0.007838215720321213,-0.0747208433365712
23762.2134583335,0.1487274169921875,-0.9763336181640625,0.1314697265625,-0.01202417232170776,0.007838215720321213,-0.0747208433365712
23792.2914583323,0.1157989501953125,-0.96514892578125,0.1263427734375,-0.02878584190655748,-0.005213936782157132,-0.1035351810667925
23822.3734583335,0.1551513671875,-0.9635467529296875,0.1159210205078125,-0.03949521159809312,-0.03602750954270094,-0.09703307326536406
23852.4544583333,0.1526947021484375,-0.9728851318359375,0.084564208984375,-0.01824238715093377,-0.0337606268228255,-0.0872938931589443
23882.537458333,0.149871826171875,-0.9533538818359375,0.106201171875,0.01150565485746933,-0.102609466271881,-0.06425941394252194
23912.6194583323,0.172088623046875,-0.9662628173828125,0.1114349365234375,0.04762744030275908,-0.04393230429027414,-0.05369225705319653
23942.7004583331,0.14678955078125,-0.9587554931640625,0.1090240478515625,0.06642483022486537,-0.1519027138364846,-0.0006665892208468333
23972.7834583327,0.13983154296875,-0.96484375,0.143585205078125,0.06642483022486537,-0.1519027138364846,-0.0006665892208468333
24002.8614583334,0.14288330078125,-0.97149658203125,0.146240234375,0.05800551275468886,-0.095719868531846,-0.01919499987285512
24032.9424583333,0.128509521484375,-0.9610748291015625,0.13671875,0.03772713895038951,-0.08728643630789207,-0.02153565215492576
24063.0064583329,0.146636962890625,-0.95220947265625,0.1411895751953125,0.01550226070535124,-0.07475919285626835,-0.0420289430591945
24093.1104583342,0.1281890869140625,-0.9626007080078125,0.1263885498046875,-0.009025985566496555,-0.001551557651080164,-0.05439613052930447
24123.1944583342,0.144317626953125,-0.970916748046875,0.13311767578125,-0.005825132252330317,0.0282052727889202,-0.05775357771556737
24153.2744583328,0.1479949951171875,-0.96832275390625,0.123443603515625,-0.007003581034690381,-0.02057824574304227,-0.04147660344911207
24183.3584583328,0.1387939453125,-0.970611572265625,0.1162567138671875,-0.007003581034690381,-0.02057824574304227,-0.04147660344911207
24213.4344583328,0.1483917236328125,-0.9637451171875,0.128082275390625,-0.00169829782714353,-0.0662173699759482,-0.03262691914677876
24243.5234583327,0.1419830322265625,-0.970245361328125,0.1189117431640625,0.00587360178416976,-0.01528041938654764,-0.04780240998637729
24273.6064583323,0.1587677001953125,-0.9542694091796875,0.12835693359375,0.01574993468672862,-0.04414695507413453,-0.06885363313901763
24303.6624583328,0.1357269287109375,-0.9720306396484375,0.1356201171875,0.01789937200253157,-0.03671540405226841,-0.07101425573139891
24333.7714583331,0.1504364013671875,-0.958160400390625,0.1294708251953125,0.01580958949514639,-0.01869778769733732,-0.07753553829267595
24363.8414583329,0.16278076171875,-0.9672698974609375,0.132354736328125,0.003843740401311364,0.0005651227833148143,-0.0596366989223624
24393.9094583329,0.16485595703125,-0.9696197509765625,0.116180419921875,0.003843740401311364,0.0005651227833148143,-0.0596366989223624
24423.9954583327,0.1829681396484375,-0.9510345458984375,0.1131134033203125,0.009042230849146038,-0.02374261375027443,-0.04346332162231118
24454.072458333,0.1707611083984375,-0.9613189697265625,0.1339111328125,0.01339383607033551,-0.0418539733755763,-0.04864343625862431
24484.1584583328,0.1372528076171875,-0.9691162109375,0.1342010498046875,0.01425323815410408,-0.06718249955499291,-0.02610483763717471
24514.2434583331,0.1529083251953125,-0.9554595947265625,0.1260986328125,-0.001766474751049559,-0.07572458875142207,-0.02511014697003011
24544.3214583329,0.153106689453125,-0.97271728515625,0.125396728515625,-0.0005315669535798159,-0.08116542685845395,-0.03998230376146861
24574.400458333,0.145263671875,-0.9616546630859375,0.1103515625,-0.006853378749209911,-0.1131212294105328,-0.04409315922011493
24604.4784583328,0.1223297119140625,-0.962127685546875,0.1363677978515625,-0.006853378749209911,-0.1131212294105328,-0.04409315922011493
24634.5564583335,0.2359771728515625,-0.91845703125,0.0813140869140625,-0.009370864927661815,-0.03080957801890869,-0.1181404891170051
24694.5697083329,0.194061279296875,-0.9575042724609375,0.0859222412109375,-0.0009808422294761835,-0.1092785542736574,-0.09414594032760916
24724.6757083331,0.219451904296875,-0.9209136962890625,0.1199188232421875,-0.005729258453087465,-0.04835954328642186,-0.0572742087193531
24754.7557083326,0.1765899658203125,-0.9993743896484375,0.1364898681640625,-0.03817295211686877,0.06554465548459418,-0.03373319626359768
24784.8347083327,0.136077880859375,-0.936981201171875,0.2206878662109375,-0.1183146598522963,-0.02493730781528397,-0.01887275738095553
24814.9147083332,0.1657867431640625,-0.9595489501953125,0.03472900390625,-0.1452727743027324,0.07293093276792895,-0.006908506183774552
24844.9827083332,0.1801300048828125,-0.9408416748046875,0.1158447265625,-0.1452727743027324,0.07293093276792895,-0.006908506183774552
24875.0587083332,0.1705474853515625,-0.997589111328125,0.0662689208984375,-0.138035101408224,0.131783597065372,-0.0913877043866141
24905.1467083327,0.179473876953125,-0.9217529296875,0.14117431640625,-0.08020056359551825,-0.09234511079849758,-0.07888442938480109
24935.2307083327,0.183441162109375,-0.954925537109375,0.14605712890625,-0.0799539548785769,-0.04260977849294079,-0.1079594905857412
24965.3117083326,0.1875,-0.9613800048828125,0.1248779296875,-0.129732963026011,-0.05922470790172714,-0.04538212918771328
24995.391708333,0.1882476806640625,-0.969085693359375,0.0801239013671875,-0.1867312682564319,-0.1068707903321168,-0.002909503490911568
25025.4687083334,0.2100372314453125,-0.96630859375,0.0663604736328125,-0.2086498829761111,-0.1256087917619143,0.05137370900817354
25055.5577083342,0.2240753173828125,-0.9537200927734375,0.034698486328125,-0.2086498829761111,-0.1256087917619143,0.05137370900817354
25085.6397083326,0.1697845458984375,-0.9720611572265625,0.0206451416015625,-0.2325653358811316,-0.2188268867657399,0.1018454053551373
25115.7207083334,0.1829376220703125,-0.9504852294921875,-0.1931915283203125,-0.2786414848489195,-0.4087752536189875,0.03981665514166569
25145.8067083331,0.029205322265625,-0.9879913330078125,0.23846435546875,-0.2924992435811469,-0.871156744187962,-0.3036584211807969
25175.8887083333,0.0846710205078125,-0.9973907470703125,0.16168212890625,-0.3107003517351844,-0.7098954159648299,-0.7171211046344328
25205.955708333,0.253753662109375,-0.9522552490234375,0.022491455078125,-0.3560318808621862,-0.6082870319467096,-0.8843114283924083
25236.0457083323,0.23870849609375,-1.085678100585938,0.0653533935546875,-0.4663157784473485,-0.3608346255720351,-0.8888435959355051
25266.1357083334,0.4054412841796875,-0.7385406494140625,0.0736236572265625,-0.4663157784473485,-0.3608346255720351,-0.8888435959355051
25296.1957083335,0.443450927734375,-1.031784057617188,-0.1903533935546875,-0.5782577601271942,0.5382877069067399,-0.4212242001345629
25326.2867083331,0.35723876953125,-0.9478607177734375,-0.0453033447265625,-0.4574354677924793,-0.1261091997307402,-0.05389545624436957
25356.3607083333,0.3030548095703125,-0.964752197265625,0.0047454833984375,-0.4286293858616372,0.03376142577115252,0.2276619236820777
25386.4507083326,0.2555084228515625,-0.8814697265625,-0.1454925537109375,-0.4856532574385228,-0.02682761955702221,0.3735600082087607
25416.5477083334,0.2922821044921875,-0.937225341796875,-0.24835205078125,-0.3296937503135206,-0.09654811163086063,0.3794658342421204
25446.6007083329,0.272308349609375,-0.9264678955078125,-0.1532440185546875,-0.1770794398337667,-0.3762953409643811,0.3248649066249888
25476.6907083331,0.15802001953125,-0.94549560546875,-0.1154937744140625,-0.09908876731079623,-0.5386459020733556,0.3424652056371045
25506.7817083327,0.1277008056640625,-0.93646240234375,-0.083953857421875,-0.05842469431026734,-0.1601894058843752,0.1891262490247402
25536.8427083331,0.1555938720703125,-0.9657745361328125,-0.092071533203125,-0.05842469431026734,-0.1601894058843752,0.1891262490247402
25566.9357083334,0.1984100341796875,-0.9351959228515625,-0.0935516357421875,-0.06752578101950413,-0.03186019506894495,0.02631123262165585
25597.0167083342,0.2083892822265625,-0.953277587890625,-0.1319427490234375,-0.04786552690421216,0.08470476794716926,-0.02860101852690598
25627.0957083334,0.2545166015625,-0.9473114013671875,-0.1480255126953125,0.01491849579440588,0.08080510116296623,-0.006782006031995788
25657.1737083332,0.219970703125,-0.9656524658203125,-0.115142822265625,0.03763978726663492,-0.04175144167360825,0.08045835758903791
25687.227708333,0.184722900390625,-0.95263671875,-0.10198974609375,0.03763978726663492,-0.04175144167360825,0.08045835758903791
25717.3017083342,0.2175140380859375,-0.95147705078125,-0.1007843017578125,0.05066850395152056,-0.0386981274838324,0.06029742918881106
25747.4097083332,0.2118072509765625,-0.9498291015625,-0.1146240234375,0.02948545432492129,-0.01446149735134828,0.04080442158997607
25777.4627083327,0.2049713134765625,-0.97076416015625,-0.114227294921875,0.01792946572284946,-0.02101899890345039,0.02370932423664843
25807.5687083328,0.196502685546875,-0.9490966796875,-0.112213134765625,0.02218333293203303,-0.0433024666924704,0.02814322113552136
25837.6487083342,0.17095947265625,-0.959075927734375,-0.09027099609375,0.01357200154726181,-0.03477342698538263,0.03335023369884428
25867.7037083335,0.205810546875,-0.9645233154296875,-0.1056671142578125,0.000653539731505445,0.03857508944147074,0.03385703325428636
25897.7987083326,0.1917877197265625,-0.9718475341796875,-0.101531982421875,-0.01919260302787405,0.01564367455923445,0.09457497557922093
25927.8807083329,0.2025604248046875,-0.9619140625,-0.1200714111328125,-0.01929167262042499,0.01253496661878496,0.1041823292116818
25957.9697083327,0.172698974609375,-0.96142578125,-0.101409912109375,-0.01929167262042499,0.01253496661878496,0.1041823292116818
25988.0377083327,0.197296142578125,-0.9542083740234375,-0.1196441650390625,-0.03161971162251079,-0.02931687622791928,0.06386286925620914
26018.1187083326,0.1684417724609375,-0.9641876220703125,-0.1081390380859375,-0.04210004946029962,0.1224121995054922,0.02660924034763572
26048.214708333,0.1850738525390625,-0.95050048828125,-0.1197357177734375,-0.03777933690775506,0.03442535183090927,-0.06656331460154949