time(ms),accelerometerAccelerationX,accelerometerAccelerationY,accelerometerAccelerationZ,gyroRotationX,gyroRotationY,gyroRotationZ
0,0.0557098388671875,-1.036651611328125,-0.1060943603515625,0.0629573944855822,0.104322677801129,-0.007622233355915787
30.0950000000739,0.142791748046875,-0.8344879150390625,-0.1552886962890625,0.08173374543507686,0.3361050443217773,0.1050731565963133
60.1850000002742,0.1206512451171875,-0.9758758544921875,-0.12890625,0.1360449211256078,0.2297234766819081,-0.1655205217544958
90.277000000242,0.1136322021484375,-0.9551239013671875,-0.1233062744140625,0.1580615401734019,-0.003392334596542933,-0.1979857870231068
120.375000000422,0.112548828125,-0.9697723388671875,-0.0784149169921875,0.1580615401734019,-0.003392334596542933,-0.1979857870231068
150.45900000041,0.124664306640625,-0.9926300048828125,-0.1117706298828125,0.1528278959991781,0.05812535500374243,-0.2154574553545716
180.538000000524,0.20660400390625,-0.9802093505859375,-0.1039886474609375,0.161223511335653,0.1610983427644192,-0.1148221903987664
210.628000000725,0.16485595703125,-0.9804229736328125,-0.1540374755859375,0.1731613972380421,0.1033980282706534,-0.0259399879656988
240.718000000015,0.197998046875,-0.969390869140625,-0.107757568359375,0.2120680502352278,-0.01499679273045421,0.04541861449464736
270.825000000514,0.139129638671875,-0.9878387451171875,-0.0554046630859375,0.1806267704057523,-0.1868092988763712,0.110173642716033
300.919000000249,0.061065673828125,-0.985992431640625,-0.0569305419921875,0.1718234251063863,-0.02812244847901874,0.01535738474205093
331.010000000788,0.0677032470703125,-1.032669067382812,-0.0040740966796875,0.1718234251063863,-0.02812244847901874,0.01535738474205093
361.100000000079,0.1387939453125,-0.9933624267578125,0.0087432861328125,0.1579126694684664,0.1492733748922494,-0.00397130581752616
391.180000000531,0.19482421875,-0.9345703125,-0.054290771484375,0.08729575737170735,0.1736197272616448,0.004918059585049329
421.281000000818,0.139251708984375,-1.027099609375,0.0103607177734375,0.03093954028010456,0.2559196607444725,0.07108775897748511
451.371000000108,0.18963623046875,-0.857696533203125,-0.0655517578125,0.04645751363588727,0.4856117121255176,0.1890980195171853
481.462000001557,0.085174560546875,-1.017990112304688,-0.0297698974609375,0.04908605363179548,0.3356520406203548,0.06220664937428886
511.553000000276,0.1249237060546875,-0.9334564208984375,-0.0923004150390625,0.154806891005216,0.3542201323726052,-0.03830424595860969
541.639000000032,0.1285247802734375,-0.957763671875,-0.137359619140625,0.154806891005216,0.3542201323726052,-0.03830424595860969
571.705000000293,0.2364349365234375,-0.9724884033203125,-0.01763916015625,0.236041826368121,0.4395882937473133,-0.1543381746533621
601.805999999669,0.2465667724609375,-0.941680908203125,0.0768585205078125,0.3057423447337839,0.3216326280099597,-0.1658456937235945
631.883000000016,-0.014923095703125,-0.9832763671875,-0.2352447509765625,0.3629702144501696,0.2224932606384519,-0.2116605865884456
661.973000000216,0.0362091064453125,-0.9274139404296875,-0.0718536376953125,0.4141654916653079,0.09201674303609081,-0.1891400974624086
692.076999999699,0.1244354248046875,-0.956573486328125,0.0387420654296875,0.5687529381967014,0.03040025015936351,-0.3548265341528163
722.156000000723,0.096038818359375,-0.9550933837890625,0.0015869140625,0.6597337115687514,-0.06788264460557475,-0.5601967342464947
752.244000000246,0.093841552734375,-0.9442291259765625,0.1640777587890625,0.6597337115687514,-0.06788264460557475,-0.5601967342464947
782.326000000467,0.212249755859375,-0.9933929443359375,0.129425048828125,0.5484721675474209,0.1801404771907038,-0.8715780562724125
812.442000000374,0.2760009765625,-0.952117919921875,0.1281585693359375,0.5484721675474209,0.1801404771907038,-0.8715780562724125
842.534000000342,0.1820220947265625,-0.9880523681640625,0.053558349609375,0.5007022481263426,0.2921756695087022,-0.8129855828134701
872.626000000309,0.392364501953125,-0.9641571044921875,0.05706787109375,0.4728591652456732,0.1891126669031808,-0.7933796571844157
902.718000000277,0.2671661376953125,-0.9621124267578125,0.0828857421875,0.5056216392919369,-0.1579126694684664,-0.7185086115623641
932.786000000306,0.3293304443359375,-1.00115966796875,0.1580047607421875,0.5310076897508993,-0.258357252090222,-0.7826740159184062
962.90399999998,0.35736083984375,-1.052963256835938,0.162994384765625,0.5310076897508993,-0.258357252090222,-0.7826740159184062
992.993000000752,0.2709808349609375,-1.124465942382812,0.25482177734375,0.4018667474352129,-0.2485674719230907,-1.090573787451263
1023.08500000072,0.3690185546875,-1.279159545898438,0.3588104248046875,0.4018667474352129,-0.2485674719230907,-1.090573787451263
1053.17300000024,0.228973388671875,-1.274551391601562,-0.0032806396484375,0.3890441594186994,-0.2216080258921096,-1.292204110426143
1083.23800000016,-0.0225830078125,-1.426727294921875,0.0394287109375,0.3588409831800017,-0.3807912895166529,-1.742111354449187
1113.35300000155,-0.1738128662109375,-1.518508911132812,0.067413330078125,0.6340736218336198,-0.6166821146509665,-2.678195699697171
1143.44600000004,-0.068023681640625,-1.64447021484375,0.1900634765625,1.101264248699059,-1.291859763697196,-3.434254083681326
1173.53600000024,-0.1881866455078125,-2.439849853515625,0.3185272216796875,1.200037165104572,-3.473837978543719,-3.810854090274412
1203.62300000033,-0.9004364013671875,-2.29620361328125,0.4217376708984375,0.9256436885104381,-0.009036638210856872,-4.841451625764328
1233.70800000066,0.9306640625,-2.71209716796875,0.66265869140625,0.9256436885104381,-0.009036638210856872,-4.841451625764328
1263.79100000031,0.63916015625,-1.920501708984375,0.056976318359375,0.2716890365071587,1.975645548334889,-5.353275500918951
1293.87600000155,0.1133575439453125,-1.150009155273438,0.0989990234375,0.1354252035399464,-0.1383448270430002,-3.046223257057401
1323.96400000016,-0.114227294921875,0.008575439453125,0.1238250732421875,-0.6259073046670008,-1.022767042936756,0.2295418490955647
1354.05199999968,-0.15850830078125,0.14996337890625,0.0393829345703125,-1.267689179959746,-0.07957844916487573,3.287053447065485
1384.14100000045,-0.0707550048828125,0.051483154296875,0.0173187255859375,-1.450180429444663,-0.002474875601010636,5.651432363919861
1414.23400000076,-0.0257720947265625,-0.0855865478515625,0.1235198974609375,-0.9328254350220547,-0.1527437401087317,6.823003799080904
1444.33000000026,0.4066314697265625,0.3338165283203125,0.2639007568359375,-0.9328254350220547,-0.1527437401087317,6.823003799080904
1474.41200000048,1.27423095703125,0.3148040771484375,0.3993682861328125,0.06733909342708957,0.5687326981724168,7.185286385337615
1504.50400000045,2.872283935546875,-0.4122772216796875,0.8375091552734375,0.3008535799207254,1.274439228058661,6.437962370780594
1534.59300000031,4.252853393554688,-0.873931884765625,1.00628662109375,0.5600958004411808,1.613047643805113,3.538874236576217
1564.68300000051,3.128738403320312,-0.3750762939453125,0.7043609619140625,0.8548656551677292,-1.646403470142246,-0.03848587354495309
1594.75300000031,1.0169677734375,-3.525726318359375,-1.402175903320312,0.8118228466815415,-1.14281115960095,-4.446371411734964
1624.84200000017,0.28271484375,-1.205108642578125,1.03131103515625,0.4245030840686684,3.928554092547118,-4.606793045266394
1654.92900000027,2.025665283203125,-0.4268035888671875,1.282485961914062,0.4245030840686684,3.928554092547118,-4.606793045266394
1714.99241666697,0.78924560546875,-1.672348022460938,0.778778076171875,0.2563918392057435,-0.8642951096393727,-1.292410505410625
1745.07541666753,1.102081298828125,-2.911544799804688,0.5291595458984375,-0.6179290066733415,-0.1222481487823433,-0.9224066162054467
1775.17941666702,-0.0491485595703125,-2.949844360351562,-0.3701171875,-0.3862489055385522,-2.4064589926065,-0.7337360340432192
1805.27141666698,-2.103347778320312,-2.210418701171875,0.541412353515625,-0.1738855107384347,-4.197731768146332,-0.09975908495716918
1835.36341666695,-0.3348236083984375,-1.158905029296875,0.8779449462890625,0.407446868867256,0.09953005310342236,-2.548056338288815
1865.45941666736,-0.45343017578125,-1.253097534179688,0.7296600341796875,0.407446868867256,0.09953005310342236,-2.548056338288815
1895.55141666733,-0.35345458984375,-2.770767211914062,0.3776092529296875,0.3381354383368537,-0.1692505451772608,-4.613808344209881
1925.64441666673,-0.59368896484375,-2.272048950195312,-0.10205078125,1.197066941540807,0.8809984559963497,-6.058414511176899
1955.73741666703,-0.320770263671875,-2.269134521484375,-0.04766845703125,1.184185497664203,-0.2669390223868934,-6.607481628911843
1985.83241666711,-0.2608184814453125,-1.645736694335938,0.09246826171875,0.7831288838325918,-1.190389331423542,-4.155439438455328
2015.92441666708,-0.32867431640625,-0.6266632080078125,0.0897369384765625,-0.5799275621306739,-0.3669915876961893,-0.4528673475746663
2046.00241666685,0.0287017822265625,0.415191650390625,0.1437835693359375,-1.713319653588231,0.500544855305919,3.240554121800483
2076.11141666712,0.3121337890625,0.1408843994140625,0.1353607177734375,-1.713319653588231,0.500544855305919,3.240554121800483
2106.20641666719,0.03302001953125,-0.4266815185546875,0.1661834716796875,-2.490757095855215,0.04192028608671927,7.068611167452372
2136.30041666693,-0.0576019287109375,-0.565704345703125,0.2662353515625,-2.168813410629934,0.08337212213769361,8.710511764823512
2166.39241666689,0.6683807373046875,-0.9216766357421875,0.51739501953125,-0.9119395941731083,1.827410539951662,9.309173333642349
2196.48041666733,2.038650512695312,-1.173110961914062,0.508544921875,-0.3426692037766046,1.758388328715642,9.017832032503167
2226.57941666694,4.744720458984375,-2.290634155273438,1.073150634765625,-0.2251401764458817,1.113239152540601,6.90474047399318
2256.6714166669,4.419418334960938,-0.728271484375,1.237503051757812,0.6285371762434542,-3.480111587123618,2.366264701222261
2286.76241666744,2.876190185546875,-0.3217620849609375,0.0760955810546875,0.6285371762434542,-3.480111587123618,2.366264701222261
2316.85541666684,2.71405029296875,0.5457305908203125,2.96575927734375,1.01716614884821,-3.021197798610036,-2.053978170741826
2346.94841666715,0.2260284423828125,-2.955032348632812,0.66552734375,1.577444375824061,6.612201282995682,-7.274964606620507
2377.04541666699,1.518692016601562,0.044464111328125,0.1248931884765625,0.8883975164529169,0.4273944780641675,-5.404873714407017
2407.13741666696,1.255386352539062,-1.51202392578125,0.2346343994140625,0.9277121657291026,-0.3432250054961041,-3.501191838732141
2437.22741666716,1.091995239257812,-2.439178466796875,0.5233612060546875,0.07334239115634619,-0.8357569417141927,-1.754264157451545
2467.31741666736,0.3473968505859375,-3.875473022460938,-0.0012969970703125,-0.3878614495785952,-2.595976459995373,-0.7591990498576848
2497.40841666699,-1.623519897460938,-2.752700805664062,-0.1605682373046875,-0.3878614495785952,-2.595976459995373,-0.7591990498576848
2527.49541666708,-1.704299926757812,-0.938751220703125,1.183578491210938,-0.4169373097278623,-5.152099779542147,0.1738724612490933
2557.58341666569,-0.4946441650390625,-1.437820434570312,0.81256103515625,-0.282755003468656,-0.4343575790502887,-1.960894831689158
2587.6594166657,-0.5776519775390625,-2.653884887695312,0.4828033447265625,0.1171378089665902,1.734932537414769,-6.844541315448593
2617.74941666681,-0.5514678955078125,-3.30987548828125,0.0988616943359375,0.9842414882915606,-0.4166440956918446,-7.264387596035148
2647.84541666722,-0.7376708984375,-2.620025634765625,0.079132080078125,0.8697026582327786,-1.345665205096721,-6.927059894456916
2677.93041666755,-0.647918701171875,-2.122268676757812,0.1436309814453125,0.8416265487567273,-1.336820580800459,-5.507141230794932
2708.01241666686,-0.7764739990234375,-1.211761474609375,0.3624420166015625,0.8416265487567273,-1.336820580800459,-5.507141230794932
2738.10041666729,-0.2076416015625,0.6169891357421875,-0.0319671630859375,0.3144021456503945,0.5519292169584528,-2.094544505730349
2768.19341666669,-0.0066986083984375,0.6890106201171875,-0.056793212890625,-1.313503806508488,1.99392628500552,2.524753412434512
2798.29541666732,0.1463165283203125,0.101593017578125,0.1654510498046875,-2.967869063045635,0.585611014213012,6.875069131024171
2828.38741666728,-0.127838134765625,-0.492340087890625,0.4409637451171875,-2.772192769319845,-1.184398550551409,9.259251846376594
2858.47841666691,-0.0275726318359375,-0.553192138671875,0.5454254150390625,-1.186463565660656,-0.05385950356965351,9.643756914033363
2888.56841666711,1.159530639648438,-0.8736419677734375,0.5791168212890625,-0.3066366342278325,2.726909976040792,9.72055395775576
2918.66041666708,3.668975830078125,-1.71112060546875,1.064056396484375,-0.3066366342278325,2.726909976040792,9.72055395775576
2948.75041666728,6.18646240234375,-1.916290283203125,1.112548828125,0.09809088085034354,2.391535436806024,7.678068126065953
2978.83741666737,3.273406982421875,-0.3473358154296875,0.250244140625,0.6294546352389865,-3.495317970631862,3.575606951175571
3008.92441666747,1.204345703125,0.413238525390625,1.291061401367188,0.8436289795803579,-2.629042534405906,-1.65611468705722
3039.02041666697,-0.87615966796875,-5.80877685546875,-1.491775512695312,1.797177269992646,8.195984248530241,-10.42718753401746
3069.10941666683,0.8433074951171875,0.4385833740234375,0.150421142578125,1.351368364571126,0.1377834326852115,-5.715903232852936
3099.20041666737,1.428253173828125,-1.589187622070312,0.4336700439453125,1.12060012979358,-0.9559797564875306,-3.585361311300204
3129.2884166669,1.027374267578125,-2.649032592773438,0.612335205078125,1.12060012979358,-0.9559797564875306,-3.585361311300204
3159.34441666741,0.31939697265625,-3.95758056640625,-0.0752410888671875,-0.179709577726329,-1.14478402933648,-1.623247550780116
3189.46141666675,-1.426116943359375,-2.952835083007812,0.03717041015625,-0.4209179366092037,-3.594712735151908,-0.6413437852934272
3219.54841666684,-1.258773803710938,-0.9984893798828125,1.341293334960938,-0.4471143869878772,-6.006951586272208,0.7020987455575138
3249.63841666704,-0.197113037109375,-1.594635009765625,0.433441162109375,-0.5214117877111258,1.64125637870345,-3.662262750937332
3279.72941666667,-0.466827392578125,-2.4443359375,0.387176513671875,0.4576245522298749,0.2090006212916745,-6.935709309045275
3309.814416667,-1.109222412109375,-2.961227416992188,0.2729034423828125,0.6195727096981384,-1.407793823851071,-6.402296784830035
3339.91241666718,-1.119094848632812,-1.860885620117188,0.323150634765625,0.6195727096981384,-1.407793823851071,-6.402296784830035
3369.99941666727,-1.09796142578125,-2.154342651367188,0.2949676513671875,0.9009910726156836,-1.945868744186713,-5.987635146253645
3400.08541666703,-0.86279296875,-1.504806518554688,0.26177978515625,0.514631645891893,-1.183347134553046,-3.619531798614792
3430.17341666746,0.0830230712890625,0.0167999267578125,-0.0258331298828125,-0.507270668638914,0.7819925129954549,-0.2986101330184427
3460.24841666713,0.3564910888671875,0.124053955078125,0.0919647216796875,-1.646467119692299,1.397865026675037,4.562963272678088
3490.34641666731,0.0868072509765625,-0.4752044677734375,0.2789154052734375,-2.180041564101817,-0.2882597574418497,8.906652513843412
3520.42841666753,-0.002655029296875,-1.11767578125,0.3784637451171875,-1.267348827972434,0.7486055276735676,10.11541659152407
3550.52341666669,0.7383575439453125,-1.458450317382812,0.6094970703125,-1.267348827972434,0.7486055276735676,10.11541659152407
3580.60941666736,3.5150146484375,-1.470458984375,1.05047607421875,-0.5686711791512359,3.092354533459754,10.50570817559736
3610.69941666756,4.619033813476562,-2.41650390625,1.00018310546875,-0.5162689573300738,3.646390843472678,8.740462739706979
3640.78541666731,4.5167236328125,-0.4664306640625,1.117050170898438,0.1517003135936386,-0.7967424306928588,5.663481569955816
3670.87241666741,2.74761962890625,-0.3243408203125,-0.0323944091796875,0.887260346667453,-3.515886362678871,-0.5379449580744468
3700.94641666674,0.647857666015625,0.6194915771484375,0.6636199951171875,0.9947127713816432,-0.521522042580255,-2.856050652040369
3731.02741666753,0.377838134765625,-7.495223999023438,-1.967041015625,0.1556500478063351,5.805369466513057,-11.52766002492444
3761.11741666682,0.443359375,1.2445068359375,0.3584136962890625,0.1556500478063351,5.805369466513057,-11.52766002492444
3791.20041666738,1.758758544921875,-1.712722778320312,0.3225860595703125,1.067915080264651,0.699346634887026,-5.745048867822763
3821.29441666712,1.084274291992188,-1.938232421875,0.757659912109375,0.1813098712253576,-1.116207511891603,-2.126698713783639
3851.38641666708,0.5991363525390625,-3.537689208984375,0.2257537841796875,0.1813098712253576,-1.116207511891603,-2.126698713783639
3881.47541666694,-0.849365234375,-2.725692749023438,-0.2166290283203125,-0.3613262451092637,-3.126733013655478,-0.7780491703693746
3911.56441666681,-1.665008544921875,-1.409149169921875,0.6872100830078125,-0.7642537296066552,-4.324661221492817,0.2906619287451012
3941.65941666688,-0.9440460205078125,-1.633453369140625,0.782623291015625,-0.4460270183147979,1.8567841415108,-1.857156451431193
3971.75341666753,0.24920654296875,-1.732467651367188,0.203125,0.572976978001676,2.438311198192175,-6.812378851595923
4001.84741666726,-0.3829345703125,-3.0631103515625,0.2924957275390625,1.01873661494303,-2.752286705435939,-6.310893900425206
4031.90941666708,-1.003463745117188,-2.325363159179688,0.2906494140625,1.01873661494303,-2.752286705435939,-6.310893900425206
4061.99641666717,-0.9322357177734375,-1.776031494140625,0.2530517578125,0.9052515977275923,-3.237447544388906,-5.927323069678838
4092.08441666669,-0.873931884765625,-2.367263793945312,0.3452911376953125,0.868706635985089,-2.542193921781223,-4.698208180212236
4122.17441666689,-0.4521636962890625,-0.7345428466796875,0.061492919921875,-0.04585137817178524,1.087068534824501,-1.831132307575047
4152.26441666709,0.1489410400390625,0.4137420654296875,-0.126129150390625,-1.016514207013359,3.575859951479128,2.124029161106943
4182.35541666672,0.48626708984375,0.1144561767578125,0.19757080078125,-2.400299899953474,2.216412355109029,6.632750766598951
4212.44041666705,0.26953125,-0.4864349365234375,0.1850433349609375,-2.383949688757041,-1.031895027573002,9.686404775729892
4242.53541666712,-0.0466766357421875,-0.7180938720703125,0.1251220703125,-1.121767925931579,-0.06651750823080012,10.38373113661398
4272.64641666716,0.24224853515625,-1.272003173828125,0.624176025390625,-1.121767925931579,-0.06651750823080012,10.38373113661398
4302.71641666695,2.791366577148438,-2.079788208007812,1.028701782226562,-0.08886595715041806,4.395878676415388,9.823675816221373
4332.80741666567,6.115036010742188,-2.227523803710938,0.81585693359375,-0.3094534597128093,3.139481832109797,7.346350639640082
4362.89741666678,3.946441650390625,-0.5350494384765625,1.048812866210938,0.3298998789818927,-5.031629024471322,2.717777197714583
4392.99941666741,2.288467407226562,-0.2503509521484375,-0.46435546875,0.6944717185116359,-3.295595536261914,-2.204985796135935
4423.10441666723,3.612472534179688,-6.33160400390625,-0.71624755859375,0.5740473024437789,5.656466271012329,-10.78835478840965
4453.19841666696,1.634414672851562,1.851577758789062,0.140777587890625,0.5740473024437789,5.656466271012329,-10.78835478840965
4483.29841666691,1.273529052734375,-1.570449829101562,0.6751556396484375,1.590109304704042,1.635447491733769,-5.754312407358494
4513.39341666699,1.167587280273438,-0.75958251953125,0.5556488037109375,0.9727576713550299,-1.036322000253041,-3.731965666147976
4543.46941666699,0.7875823974609375,-2.382064819335938,0.8924713134765625,0.2722211360929565,-1.222516907865931,-2.026246674310831
4573.56041666753,0.8492279052734375,-3.33013916015625,-0.272125244140625,-0.6049769890278501,-1.453847069633484,-1.567078287597037
4603.65041666682,-1.159042358398438,-2.871917724609375,0.0302581787109375,-0.839297348067344,-3.772204698638528,-0.2482087441242571
4633.77441666671,-2.196136474609375,-1.5421142578125,1.037734985351562,-0.839297348067344,-3.772204698638528,-0.2482087441242571
4663.8614166668,-0.114990234375,-1.628997802734375,0.8041534423828125,-0.6396936906820141,2.253499270133363,-4.160291185329235
4693.96741666696,-0.2487640380859375,-2.25469970703125,0.3965911865234375,-0.6396936906820141,2.253499270133363,-4.160291185329235
4724.04341666697,-0.6465301513671875,-3.22943115234375,0.321136474609375,0.958377400416929,-0.4817754285752585,-6.538636784204423
4754.15941666688,-0.637237548828125,-2.529190063476562,0.0713043212890625,1.174160027740599,-0.8356133973314374,-7.195307327887365
4784.24841666674,-0.565826416015625,-2.561599731445312,0.2826385498046875,1.123121610713667,-1.958856181874703,-6.083850895380463
4814.34041666671,-0.6399688720703125,-1.512542724609375,0.025360107421875,0.2954404386890304,-1.226041601568651,-2.696187483389529
4844.41941666682,-0.3162689208984375,0.0518035888671875,-0.0858917236328125,-0.663891438662583,1.022805658772562,1.426765650824577
4874.51241666713,0.0398712158203125,0.41143798828125,-0.0154571533203125,-0.663891438662583,1.022805658772562,1.426765650824577
4904.6044166671,0.2352752685546875,-0.2439117431640625,-0.001708984375,-1.705207398591741,1.537468996281427,6.236459613221928
4934.68641666732,-0.0716705322265625,-0.836151123046875,0.109893798828125,-2.187129567343062,0.02796745250357613,9.826200492934767
4964.79141666714,0.1739349365234375,-0.772186279296875,0.4232635498046875,-1.625383139658251,1.089275230103741,10.39497819852961
4994.88241666677,1.844345092773438,-1.230804443359375,0.623046875,-0.9756650443170694,3.376467216452133,10.2791733016886
5024.97441666674,4.564056396484375,-2.440963745117188,1.250152587890625,-1.22170118162404,4.158918325787299,7.832586863041223
5055.0664166667,5.39923095703125,-0.908721923828125,1.677825927734375,0.05695010201469046,-1.54187865841438,3.240402321618349
5085.15241666737,3.380859375,-0.0570526123046875,0.558349609375,1.127358700007983,-2.321394165279953,-1.958415961346513
5115.24041666689,5.764007568359375,-0.641082763671875,3.61090087890625,1.127358700007983,-2.321394165279953,-1.958415961346513
5145.33541666697,2.118453979492188,-0.947967529296875,-0.4002838134765625,1.994384615029123,5.593211934065203,-10.17180210338766
5175.42441666683,1.24908447265625,-1.13555908203125,1.064193725585938,1.79951978648748,0.1983615590529169,-4.988330818836596
5205.5164166668,1.09881591796875,-1.975051879882812,0.891510009765625,0.8077159859645303,-0.4684007672647715,-3.052801531266006
5235.60841666676,0.778472900390625,-3.57562255859375,0.410919189453125,-0.3864973784682566,-1.319885805744754,-1.639736246353233
5265.70641666694,-0.5722198486328125,-3.064422607421875,-0.570526123046875,-0.1561584452584313,-3.828709253802848,-0.1051248219214608
5295.80141666702,-3.117919921875,-1.622573852539062,0.3044281005859375,-0.0328666036448859,-5.997256082007665,1.708863652452311
5325.89741666743,0.161224365234375,-1.804031372070312,1.093246459960938,-0.0328666036448859,-5.997256082007665,1.708863652452311
5355.99141666717,-0.5836029052734375,-1.851348876953125,0.20745849609375,-0.3009276157990297,1.79341262547571,-4.719457542549979
5386.06141666696,-0.1143035888671875,-3.314590454101562,0.1680145263671875,1.044254491875951,0.5891825795509172,-7.307499913025787
5416.18341666708,-1.03179931640625,-2.74554443359375,0.196014404296875,0.7514740184836919,-2.556680186530709,-6.60930536162633
5446.27941666567,-1.199661254882812,-1.852630615234375,0.2250823974609375,0.5444055205628699,-3.082362353049777,-5.959854647658593
5476.37441666757,-1.095245361328125,-1.867111206054688,0.2910614013671875,0.2790699874683133,-1.709339825655217,-4.493835600262901
5506.46741666696,-0.6461334228515625,-0.920196533203125,0.3333892822265625,-0.2775314793065745,1.726765687615932,-1.817748857832963
5536.54341666697,0.0313262939453125,0.2982330322265625,0.1103515625,-0.2775314793065745,1.726765687615932,-1.817748857832963
5566.65341666667,0.1920928955078125,0.4625701904296875,0.19085693359375,-1.840375340770386,2.637402197067665,3.073858080740827
5596.72241666703,0.2810211181640625,-0.1328125,0.5162811279296875,-2.926673689407636,0.9064702602424126,7.574422157497813
5626.83741666569,0.0695037841796875,-0.8845672607421875,0.4059906005859375,-2.052079603200708,-0.4885675546193965,9.944474672738494
5656.92041666716,-0.0624542236328125,-1.1177978515625,0.56549072265625,-0.9571028115192171,1.086418989834631,10.22438036015688
5687.02241666688,1.533782958984375,-1.687164306640625,0.874267578125,-0.892803183844235,4.747696637484743,9.555287767885366
5717.11841666729,4.932571411132812,-2.227020263671875,1.306732177734375,-0.7522804236617679,2.796333259336977,7.152225903565371
5747.21441666679,5.219879150390625,-1.084365844726562,1.471267700195312,-0.7522804236617679,2.796333259336977,7.152225903565371
5777.28641666727,3.748626708984375,-0.2866058349609375,0.8270263671875,0.6164083416909063,-3.01729094129089,2.145933927388954
5807.40341666569,1.798385620117188,0.1519317626953125,1.303619384765625,1.496501322916629,-3.702614168825885,-2.547812659049072
5837.48541666682,-1.38531494140625,-6.9345703125,-1.374954223632812,2.417654655513084,3.695360250648728,-6.389369800898789
5867.56341666569,1.455154418945312,1.073684692382812,-0.0063934326171875,1.456316352596206,2.168201149895324,-6.091087236694427
5897.66141666678,1.070693969726562,-0.9495391845703125,0.775360107421875,1.53831907730138,-1.027199874571193,-3.588072142973795
5927.75541666742,0.953582763671875,-1.965301513671875,0.4691314697265625,0.7945591712312119,-1.4670126727984,-1.804393104966216
5957.85041666568,0.92974853515625,-3.094757080078125,0.43072509765625,0.7945591712312119,-1.4670126727984,-1.804393104966216
5987.93941666736,-0.5248260498046875,-3.17340087890625,-0.241180419921875,-0.3371295623931307,-2.631727267100815,-1.600256214773353
6018.04841666672,-1.899749755859375,-1.796401977539062,0.450958251953125,-0.7925982857205865,-3.458454228506876,-0.259396950179789
6048.14241666736,0.226531982421875,-2.614547729492188,1.405166625976562,-0.5525966051276266,-4.155585113366956,1.843546899312561
6078.23541666676,0.016571044921875,-0.3785247802734375,0.79095458984375,-0.9322557848648868,2.816118415707394,-3.938077290289133
6108.33141666717,-0.35491943359375,-2.545883178710938,0.0698394775390625,1.365095095777721,0.1938576210173749,-7.001031856894957
6138.43041666678,-0.651702880859375,-3.636795043945312,0.1402130126953125,1.280893398960468,-2.091183063802451,-6.935194253690454
6168.52341666709,-0.98492431640625,-2.273574829101562,0.27288818359375,1.280893398960468,-2.091183063802451,-6.935194253690454
6198.6254166668,-1.034194946289062,-2.175384521484375,0.3531646728515625,0.9227126134146969,-3.339239153890024,-6.64570331687666
6228.72141666721,-0.6459808349609375,-1.748794555664062,0.3642120361328125,0.9738900474505315,-2.255704367515949,-4.682137600930262
6258.82041666682,-0.3269805908203125,0.0638427734375,0.110015869140625,-0.1829573026756806,0.978203835784242,-0.5871154339127977
6288.92141666711,0.0205841064453125,0.67730712890625,0.1694488525390625,-1.531231074060134,3.729252970261621,4.684588774397571
6319.01641666718,0.5760040283203125,-0.271820068359375,0.466888427734375,-2.646642567101913,2.638210732774613,9.032835216820239
6349.10841666715,0.2667694091796875,-0.8798065185546875,0.3387908935546875,-2.280437677191733,-1.041566563387734,10.88904997448998
6379.20441666756,-0.121734619140625,-0.6685943603515625,0.4728240966796875,-2.280437677191733,-1.041566563387734,10.88904997448998
6409.30041666707,1.516357421875,-1.143585205078125,0.902740478515625,-1.085328425368243,2.291447717770339,10.77839030487501
6439.39641666748,4.390838623046875,-1.72686767578125,1.221923828125,-0.5712467222414516,4.169524631144649,9.121378931478757
6469.49141666755,5.657943725585938,-1.678176879882812,1.099563598632812,-0.06630259113083073,2.405511972522868,6.375842007825623
6499.58541666729,3.811813354492188,-0.4149932861328125,0.6327056884765625,0.5186759223232874,-4.313134793978844,0.3665851893138432
6529.67541666749,1.532699584960938,-0.1105499267578125,0.1376495361328125,0.9561691072410353,-2.253365579446641,-3.529516154821787
6559.77841666754,-2.317855834960938,-7.934860229492188,-0.8921966552734375,1.056543648726122,1.814760524773785,-8.502997720052319
6589.87141666694,2.646865844726562,2.019775390625,-1.072769165039062,1.056543648726122,1.814760524773785,-8.502997720052319
6619.97641666676,0.7340087890625,-1.495849609375,1.368240356445312,1.726234919610679,2.800592452868341,-5.346097216516751
6650.0674166673,1.268630981445312,-1.4779052734375,0.2362823486328125,1.236215143248863,-1.309013184278397,-3.3681112822159
6710.11662500041,-0.2942657470703125,-3.37481689453125,-0.20745849609375,-0.564472173060508,-3.363345821761312,-1.523930816880009
6740.22462500034,-2.21087646484375,-2.21563720703125,0.5336151123046875,-0.7259345699459411,-4.646777213240625,0.541212923048083
6770.32362499995,0.21185302734375,-2.026580810546875,1.077972412109375,-0.5328255635109874,-0.1525730314828576,-0.3899182088884634
6800.42962500011,-0.0299530029296875,-0.6721649169921875,0.9707183837890625,-0.5328255635109874,-0.1525730314828576,-0.3899182088884634
6830.52162500007,-0.8293609619140625,-2.586349487304688,0.184112548828125,-0.135916823077175,2.221782619447174,-5.418700314154491
6860.63662500055,-0.8101043701171875,-3.244644165039062,0.289825439453125,0.8815505292903232,-1.248836662603075,-6.550418076234715
6890.73262500006,-0.642730712890625,-2.132537841796875,0.0335540771484375,0.9818675464958639,-1.684702123462567,-6.688615364153326
6920.82962500081,-0.78375244140625,-2.347381591796875,0.280853271484375,0.8876707397914343,-3.512681780939178,-5.648732451206739
6950.92362500054,-0.7162933349609375,-1.38433837890625,0.1511383056640625,0.1703911770721417,-1.440265747022407,-2.462492434573986
6981.02562500026,-0.0369110107421875,0.434844970703125,0.00634765625,-0.4170291887854701,1.350120140968206,1.571527897146341
7011.1226250001,0.1693115234375,0.6494293212890625,0.217010498046875,-0.4170291887854701,1.350120140968206,1.571527897146341
7041.2156250004,0.23406982421875,-0.0980682373046875,0.2940673828125,-1.150707432233034,2.461115047658196,6.502399683883933
7071.31262500025,0.0803070068359375,-0.94195556640625,0.3050384521484375,-1.78169791247267,1.246831834934464,9.715181829204852
7101.40562500055,0.1856842041015625,-0.8820343017578125,0.783966064453125,-1.571253325237954,1.231411333274578,10.2101931683978
7131.49962500029,1.969970703125,-1.37774658203125,1.05706787109375,-0.7895995663331573,3.816809184787938,10.10420042227709
7161.59462500036,4.709823608398438,-2.093994140625,1.32452392578125,-0.185525122598735,2.745424538255132,7.987954615772009
7191.68662500033,4.485549926757812,-1.306854248046875,1.365432739257812,0.5794865426541567,-2.872275694665568,4.571744780056515
7221.78062500006,3.621780395507812,-0.3492889404296875,0.0952301025390625,0.5794865426541567,-2.872275694665568,4.571744780056515
7251.87462500071,2.920989990234375,0.5404815673828125,3.005096435546875,1.073578558638814,-3.829568123254399,-1.339990275129871
7281.96862500045,-1.92315673828125,-6.17584228515625,-0.331817626953125,1.988181846534219,1.519663367549266,-5.115520196705472
7312.06462499995,2.253677368164062,1.37982177734375,-0.7045745849609375,1.784246025003657,-1.075342902860991,-6.691535253972488
7342.15962500002,1.063400268554688,-1.651153564453125,1.226730346679688,1.071566007803041,-1.059436107986057,-3.979296099744725
7372.23862500014,0.8141937255859375,-1.96990966796875,0.71197509765625,0.1794427289851031,-1.745120460164867,-2.173921353600706
7402.33262500078,0.661956787109375,-3.056808471679688,0.432281494140625,-0.9989218974845133,-1.225758507544775,-2.007308935799277
7432.41862500054,-0.281097412109375,-3.389251708984375,-0.516845703125,-1.129491093092809,-3.204641394500765,-0.9433252139358012
7462.52162499968,-2.228179931640625,-1.928573608398438,0.2754974365234375,-1.129491093092809,-3.204641394500765,-0.9433252139358012
7492.61762500009,-0.06805419921875,-1.724075317382812,1.196029663085938,-0.8059274069764331,-5.270043194738486,0.8065801477596115
7522.70962500006,-0.064117431640625,-1.046722412109375,0.999542236328125,-1.477042670095856,2.733329259532319,-2.625999606544382
7552.80362500071,-0.527252197265625,-2.1466064453125,0.2727203369140625,0.1862851887738436,2.67762418532724,-6.437585267170238
7582.89862500078,-0.626678466796875,-2.96246337890625,0.1567535400390625,0.6559506912402938,-0.1622472304586794,-6.760320976503709
7612.99262500052,-0.6018524169921875,-2.105697631835938,0.2158966064453125,0.6733914669031137,-1.437512038455265,-6.537001070662896
7643.08062500004,-0.5152130126953125,-2.331588745117188,0.3613128662109375,0.5467155464924046,-1.958151509450268,-4.32400262175524
7673.17162499967,-0.53369140625,-1.246353149414062,0.04290771484375,0.5467155464924046,-1.958151509450268,-4.32400262175524
7703.26362500055,-0.00689697265625,0.385467529296875,-0.1659698486328125,-0.06958147506493628,-0.8252624891226265,-0.9776879814810936
7733.35262500041,0.0894775390625,0.3155670166015625,0.1031646728515625,-0.8368238040468784,1.013926946014347,3.806672128414661
7763.44862500082,0.026611328125,-0.4825286865234375,0.3047637939453125,-1.541338569345312,2.034251337599282,7.823149685402417
7793.56462500073,0.0993499755859375,-0.7898406982421875,0.246002197265625,-1.66796388969531,1.137513599560564,9.580373680089478
7823.65362499968,0.4803314208984375,-1.115936279296875,0.3484954833984375,-1.069871704717532,1.746547381876932,10.10218600722855
7853.74362500079,1.91632080078125,-1.523101806640625,0.7447662353515625,-0.8207233973606953,2.117532912259913,9.630885323852793
7883.83462500042,4.329986572265625,-2.20819091796875,1.43707275390625,-0.8207233973606953,2.117532912259913,9.630885323852793
7913.92662500039,4.735107421875,-0.913421630859375,1.136245727539062,0.891560819195713,-3.846553232054706,1.5885825144511
7944.01462500082,3.611480712890625,-0.271728515625,0.31317138671875,0.891560819195713,-3.846553232054706,1.5885825144511
7974.10562500045,4.163070678710938,0.8179779052734375,4.131942749023438,1.353195026762811,-3.223094437693924,-2.389978286516654
8004.22662500023,0.3291168212890625,-3.695892333984375,-0.365020751953125,1.325490428258826,3.498822157994188,-8.890727343156955
8034.31662500043,1.548019409179688,0.1861419677734375,0.7068634033203125,0.9647170553918627,1.47682162772538,-6.076724276303412
8064.41762500071,1.278839111328125,-1.150299072265625,0.395751953125,0.977030180691844,-0.3425980973754995,-3.817240350568422
8094.49862499969,0.865447998046875,-1.717208862304688,0.51483154296875,0.977030180691844,-0.3425980973754995,-3.817240350568422
8124.6116250004,0.99395751953125,-2.748947143554688,0.40545654296875,0.2287042849327347,-0.7611452879823147,-2.406623043329649
8154.67762500066,0.233642578125,-3.1845703125,-0.1792755126953125,-0.3645430773899704,-0.9367908818851828,-1.742109490236424
8184.7976250001,-1.235794067382812,-2.338455200195312,0.158355712890625,-0.4508249693346846,-3.145847852379522,-0.497354920952222
8214.88962500007,-1.23101806640625,-1.537704467773438,1.040985107421875,-0.5842538673215075,-4.113669620970199,0.9076098268728575
8244.98262500038,0.141632080078125,-1.227645874023438,0.47589111328125,-0.5232760004741812,3.312740434727627,-3.694034262741977
8275.07462500034,-0.5019683837890625,-2.246658325195312,0.0172119140625,0.7100339003415139,0.2471818292079225,-5.780153592047752
8305.16862500008,-0.4585418701171875,-2.823623657226562,0.0636749267578125,0.7511392591346689,-2.385820293106713,-5.902944493060253
8335.2506250003,-0.86248779296875,-1.9080810546875,0.282470703125,0.8210216714027843,-3.339367518254566,-5.132543122393259
8365.35062500025,-0.81011962890625,-2.017852783203125,0.422637939453125,0.8210216714027843,-3.339367518254566,-5.132543122393259
8395.44162500079,-0.6244354248046875,-1.256393432617188,0.15753173828125,0.8175217450982021,-1.857433420184561,-3.198526776637943
8425.53262500041,-0.0709075927734375,0.0051422119140625,-0.0426025390625,-0.03058826933232311,0.7704474433538525,0.06846001792990392
8455.62362500004,0.28961181640625,0.1387939453125,0.0045166015625,-1.112028479509051,1.881690024025221,4.264699350601355
8485.71762500069,0.2798614501953125,-0.2425079345703125,0.2226104736328125,-1.865945149344563,0.6835002937688365,8.280812320835881
8515.80762499998,-0.0672607421875,-0.7151336669921875,0.3557891845703125,-1.499542919197609,0.2904696485143975,9.71482283508991
8545.89562500041,0.4901885986328125,-1.156036376953125,0.49969482421875,-1.499542919197609,0.2904696485143975,9.71482283508991
8575.98862500072,2.112319946289062,-1.647598266601562,1.034408569335938,-0.9896461074077674,3.140880524314306,10.21767771632536
8606.07962500035,5.106735229492188,-2.407394409179688,1.57830810546875,-0.5424725982436904,3.303003385150079,8.636930754433495
8636.17462500042,4.51220703125,-0.6109466552734375,1.265609741210938,0.4897079201981685,-1.771265511534502,5.635968985366426
8666.26062500018,3.063751220703125,-0.402801513671875,0.19573974609375,1.378275612644742,-4.438382993729162,-0.4985424244822884
8696.35362500048,2.834457397460938,0.1502685546875,2.55517578125,1.786055110332148,-2.09522334549221,-3.45269247948849
8726.42462500153,-0.0361480712890625,-1.788543701171875,-0.440185546875,1.254814393985867,-1.440375469259318,-4.686123287817674
8756.54862500051,0.7756805419921875,-1.13671875,0.4608154296875,0.677095923979414,0.9822923206897316,-4.991274144473351
8786.63662500003,1.477386474609375,-1.008926391601562,0.331695556640625,0.6541842164892442,-0.6139166881750281,-3.357788603514644
8816.73262500044,0.8241729736328125,-1.432846069335938,0.670654296875,0.6541842164892442,-0.6139166881750281,-3.357788603514644
8846.80162500081,1.1353759765625,-2.199050903320312,0.4563446044921875,0.01752892629490154,-0.6911949651064024,-2.243557956100207
8876.89662499997,0.71795654296875,-3.479278564453125,-0.3257904052734375,-0.588298942701229,-1.294554882720357,-1.349535843425042
8906.99462500015,-1.523330688476562,-2.613067626953125,0.1761016845703125,-0.6976640497103139,-3.226298753117507,-0.3762423440586885
8937.08362500001,-1.693817138671875,-1.148284912109375,0.92987060546875,-0.455441559084337,-2.854099087593559,0.2945157891585549
8967.17362500021,-0.32513427734375,-1.872543334960938,0.7470855712890625,-0.6499348766539138,2.194871376631923,-2.801606584611443
8997.27562499993,-0.1782379150390625,-2.0465087890625,0.4303741455078125,-0.6499348766539138,2.194871376631923,-2.801606584611443
9027.35862500049,-0.5158233642578125,-2.474319458007812,0.249053955078125,0.6536771506176932,-0.2401383007568809,-6.041765493306159
9057.4576250001,-0.4420623779296875,-2.039169311523438,0.264739990234375,0.7453748469551925,-2.122884268154318,-5.995192132162853
9087.5476250003,-0.362335205078125,-2.020584106445312,0.41571044921875,0.7177333653690421,-2.212106556258589,-5.100969749773715
9117.63962500027,-0.371185302734375,-1.384521484375,0.3406524658203125,0.460551099951763,-1.257127349392601,-2.652097519962722
9147.73662500011,-0.069671630859375,-0.0292510986328125,0.1533660888671875,-0.3896553548888726,0.83082902843311,0.7769942922615942
9177.82962500041,0.0951080322265625,0.32757568359375,0.0311126708984375,-1.3619842573084,1.708294534927361,5.085277339366533
9207.92362500015,0.1368560791015625,-0.0348052978515625,0.153961181640625,-1.3619842573084,1.708294534927361,5.085277339366533
9238.00962500081,-0.0677490234375,-0.502716064453125,0.3222503662109375,-1.88557451079121,0.6824917546640235,8.418104133983864
9268.10062500044,0.1048126220703125,-0.63165283203125,0.2989654541015625,-1.044465946866503,0.6972214323371427,9.257679516069011
9298.19062500155,1.062484741210938,-1.430618286132812,0.636138916015625,-0.2759498279351765,2.533226525758708,10.06932579517028
9328.28062499993,3.748825073242188,-2.02569580078125,0.77154541015625,0.08381979951693593,2.985428615693073,8.237847010337415
9358.37062500013,5.557952880859375,-1.37554931640625,1.14544677734375,0.3745975757694556,-0.7098304348342319,5.185231101399387
9388.45862500057,3.811447143554688,-0.067626953125,0.2732391357421875,0.9522103182806325,-3.367458275116613,-0.7365358152972195
9418.5526250003,5.928115844726562,-0.029998779296875,3.294021606445312,0.9522103182806325,-3.367458275116613,-0.7365358152972195
9448.64762500038,-1.569198608398438,-3.472946166992188,0.1057891845703125,1.477819247869723,4.96576159386261,-7.64153381696781
9478.73962500034,1.6510009765625,0.455657958984375,-0.0929718017578125,1.275526863047849,1.278563931954976,-6.352213910002222
9508.82762500078,0.979248046875,-1.143341064453125,0.5172882080078125,1.452099237010065,-0.3095008639802127,-4.200510244111611
9538.90462500021,0.974273681640625,-1.54150390625,0.8154144287109375,1.044524802726594,-1.097305726054766,-2.550554383391309
9569.00762500027,0.9127655029296875,-2.269363403320312,0.5286407470703125,0.1531735743086704,-1.307226203186953,-1.571709524732685
9599.09362500002,0.5311126708984375,-3.23577880859375,0.021087646484375,-0.6802693467343524,-2.236374878008045,-1.023672517707383
9629.18562499999,-1.241165161132812,-2.316726684570312,0.0770416259765625,-0.6802693467343524,-2.236374878008045,-1.023672517707383
9659.27662500053,-1.218215942382812,-1.277999877929688,0.86016845703125,-0.5569953483001105,-4.473732462458329,0.2037051917801609
9689.36662500073,0.11962890625,-1.735458374023438,0.8214569091796875,-0.3500160662758062,-0.2529206750409342,-0.9908964615395596
9719.4416250004,-0.553070068359375,-1.780532836914062,0.1303558349609375,-0.1851429589823086,1.752157863345402,-4.854675285841007
9749.53962499967,-0.4982757568359375,-2.456893920898438,0.1508026123046875,0.6329606868140758,-1.572040821972291,-5.838630217999276
9779.61662500002,-0.544708251953125,-2.321731567382812,0.0952606201171875,0.6572367317306931,-1.724295073072666,-5.99197450093382
9809.71062500066,-0.2559814453125,-1.961776733398438,0.3619842529296875,0.5836935382281548,-2.539229024539638,-5.508015812896915
9839.77762500035,-0.2603912353515625,-1.963180541992188,0.4324951171875,0.5836935382281548,-2.539229024539638,-5.508015812896915
9869.86362500011,-0.13568115234375,-0.503753662109375,0.2729339599609375,0.1502848434742615,-1.110064398205117,-3.017660055417975
9899.95262499997,0.14593505859375,0.5736083984375,0.147003173828125,-0.6909920322313384,1.171602327829687,0.05337773772845817
9930.05962500047,0.331939697265625,0.5914154052734375,0.2873382568359375,-1.587635760683577,2.077005725739414,4.371661487358862
9960.12362500005,0.0199737548828125,-0.1704559326171875,0.33154296875,-2.352146751651533,0.7922520747788763,8.092049593299937
9990.20262500017,-0.097198486328125,-0.5986328125,0.447357177734375,-1.691659898126508,0.2866810355476507,9.206222982750937
10020.3166250003,-0.063232421875,-0.9876708984375,0.6397705078125,-1.691659898126508,0.2866810355476507,9.206222982750937
10050.4026250001,1.033554077148438,-1.965301513671875,0.8841400146484375,-0.7110315204858576,2.759948353575988,9.481758955452715
10080.4936249997,3.306777954101562,-1.986892700195312,1.257598876953125,-0.4721555580856743,3.378742088655278,9.140940382317606
10110.5816250001,5.128494262695312,-1.453201293945312,1.23907470703125,-0.07675523209328274,1.710515611276487,6.937315195182593
10140.6456250015,4.125564575195312,0.0838165283203125,0.2847900390625,0.9627276740575734,-3.822681454991563,1.622012376666538
10170.7646250015,6.57489013671875,-0.8988494873046875,3.938735961914062,1.964881051208789,-2.737013476584334,-2.323287672814999
10200.8556250003,0.9405364990234375,0.0606842041015625,-0.098175048828125,2.454129043486701,-2.177997055332963,-4.38988656396271
10230.9406249997,1.749725341796875,-0.098663330078125,0.724945068359375,1.942880144811426,1.025473613552603,-4.814467412335209
10261.0386250008,1.314788818359375,-1.508712768554688,0.5921173095703125,1.942880144811426,1.025473613552603,-4.814467412335209
10291.1296250004,0.7622528076171875,-1.605178833007812,1.068939208984375,1.920472840031718,-1.189218073176125,-2.754144260296269
10321.220625,0.8833160400390625,-2.138946533203125,0.4461669921875,0.8312676510646461,-1.121333298041679,-1.684812910963914
10351.3066250007,0.502044677734375,-2.893203735351562,0.0108642578125,-0.6264031852619737,-1.594512042618161,-1.344759730326094
10381.4066250015,-0.9663543701171875,-2.333984375,0.202606201171875,-0.8267053898012313,-3.176028924381172,0.1966994802165985
10411.4966249999,-0.8997802734375,-1.245697021484375,0.7419586181640625,-0.8267053898012313,-3.176028924381172,0.1966994802165985
10441.5906249997,0.0132293701171875,-1.271957397460938,0.6788177490234375,-0.5238861306799184,-3.613168441506157,1.092460903399693
10471.6786250001,-0.1493682861328125,-1.382888793945312,0.0847930908203125,-0.3957305579675613,1.165036570478206,-1.681976910719089
10501.7586250005,-0.2871246337890625,-2.10321044921875,0.3110504150390625,0.7461764584433063,0.1010118359339424,-5.348534008914173
10531.8606250003,-0.6566619873046875,-2.302642822265625,0.108154296875,0.8801401191770172,-2.926457973359339,-5.61623176589563
10561.9476250004,-0.5077056884765625,-1.759109497070312,0.2132720947265625,0.6175340598836827,-3.190293081495745,-5.79453998825636
10592.0366250002,-0.202850341796875,-2.209121704101562,0.51043701171875,0.4951626067428688,-2.709545100469039,-5.000501465018258
10622.1266250004,-0.3122406005859375,-1.147262573242188,0.191314697265625,0.03356222132161459,-0.5691947566215455,-2.657575376008906
10652.2106250004,0.2121734619140625,0.0860443115234375,0.0257415771484375,-0.4588448126413492,1.603216584641085,0.4615955917312921
10682.3116250007,0.3011474609375,0.3736724853515625,0.2081146240234375,-0.4588448126413492,1.603216584641085,0.4615955917312921
10712.409625,0.1532135009765625,-0.0333099365234375,0.133331298828125,-1.281587685056652,1.722730998564462,4.757663784180473
10742.4986250007,-0.135894775390625,-0.6473388671875,0.369659423828125,-1.886007008152239,0.4518870379774082,8.188348965684984
10772.5946250002,-0.111358642578125,-1.0029296875,0.3718719482421875,-1.518023659266104,1.542982805002327,9.193321565166157
10802.6856250008,0.6417694091796875,-1.662582397460938,0.5956268310546875,-0.9962600679749791,3.670302834268281,9.575071858991347
10832.7736250003,2.587234497070312,-2.047332763671875,0.7610626220703125,-0.9579182714449994,3.054771471524338,8.964475067431213
10862.8626250002,5.2589111328125,-2.065231323242188,0.922119140625,-0.8183345418628942,0.08366480354149332,6.575238204962036
10892.951625,3.7672119140625,-0.050750732421875,1.025726318359375,-0.8183345418628942,0.08366480354149332,6.575238204962036
10923.0406250008,3.416168212890625,0.23858642578125,2.131759643554688,0.7045368695354814,-1.951287478056698,0.6707528068950632
10953.0976250007,-2.221389770507812,-6.194168090820312,-3.438278198242188,2.911322429936092,-1.885135621843565,-3.737209696650451
10983.187625,1.021331787109375,1.524642944335938,0.4441375732421875,1.708434084568481,-2.739435887911871,-5.394704700100659
11013.2946250005,1.411544799804688,-1.328353881835938,0.6652374267578125,1.314802896488229,0.8887253515831056,-4.690629889014306
11043.3936250001,0.724884033203125,-1.332077026367188,0.740386962890625,1.07804388083855,-1.116663977702443,-2.586397602186576
11073.4596250004,0.9521026611328125,-1.722671508789062,0.57891845703125,0.1317766728465378,-0.7257204517942987,-1.838666656614991
11103.5686250007,0.9154052734375,-2.987594604492188,0.0979461669921875,0.1317766728465378,-0.7257204517942987,-1.838666656614991
11133.6406250002,-0.2160797119140625,-2.94781494140625,-0.15740966796875,-0.6454535754876375,-1.101771847202828,-1.421500847665599
11163.753625,-1.3291015625,-1.39959716796875,0.29083251953125,-0.3679103782722666,-3.770621183054367,-0.08582036612780346
11193.8326250001,-0.1621856689453125,-1.7833251953125,1.039154052734375,-0.1976694034856054,-5.478783891507769,1.078950154557504
11223.9406250001,0.0149688720703125,-0.7870025634765625,0.729400634765625,-1.040602232757017,2.007064457611208,-1.506855693234857
11254.0206250005,-0.411895751953125,-1.700973510742188,-0.0236053466796875,0.3855325152053209,2.101032232461891,-6.024385171400084
11284.1146250003,-0.3252410888671875,-2.98602294921875,0.1004180908203125,0.5282156316640603,-1.261622765312655,-6.068314013580941
11314.2066250002,-0.76776123046875,-2.035110473632812,0.253631591796875,0.5282156316640603,-1.261622765312655,-6.068314013580941
11344.3136250007,-0.35162353515625,-2.044265747070312,0.5132598876953125,0.285916441998689,-2.738400717196157,-6.198397714922516
11374.4046250004,-0.3737335205078125,-1.773696899414062,0.421722412109375,0.308299512012478,-2.117287102491299,-5.077034323160519
11404.495625,-0.3184814453125,-0.353607177734375,0.19879150390625,-0.07790651663252399,-0.5600486624898864,-2.423040632501661
11434.5886250003,0.2451324462890625,0.461090087890625,0.0960845947265625,-0.6117795014002395,2.008978737802757,1.326183116458356
11464.6816249997,0.3211517333984375,0.193634033203125,0.2043609619140625,-1.428929469210267,2.006124894378628,6.111017269028144
11494.7736250006,0.087249755859375,-0.52947998046875,0.2870330810546875,-1.812282187063358,0.2161927541315425,9.208925558625149
11524.8646250002,-0.05548095703125,-0.8706817626953125,0.18328857421875,-1.812282187063358,0.2161927541315425,9.208925558625149
11554.9566250002,0.48590087890625,-1.412750244140625,0.5933990478515625,-1.208753425036293,0.8821012710037516,9.91367468209951
11585.0506250008,2.38323974609375,-2.217803955078125,0.6758880615234375,-0.8338666299724544,4.186552084206288,10.20275975316317
11615.1446250005,5.03057861328125,-1.82342529296875,1.43035888671875,-0.9354854003188259,3.334883021294981,8.134008761538571
11645.2426250007,3.593307495117188,-0.4121246337890625,1.172073364257812,-0.3703945749370925,-0.1744455735156784,4.974749762541628
11705.3089999999,4.1781005859375,-4.345916748046875,0.337493896484375,2.396178125534358,1.451489639436546,-5.506134555902882
11735.412,0.947021484375,-0.90997314453125,-0.2197418212890625,2.396178125534358,1.451489639436546,-5.506134555902882
11765.5070000001,1.368804931640625,-0.920623779296875,0.2161102294921875,1.188190625627573,1.085638949951347,-6.251536300785085
11795.6050000003,0.983123779296875,-1.154571533203125,0.515655517578125,1.376208733322731,-0.1003729435884324,-4.220517508116941
11825.7010000007,0.9134368896484375,-1.747528076171875,0.566131591796875,0.8528760075173309,-0.9776126140222443,-2.421742075154138
11855.7970000002,0.830780029296875,-2.82147216796875,0.251922607421875,-0.1041072280689415,-0.627253532598036,-1.566234065531482
11885.8890000001,0.032623291015625,-2.882492065429688,-0.2965087890625,-0.5429359882733642,-1.792658684571109,-1.037101773820216
11915.9720000007,-1.442306518554688,-1.91583251953125,0.3274078369140625,-0.4095377166390772,-3.964529936764671,0.1345436972191301
11946.0879999997,-0.5391845703125,-1.269622802734375,1.086151123046875,-0.4095377166390772,-3.964529936764671,0.1345436972191301
11976.181,0.106658935546875,-0.8802032470703125,0.5438232421875,-0.2631922210492609,-1.671829201701451,-0.0501856728458892
12006.2740000003,-0.4738616943359375,-1.837265014648438,0.05584716796875,-0.2050205270425511,1.730933268405797,-4.095059184956616
12036.368,-0.56463623046875,-2.645111083984375,0.090911865234375,0.7674527187080583,-0.8509300357088101,-5.621555957546916
12066.4420000003,-0.5298004150390625,-2.014877319335938,0.2339935302734375,0.6147382733713176,-2.094067000946898,-6.066701735857007
12096.544,-0.47027587890625,-2.244720458984375,0.406402587890625,0.5202495842114152,-2.596626004985243,-5.858667842041031
12126.6230000001,-0.551666259765625,-1.5732421875,0.399566650390625,0.1108727225021788,-1.191825840515531,-3.614083769972817
12156.7330000007,-0.2592315673828125,-0.246734619140625,0.2245635986328125,0.1108727225021788,-1.191825840515531,-3.614083769972817
12186.8030000005,0.2127838134765625,0.2031097412109375,0.0947723388671875,-0.7328201729443409,1.231348748988961,-0.5343606095633091
12216.8950000005,0.4523468017578125,0.03106689453125,0.2028045654296875,-1.666585437515085,2.468531951294067,3.9179339387521
12247.0010000015,0.0878143310546875,-0.61981201171875,0.2669677734375,-2.400291111521877,0.3321931269965599,8.156346291497719
12277.0909999999,-0.0236663818359375,-0.80133056640625,0.107208251953125,-1.621510104484948,-0.8228126472358626,9.771976402611882
12307.1830000008,0.6904144287109375,-1.628372192382812,0.42181396484375,-0.4595670619289787,2.278769206768798,10.09293312033718
12337.27,3.034759521484375,-2.005844116210938,0.8450164794921875,-0.4054010285178571,4.784409911008138,8.719291674305286
12367.3560000016,5.65081787109375,-1.765853881835938,1.263595581054688,-1.010070955072021,2.087829078725605,6.082854873132774
12397.4610000005,3.74774169921875,0.0156097412109375,1.246597290039062,-1.010070955072021,2.087829078725605,6.082854873132774
12427.549,3.257354736328125,0.4741668701171875,3.107925415039062,2.676957596106394,-0.8563935106851076,-4.118349860269904
12457.6340000003,-2.5924072265625,-6.503189086914062,-2.1260986328125,2.676957596106394,-0.8563935106851076,-4.118349860269904
12487.7300000007,1.337692260742188,2.402572631835938,-0.0032806396484375,2.235679526647425,-1.521355273789794,-5.511167930363132
12517.8189999997,1.007980346679688,-1.588241577148438,0.6723785400390625,1.487823945136824,0.2764145495453953,-4.217746489002714
12547.9060000007,0.98211669921875,-1.215850830078125,0.7335662841796875,1.235385568569303,-0.2190465975556714,-2.629144533475656
12577.9970000003,0.9241790771484375,-2.184707641601562,0.491668701171875,0.3345723951144367,-0.8498011217227255,-1.612583721143221
12608.0620000002,0.4628143310546875,-2.436279296875,0.0201416015625,0.3345723951144367,-0.8498011217227255,-1.612583721143221
12638.1570000003,-0.3720703125,-2.094512939453125,-0.0207977294921875,-0.4413960474952591,-1.736574642542912,-0.8523497668859313
12668.2460000002,-0.9359283447265625,-1.330535888671875,0.060882568359375,-0.5668495769656218,-3.417808531317869,0.1959625835429736
12698.3370000007,0.0218505859375,-1.484512329101562,0.9056396484375,-0.2415401887546987,-3.482685266001071,0.8413306715596195
12728.4179999997,-0.223052978515625,-0.8077850341796875,0.0469512939453125,-0.3684475378641356,2.571663397139604,-3.599773007539168
12758.519,-0.1909027099609375,-1.81939697265625,0.1684417724609375,0.7617647392518672,0.240778790999045,-5.424931578473059
12788.6130000015,-0.352294921875,-2.326522827148438,0.2420501708984375,0.6810352718638591,-3.02607431288208,-5.263435359441782
12818.7080000007,-0.6968994140625,-1.70928955078125,0.3558807373046875,0.6810352718638591,-3.02607431288208,-5.263435359441782
12848.8000000007,-0.4393768310546875,-2.291366577148438,0.5279998779296875,0.2274520665881795,-4.096684245853782,-5.460554021213958
12878.8920000015,-0.4742889404296875,-1.549407958984375,0.2439117431640625,-0.1534097966973605,-1.732429964938422,-4.696273659996402
12908.9970000005,0.0452728271484375,-0.3603515625,0.27337646484375,-0.6138229449046574,1.052673809346128,-2.443666815144324
12939.0750000002,0.4847412109375,0.3491668701171875,0.0768280029296875,-0.8099202843987889,3.422672795048898,0.8065447277171135
12969.1660000008,0.35919189453125,0.2503204345703125,0.1976318359375,-1.4666313081303,1.812957032083584,5.170110737994353
12999.264,0.14251708984375,-0.439208984375,0.214263916015625,-1.514845442821204,-0.6948986232343757,8.277233564963032
13029.3500000007,-0.0961761474609375,-0.88555908203125,0.021820068359375,-1.514845442821204,-0.6948986232343757,8.277233564963032
13059.4550000005,0.3101043701171875,-1.447525024414062,0.2462615966796875,-0.7736006260845063,0.07021024739830399,9.47251778647014
13089.5440000004,2.030258178710938,-1.961151123046875,0.748809814453125,-0.3639686335428403,4.032958263077603,9.627777947492888
13119.6339999997,4.9412841796875,-1.728134155273438,1.68829345703125,-0.8029127086224634,5.140271083244451,7.799865667991855
13149.7250000002,3.749801635742188,-0.4041748046875,1.571319580078125,-0.5993236306658299,0.08083359698663008,5.177004064159914
13179.8150000004,3.4622802734375,-0.00042724609375,0.6484222412109375,1.329676384860212,-3.447978151726831,-0.5701002313921725
13209.9240000007,0.3285369873046875,-4.6959228515625,-1.953659057617188,2.056239194507303,0.4889963235548993,-6.15478259311807
13240.0310000003,0.9017791748046875,-0.569793701171875,0.748565673828125,2.056239194507303,0.4889963235548993,-6.15478259311807
13270.1230000002,1.669403076171875,-1.301406860351562,0.4259185791015625,0.9264386420958267,2.733581460887549,-7.340995022687932
13300.2070000002,0.8539276123046875,-0.9023895263671875,0.5625457763671875,1.148930837469843,0.06925790099249166,-4.459859790023997
13330.2970000004,0.9505767822265625,-1.150360107421875,0.578094482421875,0.725766790797266,-0.3241671584193881,-2.699556648484588
13360.4029999997,0.8801116943359375,-1.724655151367188,0.562835693359375,0.01790443200860272,-0.2899372826124906,-1.830553602670173
13390.4710000015,0.7164306640625,-2.542236328125,-0.0150146484375,-0.5238816033060653,-0.2786279027273602,-1.207295610655583
13420.564,0.010406494140625,-2.492645263671875,0.026702880859375,-0.6120633943724419,-1.546839861209089,-0.4979458763981106
13450.6690000007,-1.014404296875,-1.641281127929688,0.5335235595703125,-0.6120633943724419,-1.546839861209089,-0.4979458763981106
13480.7550000005,-0.2965087890625,-1.197601318359375,1.090408325195312,-0.3706976426691435,-3.252761519605189,0.4084671258808653
13510.8390000005,0.013916015625,-0.9871673583984375,0.1350555419921875,0.235972584179779,-1.34827483664889,-0.42549591052305
13540.9450000016,-0.4488067626953125,-1.906509399414062,0.358612060546875,0.5911716945690974,-0.6206494257268574,-4.25211351760575
13571.0210000016,-0.7512054443359375,-2.386077880859375,0.1394805908203125,0.8234448816786473,-1.684021685804052,-5.561578374005024
13601.1250000001,-0.3670196533203125,-2.208175659179688,0.3231658935546875,0.3628114900492009,-1.67265877638101,-6.329117379132401
13631.2000000007,-0.4069061279296875,-2.434707641601562,0.357147216796875,0.3431805307058998,-0.6538380055475339,-5.322433432334742
13661.3070000003,-0.149505615234375,-1.064193725585938,-0.0786285400390625,0.1840409429232339,-0.09999317681698715,-2.80423832040066
13691.3999999997,-0.1269683837890625,-0.12237548828125,-0.1962738037109375,-0.02244006166111667,0.9078007755230162,1.083000023627187
13721.4900000008,0.0504302978515625,0.146392822265625,-0.120330810546875,-0.02244006166111667,0.9078007755230162,1.083000023627187
13751.5830000002,0.049346923828125,-0.282135009765625,-0.064422607421875,-0.5031784553078983,1.819072448894733,4.961259253723722
13781.6730000004,0.213592529296875,-0.8467864990234375,-0.0175628662109375,-0.8297794766475098,1.54960981505888,7.759244471884876
13811.764,0.1130218505859375,-1.047256469726562,-0.012969970703125,-0.7462110795374773,0.8758561582475157,8.911550067088067
13841.8330000004,0.8631134033203125,-1.37969970703125,0.30487060546875,-0.4547560614197506,1.90803800826992,9.392116953160647
13871.9500000016,2.867645263671875,-1.322174072265625,0.73834228515625,-0.2306728936105213,1.908619908968102,8.018405732308192
13902.043,4.721435546875,-1.439727783203125,0.9222869873046875,0.1359991147548584,-0.8586537355022579,5.641373604482633
13932.1380000001,3.88525390625,-0.579925537109375,0.788421630859375,0.1359991147548584,-0.8586537355022579,5.641373604482633
13962.2330000002,2.242218017578125,-0.247283935546875,-0.2836456298828125,0.8881402550916152,-4.403237523139495,0.2847782069487891
13992.3150000004,3.55572509765625,-2.632720947265625,-0.3572235107421875,0.6214893867346685,-2.637484488745348,-2.451513286664025
14022.4290000006,1.073760986328125,-3.329025268554688,1.06549072265625,0.2280669904838788,0.7541398427348612,-5.914906347412453
14052.5250000001,1.767059326171875,-0.0734405517578125,-0.0777587890625,0.6093102184375181,1.657730959522789,-4.828752075790176
14082.625,0.7793426513671875,-0.9833984375,0.4810943603515625,0.7951815519779634,-0.8022349341250382,-3.038026846170465
14112.7200000001,0.9874267578125,-1.222061157226562,0.6045074462890625,0.4255478421643065,-0.8675564167102838,-1.727897531079216
14142.7970000004,0.9675750732421875,-2.000381469726562,0.84405517578125,0.4255478421643065,-0.8675564167102838,-1.727897531079216
14172.9110000006,0.6670684814453125,-3.04010009765625,-0.1341705322265625,-0.2757269213519368,-1.12644417048965,-0.9390476445929159
14203.0050000003,-0.7374267578125,-2.451202392578125,-0.2733001708984375,-0.6583672436134317,-2.910286992904269,-0.4940430138205995
14233.099,-1.886749267578125,-1.560989379882812,0.577178955078125,-0.6553312399707414,-4.267838152262123,0.1856750585681065
14263.2000000003,0.35491943359375,-1.47808837890625,1.38983154296875,-0.6643114191664885,-0.4779082523563544,-0.3388289254847103
14293.2790000004,-0.1755523681640625,-1.110122680664062,0.2636566162109375,-0.4634440918439161,2.770491009383285,-5.320257629724148
14323.3920000002,-0.1349334716796875,-2.3048095703125,0.3118896484375,0.6346440709391148,-1.101474638425176,-6.152658455832623
14353.4890000001,-0.652252197265625,-2.556991577148438,0.1614532470703125,0.6346440709391148,-1.101474638425176,-6.152658455832623
14383.5859999999,-0.40869140625,-2.043319702148438,0.3465118408203125,0.3651564033890157,-2.327009174122276,-6.367624557966074
14413.6880000005,-0.34344482421875,-1.9705810546875,0.3368072509765625,0.2666780326000656,-2.29566989336255,-5.654759184753589
14443.7889999999,-0.4031829833984375,-0.8672027587890625,0.142303466796875,0.1391570911754744,-1.25208092544301,-3.455807312699446
14473.892,-0.03094482421875,0.3571319580078125,0.0550384521484375,-0.4283161981174439,0.9439454641536806,0.08666751767055765
14503.9919999999,0.1941375732421875,0.394073486328125,0.026458740234375,-1.19594681598632,2.184720738137086,4.284528449129758
14534.0930000002,0.228240966796875,-0.1550750732421875,0.208831787109375,-1.845308580373648,0.601911690613169,8.059877009435125
14564.1920000007,0.0950469970703125,-0.5583953857421875,0.3583984375,-1.845308580373648,0.601911690613169,8.059877009435125
14594.2670000004,-0.06036376953125,-0.8785247802734375,0.3108978271484375,-1.212648031814424,-0.3609273035779698,9.434521934565762
14624.3800000002,0.6974945068359375,-1.85552978515625,0.68450927734375,-0.4414349296471742,1.885351071575753,9.845161134631695
14654.45,3.00982666015625,-2.01385498046875,0.6554718017578125,-0.2379273444198972,3.773881158544733,8.763130501641298
14684.5590000003,5.3480224609375,-1.295120239257812,1.257537841796875,-0.1550018343970098,0.9471316700818514,6.858379100472645
14714.6350000003,3.288421630859375,-0.2457122802734375,0.76287841796875,0.3396840665107348,-3.011141968650006,1.956239359787591
14744.7250000005,2.15234375,-0.4475555419921875,-0.2080841064453125,1.028093098800805,-3.234466135548562,-2.249661122370341
14774.8270000002,4.488601684570312,0.0898895263671875,2.1126708984375,1.028093098800805,-3.234466135548562,-2.249661122370341
14804.9180000007,0.459564208984375,-4.958770751953125,0.79119873046875,1.964842435372983,3.671147056333836,-5.096122796589771
14835.0140000002,1.166336059570312,1.019256591796875,0.1509552001953125,1.49049855781959,-0.1610349595304753,-5.009786842474928
14865.1220000002,1.26129150390625,-1.70208740234375,0.54022216796875,1.143135532621721,0.2174721367192166,-4.03786353948942
14895.2150000005,0.8964691162109375,-1.442153930664062,0.917877197265625,0.8747765127415976,-1.197041108878233,-2.345622006980839
14925.3080000008,1.035980224609375,-2.427230834960938,0.51397705078125,-0.08594926312456329,-1.004339566090062,-1.52005431959729
14955.4010000002,0.560821533203125,-3.013076782226562,-0.2767791748046875,-0.8426201741594358,-1.704563712556269,-1.087917816896127
14985.4990000003,-1.052597045898438,-2.2242431640625,0.01800537109375,-0.8426201741594358,-1.704563712556269,-1.087917816896127
15015.5970000005,-1.277694702148438,-1.14447021484375,0.888763427734375,-0.6254788020476072,-3.728891845617806,0.02485661403425457
15045.6980000008,-0.0578155517578125,-1.184951782226562,0.8126678466796875,-0.4358335029264105,-2.348673723273961,0.1966866970433661
15075.7890000004,-0.0355987548828125,-1.23638916015625,0.283599853515625,-0.5950180981314989,2.514872285841991,-3.578799815006467
15105.8820000007,-0.4241180419921875,-2.076919555664062,0.251251220703125,0.6174493713610183,-0.1000981053639363,-5.072333311204312
15135.9760000005,-0.40313720703125,-2.31195068359375,0.0879974365234375,0.6198398247554734,-1.733096021527051,-5.889930157445254
15166.0650000003,-0.39111328125,-1.992095947265625,0.3635711669921875,0.6289800599327343,-2.922311165225977,-5.799323025574142
15196.156,-0.434783935546875,-2.359603881835938,0.474700927734375,0.321242208594154,-1.626788756081595,-4.055076082246821
15226.2470000005,-0.4549102783203125,-0.8455047607421875,0.1199493408203125,0.321242208594154,-1.626788756081595,-4.055076082246821
15256.3370000007,0.1511993408203125,0.226776123046875,-0.003082275390625,-0.3201740146809233,0.5254920168172362,-1.379078822029509
15286.4300000001,0.4185333251953125,0.338653564453125,0.0547637939453125,-0.9607574674831328,2.56893179280951,2.625105849682551
15316.5200000003,0.13427734375,-0.3670501708984375,0.174957275390625,-1.840217681633853,0.9395448567684337,7.24596384761398
15346.6080000007,-0.0021514892578125,-0.6165771484375,0.2314910888671875,-1.619212595412537,-0.1848811702471539,9.380197709385889
15376.6990000004,0.221649169921875,-1.066925048828125,0.268585205078125,-0.7168630443248042,1.685012115413452,9.759047288151764
15406.7910000003,1.371780395507812,-1.773574829101562,0.5431060791015625,-0.7168630443248042,1.685012115413452,9.759047288151764
15436.8810000005,3.589645385742188,-2.6845703125,1.037078857421875,-0.403918180422901,2.864195397602159,9.513317414370153
15466.9730000005,4.559219360351562,-0.94085693359375,1.21783447265625,-0.3750095667900908,2.268719502079275,7.391771917295818
15497.0670000002,3.57080078125,-0.1903533935546875,0.4597625732421875,-0.04904743779598933,-2.158961845125512,3.241307796388976
15527.153,3.833114624023438,0.2900390625,3.190826416015625,0.7962654585416257,-2.915063904951544,-1.884822167783263
15557.2500000007,-2.4556884765625,-4.695571899414062,-2.179397583007812,1.036902835686787,2.529150824026451,-8.651446047638862
15587.3520000005,1.634445190429688,1.476852416992188,0.175750732421875,1.125324311251271,3.411477664774532,-6.849341396997351
15617.4450000008,1.228469848632812,-1.109909057617188,0.6919403076171875,1.125324311251271,3.411477664774532,-6.849341396997351
15647.5410000003,0.977691650390625,-1.330490112304688,0.655029296875,1.281504328114532,-0.6590657907673595,-3.985499400871846
15677.635,0.9222412109375,-1.728179931640625,0.72320556640625,0.6579906726352945,-1.099902574433702,-2.359628370101893
15707.7050000007,0.973968505859375,-2.8658447265625,0.121490478515625,-0.2777258900661503,-0.8437461586683214,-1.583272437553591
15737.7900000001,-0.0608367919921875,-2.798004150390625,-0.0044403076171875,-1.005100431213497,-1.224705227333649,-1.133727383438798
15767.887,-1.084930419921875,-1.635482788085938,0.466949462890625,-0.6759635478839122,-3.258178655578519,-0.006177734780656809
15797.9770000002,-0.7126922607421875,-1.416778564453125,0.94635009765625,-0.5150883780188417,-3.329686661376019,0.536743872422821
15828.0600000007,0.1095428466796875,-1.048248291015625,0.72283935546875,-0.6662906804886355,1.9450375716105,-3.535304269134965
15858.174,-0.6484527587890625,-1.987991333007812,0.268524169921875,0.5899058941029828,0.4703579243498708,-5.760105847993853
15888.2440000007,-0.4041748046875,-2.624282836914062,0.248077392578125,0.5899058941029828,0.4703579243498708,-5.760105847993853
15918.3410000005,-0.451904296875,-2.123779296875,0.237152099609375,0.6816544568173025,-0.9175767072524791,-6.176882569107984
15948.4300000004,-0.3872222900390625,-2.463912963867188,0.384246826171875,0.420523522451763,-1.996348962649165,-5.895155279503989
15978.5199999997,-0.3236541748046875,-1.43145751953125,0.1499786376953125,0.1196275982697053,-1.01391256494446,-3.953928425097284
16008.613,0.078277587890625,0.0213775634765625,-0.023590087890625,-0.3504576183845413,0.7154291983939055,-0.6709378965908237
16038.6940000008,0.2885284423828125,0.4854278564453125,-0.06689453125,-0.8979127247116609,1.872725557479905,4.019239255038169
16068.7870000002,0.1451873779296875,-0.141265869140625,-0.0177459716796875,-0.8979127247116609,1.872725557479905,4.019239255038169
16098.8910000005,0.0411224365234375,-0.9029693603515625,0.2420806884765625,-1.390523756814125,1.419162858544619,7.977320613539323
16128.9750000005,0.158782958984375,-1.092330932617188,0.3730926513671875,-1.372115721043388,1.968207872042516,9.378240818616899
16159.0560000004,1.03033447265625,-1.590744018554688,0.592315673828125,-0.9717669754295204,2.964596304382037,9.867333548603259
16189.1700000006,2.765899658203125,-2.025634765625,0.870269775390625,-0.8578087144883758,1.72243618663179,9.453013859910836
16219.2570000016,4.183090209960938,-1.663772583007812,0.907562255859375,-0.1652659235542842,-0.02676610053584138,7.13819743620727
16249.3380000005,3.936691284179688,-0.555023193359375,0.524566650390625,0.556639549978476,-1.68423686922013,1.97839153373487
16279.407,2.802383422851562,0.0468902587890625,0.03546142578125,0.556639549978476,-1.68423686922013,1.97839153373487
16309.4980000005,3.564590454101562,0.887908935546875,2.543319702148438,0.9081206211699347,-1.84410829367035,-2.288048192638852
16339.6090000006,-0.490692138671875,-4.912124633789062,0.0883331298828125,1.785186387184564,4.057542435732342,-5.122303800634122
16369.6790000004,0.88824462890625,0.6185150146484375,0.546783447265625,2.130320612866146,-0.2630657208974821,-5.203423687437936
16399.77,1.3707275390625,-1.746566772460938,0.5012054443359375,1.439804221205496,-0.1977684730781563,-4.063866111740736
16429.8610000005,0.8272552490234375,-1.421157836914062,1.033157348632812,0.9859645535168419,-1.19173742356734,-2.25743009590232
16459.9500000004,1.050384521484375,-2.277252197265625,0.5371551513671875,-0.009880061328084966,-0.8810940634794836,-1.557524729818596
16490.0280000002,0.8391876220703125,-3.001480102539062,-0.1463623046875,-0.009880061328084966,-0.8810940634794836,-1.557524729818596
16520.1420000003,-1.024307250976562,-2.448516845703125,0.0605926513671875,-0.8200522807659953,-1.768569859879124,-0.9935867868727576
16550.2210000004,-1.710296630859375,-1.0665283203125,0.67352294921875,-0.5271184092949476,-3.978159462591479,0.4437521461116521
16580.3260000002,-0.0460052490234375,-1.467178344726562,0.8596954345703125,-0.1801151771603481,-1.375675834788606,0.2330710701721377
16610.4020000002,-0.0582122802734375,-1.445510864257812,-0.0276336669921875,-0.1671109615574911,2.228855975302424,-4.205484496395662
16640.4930000008,-0.497161865234375,-2.456985473632812,0.199554443359375,0.9191628859977302,-1.154611360074982,-5.489567563393718
16670.5760000004,-0.4350128173828125,-2.53814697265625,0.02752685546875,0.7938166819192978,-2.412015411904842,-5.995140466837706
16730.6241666674,-0.517822265625,-1.892349243164062,0.2497406005859375,0.5707138237073267,-1.789597647214172,-3.396898455703002
16760.723166667,-0.39947509765625,-0.671142578125,0.058746337890625,0.5707138237073267,-1.789597647214172,-3.396898455703002
16790.8111666675,0.1166839599609375,0.37823486328125,-0.047088623046875,-0.1924109919132439,0.9508363934742606,0.1971239880943571
16820.9011666668,0.4902801513671875,0.21185302734375,0.023529052734375,-1.075199624794345,2.213463703150093,4.3747787174148
16850.9921666673,0.1242523193359375,-0.3968048095703125,0.0946807861328125,-1.720193804993944,-0.2224743521947124,8.24605434018482
16881.0661666676,0.0358734130859375,-0.899200439453125,0.13922119140625,-1.391409524192685,-0.03707040342557597,9.432178352806492
16911.1571666672,0.3407440185546875,-1.389434814453125,0.4205169677734375,-1.391409524192685,-0.03707040342557597,9.432178352806492
16941.2471666674,2.026336669921875,-1.49273681640625,0.77398681640625,-1.2229949452816,2.763978781569714,9.616269895790436
16971.3251666672,4.072784423828125,-1.756393432617188,1.115768432617188,-1.061291266001406,3.614831319290803,8.079079466159033
17001.4421666674,4.368789672851562,-0.8272705078125,1.508071899414062,-0.7721292295822375,1.615496154111332,5.366368666102216
17031.533166667,3.459732055664062,-0.106170654296875,0.7095794677734375,0.3444101121811894,-1.530121867466116,0.5385460335324775
17061.6241666667,1.803497314453125,0.39276123046875,1.924179077148438,1.19593057070367,-2.096988488662715,-3.100341353568902
17091.7131666674,-1.38580322265625,-4.870376586914062,-1.04791259765625,1.927253780799277,2.867925421024923,-7.364977320936314
17121.8071666672,1.924057006835938,0.158935546875,-0.2935333251953125,1.927253780799277,2.867925421024923,-7.364977320936314
17151.9001666675,0.8035888671875,-1.0146484375,0.712890625,1.642356264233653,2.809751596489342,-5.492765487230685
17181.9911666671,0.986114501953125,-1.385421752929688,0.554229736328125,1.404574328409274,-0.95555578124199,-3.375408876234935
17212.080166667,1.05926513671875,-2.106033325195312,0.517333984375,0.6181551090498892,-1.040062410004057,-1.939474228093324
17242.1721666669,0.931121826171875,-3.29559326171875,-0.54486083984375,-0.2292899140564432,-0.2050261196808402,-1.398312437738171
17272.2631666675,-1.00244140625,-2.806625366210938,-0.07867431640625,-0.4370359201585813,-2.288206118091494,-0.6933177708113046
17302.3521666673,-1.747222900390625,-1.257781982421875,0.3918304443359375,0.037205958325061,-5.006604897604502,0.6314115260079767
17332.443166667,0.39404296875,-2.01519775390625,1.208755493164062,0.037205958325061,-5.006604897604502,0.6314115260079767
17362.5281666673,0.2164459228515625,-0.764678955078125,-0.109832763671875,-0.1866614934358718,0.1618733226416323,-1.036971012610693
17392.6181666675,-0.3614044189453125,-2.0911865234375,0.1703643798828125,0.09937292659910768,1.529705615387737,-4.966144556427364
17422.7111666669,-0.406402587890625,-2.619369506835938,0.109954833984375,0.6459555813531174,-2.034913932078493,-5.500031655948857
17452.8031666669,-0.607391357421875,-1.878631591796875,0.2259368896484375,0.248104348209526,-2.777896461426468,-5.95446494224449
17482.8971666657,-0.4796295166015625,-1.928680419921875,0.353057861328125,0.002358495461374173,-2.862626529403993,-5.337901604578141
17512.9941666673,-0.3601837158203125,-1.229660034179688,0.247711181640625,-0.2785163162776858,-0.2392397502050882,-3.274666552203309
17543.0931666669,-0.0960235595703125,0.0699462890625,0.179290771484375,-0.2785163162776858,-0.2392397502050882,-3.274666552203309
17573.1871666667,0.3905792236328125,0.4237823486328125,0.221588134765625,-0.627993891381078,2.044184928465278,-0.1518859359216171
17603.2821666668,0.3515472412109375,0.140411376953125,0.1797332763671875,-1.201504833181315,2.297917601322577,4.092004006554077
17633.3731666673,-0.012481689453125,-0.618927001953125,0.2260284423828125,-1.688618035529419,-0.2188340773006831,8.288892351583181
17663.467166667,-0.2286376953125,-1.005874633789062,0.32086181640625,-1.131548385034896,-0.4654100373606125,9.752230661025598
17693.5611666668,0.743438720703125,-1.81005859375,0.6708831787109375,-0.3914854791899751,3.56291246120749,9.761548529047568
17723.6411666672,2.691497802734375,-2.07672119140625,0.8300018310546875,-0.5642135801186613,4.290800193496895,8.749912700519015
17753.7391666674,4.159683227539062,-1.715850830078125,0.72406005859375,-0.4478241194183833,-0.1617481540703986,7.111282464966493
17783.8271666669,3.514846801757812,-0.773406982421875,0.7276611328125,0.4576378680353253,-2.910922689456471,2.198374765045922
17813.9181666675,2.949539184570312,-0.13165283203125,0.1552734375,0.4576378680353253,-2.910922689456471,2.198374765045922
17844.014166667,0.9774169921875,0.232757568359375,0.02081298828125,0.7616315811973632,-2.359388419287677,-2.308335621190858
17874.1061666669,-2.338638305664062,-8.095382690429688,-3.480056762695312,2.172363404363009,-0.03298644589393946,-3.676738363042458
17904.2061666669,1.602935791015625,3.233810424804688,-1.635635375976562,2.417859718917021,-2.694846581780674,-4.62878489691605
17934.3111666667,1.25823974609375,-2.568695068359375,0.67059326171875,0.8172943111411093,-0.1668185464698004,-4.479065176225103
17964.4091666669,0.9478759765625,-1.211868286132812,0.7811126708984375,0.8172943111411093,-0.1668185464698004,-4.479065176225103
17994.5061666667,0.9542083740234375,-1.898956298828125,0.737640380859375,0.1511690129561678,-0.6108660371463424,-1.470602613947827
18024.6001666674,0.8979034423828125,-3.518936157226562,-0.03741455078125,0.1511690129561678,-0.6108660371463424,-1.470602613947827
18054.6971666672,-0.98846435546875,-2.774749755859375,0.152587890625,-0.6037402170176174,-1.560440092263905,-0.9729691263455822
18084.7921666673,-1.32720947265625,-1.278427124023438,0.6055755615234375,-0.5614958242262355,-3.785377226022278,0.2398528098880245
18114.8841666673,-0.3972930908203125,-1.5238037109375,0.852294921875,-0.4585659796752179,-2.801483280252973,0.4795439658978811
18144.978166667,0.2754669189453125,-0.7982940673828125,0.6067352294921875,-0.8681809279859074,1.773474337342614,-3.013745208615558
18175.0741666674,-0.6005096435546875,-1.811386108398438,0.180816650390625,0.3052531220415363,0.561819664614789,-5.420886769409446
18205.1681666671,-0.5002288818359375,-2.312255859375,0.1636810302734375,0.5437141639438854,-0.5230509633620696,-6.01101770062454
18235.2421666674,-0.314666748046875,-1.9063720703125,0.1218719482421875,0.5437141639438854,-0.5230509633620696,-6.01101770062454
18265.3581666673,-0.205078125,-2.20745849609375,0.206634521484375,0.6628610616368315,-1.695822152594193,-6.021940389519392
18295.4511666667,-0.2193450927734375,-1.37091064453125,0.2189178466796875,0.21758931580718,-1.561359149156092,-4.455816845173148
18325.5471666671,-0.0746002197265625,-0.070037841796875,0.021209716796875,-0.3158189473503167,0.2694248169483733,-1.852617093353153
18355.6431666657,0.2580718994140625,0.4532470703125,0.02362060546875,-0.96671495884164,2.223738178635619,1.929374189659198
18385.7351666675,0.3220672607421875,0.1144561767578125,0.0506744384765625,-1.804068998261553,1.450571115176577,6.3033576871725
18415.8261666671,0.023956298828125,-0.6381683349609375,0.252685546875,-2.03804767373319,-0.002914030864764702,8.777054573084667
18445.9171666667,0.02716064453125,-0.8803863525390625,0.3335418701171875,-2.03804767373319,-0.002914030864764702,8.777054573084667
18476.010166667,0.4271240234375,-1.52008056640625,0.6505584716796875,-1.308268298121501,1.093619911106096,9.308558676062757
18506.1011666667,1.743576049804688,-2.013763427734375,0.5958709716796875,-0.815738492432285,2.303523821733303,9.74056388492218
18536.1931666675,3.703018188476562,-2.041595458984375,0.831787109375,-0.215907795894904,1.621759110046871,8.170536146417879
18566.2871666673,4.63787841796875,-0.7498626708984375,1.293426513671875,0.03999082587695686,-0.714104009435482,5.911405888475652
18596.3771666675,2.79534912109375,-0.03485107421875,0.546539306640625,0.7533707218120463,-2.746178212843624,0.09971354490252882
18626.4711666672,1.564346313476562,-0.274017333984375,-0.3569183349609375,1.007026162997734,-2.676162908837114,-2.743402932671652
18656.5561666675,1.625686645507812,-5.849075317382812,-0.7696533203125,1.007026162997734,-2.676162908837114,-2.743402932671652
18686.6541666668,1.91888427734375,3.22467041015625,-0.159515380859375,0.8912297882722161,5.104871280770682,-9.226950898147242
18716.752166667,1.339523315429688,-2.09539794921875,0.7018890380859375,1.778273619943046,3.296663996491254,-5.678006450541108
18746.8481666674,0.825653076171875,-0.7440338134765625,0.6578216552734375,1.511822488667855,-0.649236862132204,-3.653499353054317
18776.9381666667,0.7977294921875,-1.615921020507812,0.9474945068359375,0.7383281227108428,-0.8606444484170921,-2.013178010209594
18807.0101666672,0.78662109375,-2.791351318359375,0.3749847412109375,-0.1301782435602722,-1.128188274687542,-1.563304588332395
18837.1111666675,0.1385040283203125,-2.74908447265625,-0.23541259765625,-0.452216204688142,-2.824121214783082,-0.8051494976220209
18867.2191666674,-1.36590576171875,-1.906036376953125,0.4111480712890625,-0.452216204688142,-2.824121214783082,-0.8051494976220209
18897.3251666675,-0.5584564208984375,-1.15924072265625,0.8927154541015625,-0.4667719779420791,-4.70995165535505,0.2847212153014614
18927.4221666674,0.0545806884765625,-0.9996185302734375,0.744842529296875,-0.1942371214727112,-0.5681156437478454,-0.8385617829742641
18957.5171666675,-0.410186767578125,-1.704132080078125,0.1854705810546875,-0.07740424445093504,1.476112161610982,-4.211803378714093
18987.6021666669,-0.45404052734375,-2.102737426757812,0.16015625,0.5945419249285927,-1.196539103012753,-5.191375014034199
19017.6851666674,-0.3027191162109375,-1.86480712890625,0.203399658203125,0.5510144211240106,-2.082417801706673,-5.803046657410291
19047.7891666669,-0.27264404296875,-2.13043212890625,0.24212646484375,0.4725995070393905,-2.838042623065363,-4.972172887870867
19077.8811666669,-0.316650390625,-1.549346923828125,0.16827392578125,-0.3581400391810929,-0.3469265330952053,-2.908109326080911
19107.9771666673,-0.02362060546875,-0.38531494140625,0.017425537109375,-0.3581400391810929,-0.3469265330952053,-2.908109326080911
19138.0661666672,0.3954620361328125,0.2347259521484375,-0.05426025390625,-0.609877471749705,1.72726822611363,-0.4075936090433193
19168.1891666667,0.4350738525390625,0.321319580078125,0.072662353515625,-1.185311215856979,1.551435944618348,3.471400387197969
19198.2791666669,0.170318603515625,-0.4502716064453125,0.2911224365234375,-1.689106192957231,0.4497937933606059,7.257654059534993
19228.3701666674,0.383209228515625,-0.8689727783203125,0.3112335205078125,-1.551207978029037,1.010945803490112,8.669013323453461
19258.4601666667,0.2642974853515625,-1.185531616210938,0.255950927734375,-1.302398691078967,2.238223644436778,8.720801154011141
19288.5501666669,0.62481689453125,-1.716644287109375,0.4948272705078125,-1.215710134435797,3.444925103853164,8.655331599669287
19318.6711666667,1.561004638671875,-2.078384399414062,0.59991455078125,-1.215710134435797,3.444925103853164,8.655331599669287
19348.7611666669,2.499252319335938,-1.659942626953125,0.5739898681640625,-1.246813459122942,0.8526158166788302,8.588193841220608
19378.8521666675,2.552597045898438,-1.075668334960938,0.275787353515625,-0.6121030754726842,-1.120997739744328,6.912512643318467
19408.9701666671,1.407989501953125,-0.3723297119140625,0.1125335693359375,-0.2459610361642302,-2.066103543184957,2.968587583907738
19439.0641666669,3.049407958984375,-0.079681396484375,0.4664154052734375,-0.5486106519241051,4.039233469554157,-1.424122197126565
19469.1561666668,1.25653076171875,-4.866653442382812,2.47479248046875,0.5488532658994113,5.078677493553098,-7.07837751180191
19499.2561666668,2.588958740234375,6.263580322265625,-0.17279052734375,2.932683645039617,1.138235316215976,-7.490205546978455
19529.3501666674,0.117034912109375,-1.978927612304688,1.309982299804688,2.932683645039617,1.138235316215976,-7.490205546978455
19559.4441666672,0.6691436767578125,-1.1717529296875,0.4073028564453125,1.502697699824916,0.02087012819851496,-2.388856030433295
19589.5371666675,0.123779296875,-1.032989501953125,0.40667724609375,0.9462323205817317,-0.3662669415635787,-0.8469685835873172
19619.6311666672,0.265350341796875,-1.168838500976562,0.185821533203125,0.557449683582078,-0.1660872424344647,-0.5710294082965011
19649.7261666673,0.502471923828125,-1.18878173828125,0.04266357421875,0.3529530003259456,-0.07466944432753267,-0.1374326943696481
19679.8161666675,-0.0115509033203125,-1.150070190429688,0.0003204345703125,0.1574346320527972,-1.067381382782199,0.4883920523035604
19709.9111666676,0.04119873046875,-0.8011016845703125,-0.0049591064453125,0.04264253537434876,-0.3514608311671742,0.05047089739863668
19739.9991666671,-0.029266357421875,-0.9422760009765625,0.3609466552734375,0.04264253537434876,-0.3514608311671742,0.05047089739863668
19770.091166667,0.2080535888671875,-0.7242279052734375,0.1547393798828125,-0.03622990978554697,-0.2345113076896525,-0.1778035533341593
19800.1591666671,0.030364990234375,-0.8332061767578125,0.4436187744140625,-0.135246505430802,-0.1126365340921383,-0.3210320851841468
19830.2721666669,-0.099334716796875,-0.958984375,0.0170440673828125,-0.5625991718658553,0.9384891797123263,-0.6356211847430649
19860.3651666672,0.338653564453125,-0.72845458984375,0.159088134765625,-0.3013007246677497,1.164494084564157,-1.027080298638248
19890.4571666671,0.205535888671875,-1.122650146484375,0.09857177734375,0.1414868244970757,0.5250025278088797,-0.7085523838271028
19920.5531666676,0.26922607421875,-0.953125,0.1187744140625,0.3094260291535815,0.2180119594721756,-0.59559493882361
19950.6491666671,0.207916259765625,-0.898468017578125,0.355743408203125,0.3094260291535815,0.2180119594721756,-0.59559493882361
19980.7431666668,0.173431396484375,-0.960052490234375,0.05816650390625,0.3037468381289875,0.1693978179855422,-0.5580456990340378
20010.8401666675,0.1485443115234375,-0.96197509765625,0.17236328125,0.5549489753184936,-0.4685736064195177,-0.499906229276518
20040.9361666671,0.2917022705078125,-0.799468994140625,0.3408966064453125,0.6978395520261501,-0.664965225214103,-0.7532697880067324
20071.0301666668,0.29779052734375,-0.80743408203125,0.252532958984375,0.6839114858411447,-0.7021498782504434,-0.7446219713150271
20101.1241666674,0.318878173828125,-0.50897216796875,0.1946563720703125,0.7307469020357142,-0.491339905314169,-0.8553141314952986
20131.2191666657,0.2841796875,-0.766754150390625,0.5532989501953125,0.6516283807910952,-0.2052825820938149,-1.081451395453306
20161.3121666669,0.3514862060546875,-0.8067169189453125,0.0259857177734375,0.6516283807910952,-0.2052825820938149,-1.081451395453306
20191.4091666667,0.5386505126953125,-0.41156005859375,0.069091796875,0.9309068937727617,-1.075862219273557,-1.122854229340223
20221.5071666669,0.3174591064453125,-1.0655517578125,0.9423065185546875,0.8642266663993577,-0.2600054824888721,-1.080527544871157
20251.6061666674,0.631622314453125,-1.218551635742188,0.4599456787109375,0.8936713743596008,-0.1140203125945435,-1.05564216869713
20281.7021666669,0.6093292236328125,-1.098587036132812,0.2877655029296875,0.7376056071071043,-0.5656133375876069,-1.087056017967378
20311.7991666668,0.6160430908203125,-1.055587768554688,0.2738189697265625,0.4284632046096162,-0.4016068229128212,-0.9626272728844775
20341.897166667,0.7249603271484375,-0.7519683837890625,0.2258148193359375,0.01963601934937224,-0.1115928412609363,-0.6213495707774392
20371.9951666671,0.679718017578125,-0.626007080078125,0.453369140625,-0.2282193232982313,0.05351702105346932,-0.1374097911842734
20402.0901666672,0.5840301513671875,-0.60321044921875,0.58258056640625,-0.1813269154563341,-0.4079816316141439,0.2270123786922074
20432.1871666671,0.4240570068359375,-0.6888427734375,0.4405975341796875,-0.1813269154563341,-0.4079816316141439,0.2270123786922074
20462.2811666668,0.5530548095703125,-0.6127471923828125,0.13189697265625,0.03433720119882765,-0.7577042175378234,0.1775990225624412
20492.3771666672,0.47784423828125,-0.6290283203125,0.197967529296875,-0.001385110082950212,-0.5415492802937599,0.09606528052522927
20522.4731666667,0.4356231689453125,-0.7472076416015625,0.4308319091796875,-0.1682518597684811,0.1638208923468072,-0.06625225738622824
20552.5591666674,0.685150146484375,-0.67340087890625,0.294219970703125,-0.04074583204599433,0.3200003765778501,-0.1237728085064137
20582.6631666669,0.6140899658203125,-0.785858154296875,0.2086334228515625,-0.04074583204599433,0.3200003765778501,-0.1237728085064137
20612.7621666674,0.585113525390625,-0.8766632080078125,0.208740234375,0.01573741782960524,0.1732141278276257,0.1045146917157237
20642.8601666676,0.6281280517578125,-0.788238525390625,0.241973876953125,0.01573741782960524,0.1732141278276257,0.1045146917157237
20672.9581666668,0.5007781982421875,-0.7846221923828125,0.323516845703125,0.06481548197813049,-0.06351772357893487,0.138337103875839
20703.0511666671,0.553436279296875,-0.750274658203125,0.4165802001953125,0.07597679010665256,-0.08299182273403029,0.09592892667741722
20733.1531666669,0.4769134521484375,-0.77685546875,0.436798095703125,0.04061453820425343,-0.1786043658739461,0.1186262496998355
20763.2491666673,0.56024169921875,-0.727996826171875,0.383544921875,0.0535801379713042,-0.1616906297908529,0.1026398263083079
20793.3461666671,0.511993408203125,-0.775909423828125,0.3251953125,0.03491723768424691,-0.2675733873585502,0.1628200764091555
20823.4441666673,0.540557861328125,-0.8197021484375,0.18829345703125,0.03316993769304592,-0.09366151132532376,0.1052526536537846
20853.5181666675,0.531402587890625,-0.7614288330078125,0.2750244140625,0.03316993769304592,-0.09366151132532376,0.1052526536537846
20883.6361666672,0.5233154296875,-0.757659912109375,0.3405609130859375,0.009888317127464212,0.08351779704932094,0.06347910774312872
20913.7191666669,0.5053863525390625,-0.7137298583984375,0.4131011962890625,0.01149979590307116,-0.01252031923278952,0.02467179065460307
20943.8181666674,0.5394134521484375,-0.72637939453125,0.3664093017578125,0.03546744676545728,-0.03407701036032691,-0.01655873670978568
20973.9201666671,0.488983154296875,-0.7556304931640625,0.311859130859375,0.02918718028283242,-0.08093852553357921,-0.02270691040234261
21004.0181666673,0.54736328125,-0.776763916015625,0.33453369140625,0.0182266745005023,0.04907593361965318,-0.1120335944213444
21034.1321666674,0.5520782470703125,-0.8028717041015625,0.292083740234375,0.03849439566044134,-0.08789310440421212,-0.09290836936904934
21064.231166667,0.52716064453125,-0.8509674072265625,0.2818603515625,0.03849439566044134,-0.08789310440421212,-0.09290836936904934
21094.3271666674,0.5471038818359375,-0.7436981201171875,0.3241729736328125,0.04173546270706777,0.09565728424622913,-0.01945199491804776
21124.4211666672,0.5870819091796875,-0.760284423828125,0.357269287109375,0.02361504833405963,0.2175352536370514,0.06168227295565226
21154.5151666669,0.620361328125,-0.7194976806640625,0.283233642578125,6.444849837991757e-05,-0.1670545025423814,0.1139782346493202
21184.6061666674,0.4765167236328125,-0.7344207763671875,0.3628997802734375,-0.05109221288095217,-0.3565900794266668,0.2266347424496342
21214.7021666669,0.4300689697265625,-0.765533447265625,0.43841552734375,-0.1293697078533242,-0.03232092193752866,0.1163947870224581
21244.797166667,0.4832305908203125,-0.779541015625,0.3493804931640625,-0.08962442542887264,0.04430807632008432,-0.0137562922946953
21274.8911666667,0.4944305419921875,-0.7877960205078125,0.300140380859375,-0.08962442542887264,0.04430807632008432,-0.0137562922946953
21304.9871666672,0.5334014892578125,-0.8217315673828125,0.2981109619140625,-0.08438146019083363,0.1274772655827139,-0.1143841003994483
21335.0831666667,0.48577880859375,-0.83514404296875,0.31207275390625,-0.05829100362354536,0.08893919408039525,-0.1522957964133803
21365.1771666673,0.54937744140625,-0.8173675537109375,0.2532196044921875,-0.02874855765129637,0.2390964721384419,-0.1370244317745389
21395.2741666671,0.60546875,-0.8596649169921875,0.2594451904296875,0.01848473481013099,0.190164082901544,-0.1533991440530001
21425.3691666672,0.5772552490234375,-0.8354644775390625,0.2535552978515625,0.04334081621216754,-0.004625378181249621,-0.05716741595964093
21455.4621666675,0.5619964599609375,-0.73089599609375,0.31732177734375,0.03025963525380733,-0.230730151573958,-0.004715659342203307
21485.5571666667,0.5109405517578125,-0.7325592041015625,0.4073638916015625,0.03025963525380733,-0.230730151573958,-0.004715659342203307
21515.6531666671,0.5086822509765625,-0.7391357421875,0.4174957275390625,0.01938115483305166,-0.2178537677034249,0.01216611880780898
21545.7471666668,0.4914703369140625,-0.738861083984375,0.3800506591796875,-0.00200109924308554,-0.226392394790437,0.01525005935012074
21575.8421666669,0.52484130859375,-0.81353759765625,0.31121826171875,-0.05315909220296267,-0.1713720193016179,-0.001471396502268779
21605.937166667,0.4865264892578125,-0.8442535400390625,0.25909423828125,-0.03568369544597171,-0.1344502202648684,-0.0420523788767872
21636.0311666667,0.5356597900390625,-0.7956390380859375,0.234619140625,-0.004353735750061539,0.02576448564986258,-0.09501626137184706
21696.0876250005,0.576202392578125,-0.74029541015625,0.3113861083984375,0.01714223530462204,-0.01996651764065107,-0.1020217066193005
21726.175625,0.541351318359375,-0.70330810546875,0.3172149658203125,0.0378240780140684,-0.2286552827686773,-0.01319330004025255
21756.2536250007,0.51141357421875,-0.723297119140625,0.3430633544921875,0.07898349897735203,-0.3216403511771209,0.04417358668503531
21786.3416250002,0.510467529296875,-0.756805419921875,0.3704681396484375,0.08221844075347128,-0.1729275716943332,0.02302622341704311
21816.4356249999,0.569091796875,-0.77117919921875,0.2702178955078125,0.1819474319903226,-0.2091004898325525,-0.01006808050104456
21846.5316250004,0.574554443359375,-0.81988525390625,0.1319427490234375,0.1819474319903226,-0.2091004898325525,-0.01006808050104456
21876.6196250008,0.538299560546875,-0.8281097412109375,0.1530609130859375,0.1920400135733958,-0.2521635383430247,0.04994225992225595
21906.7266250004,0.544342041015625,-0.8159027099609375,0.3138427734375,0.1310586846166525,-0.0004676510874179142,0.02871899656319649
21936.8056250005,0.6007537841796875,-0.70703125,0.39208984375,0.08857780312047149,0.121398334078499,-0.008595885050448757
21966.9006250006,0.50079345703125,-0.6827850341796875,0.4677276611328125,0.08107727622637233,-0.129531361731492,0.1239600287310462
21997.012625,0.5001983642578125,-0.7167816162109375,0.4303741455078125,0.04127180636128498,-0.2069601072644558,0.1603595818780313
22027.096625,0.5174407958984375,-0.7659454345703125,0.3184051513671875,0.03652498803432774,-0.1596378652226198,0.09929862440469447
22057.2056250003,0.52777099609375,-0.7925262451171875,0.2318115234375,0.03652498803432774,-0.1596378652226198,0.09929862440469447
22087.2986249997,0.5160675048828125,-0.817962646484375,0.2421112060546875,0.02053962990723612,-0.1074383099604127,-0.009823335996866278
22117.3956250004,0.5220489501953125,-0.801483154296875,0.278228759765625,0.02053962990723612,-0.1074383099604127,-0.009823335996866278
22147.4826250005,0.516998291015625,-0.83514404296875,0.3026885986328125,0.01546311223732708,-0.08003997498178647,-0.03773459580144174
22177.5686250003,0.5894012451171875,-0.6935577392578125,0.270660400390625,0.07791557138023025,-0.1695126002285246,-0.07398075086963818
22207.686625,0.4761199951171875,-0.7692413330078125,0.3424224853515625,0.06336246128738325,-0.3228462305187088,-0.09231235391708961
22237.7806249997,0.5501861572265625,-0.7593231201171875,0.3575439453125,0.008476042801395191,0.05978317278231676,-0.1004565668466609
22267.8746250003,0.551422119140625,-0.7558746337890625,0.3367919921875,-0.06266045202403836,0.2067103027542063,-0.05824439830446897
22297.9716250002,0.5546875,-0.771820068359375,0.2709197998046875,-0.05541399069793276,0.115550032324685,-0.02565609499349636
22328.068625,0.5662078857421875,-0.7903900146484375,0.248016357421875,-0.05541399069793276,0.115550032324685,-0.02565609499349636
22358.152625,0.5682830810546875,-0.8064727783203125,0.2810821533203125,-0.02243420270671849,0.07005951248060552,-0.0080696444190491
22388.2576250007,0.5466461181640625,-0.7878265380859375,0.2980499267578125,-0.001584314532488139,-0.02615330716901415,0.05129088469827208
22418.3506250001,0.5201416015625,-0.7655792236328125,0.3096771240234375,0.02397164560402124,-0.1311966363611186,0.0713229161017391
22448.4456250002,0.48797607421875,-0.7801666259765625,0.346893310546875,0.01993669023644219,-0.1101486090017863,0.04665565282098916
22478.5406250003,0.53973388671875,-0.7860260009765625,0.297607421875,0.01719656379085966,0.04032931365150594,-0.01503460961793333
22508.6366250007,0.559051513671875,-0.769866943359375,0.2843017578125,-0.01194614170176844,0.07661408455550853,0.009017197134899292
22538.7316250008,0.544677734375,-0.7816619873046875,0.2979583740234375,-0.01194614170176844,0.07661408455550853,0.009017197134899292
22568.8246250002,0.511383056640625,-0.800079345703125,0.2858428955078125,-0.02417724164017536,0.06102926585636483,0.05589788706800015
22598.9186250008,0.5168304443359375,-0.7881927490234375,0.276702880859375,-0.01653343667942993,0.008861668527238666,0.04669453497290432
22629.0126250005,0.521942138671875,-0.7822723388671875,0.30889892578125,-0.006461627752859256,0.03402028502910822,0.0008026767525498824
22659.108625,0.4959716796875,-0.780670166015625,0.3414306640625,0.005694371042807427,-0.01832574409305325,-0.03073820530169457
22689.2056250008,0.52557373046875,-0.7789154052734375,0.3164215087890625,0.00810293393267509,-0.02597194589877976,-0.05517617041258868
22719.3016250003,0.5316314697265625,-0.803497314453125,0.29986572265625,-0.001507881809202865,-0.03555985845528303,-0.05412528704644341
22749.3976250007,0.5220794677734375,-0.8173980712890625,0.2982025146484375,-0.001507881809202865,-0.03555985845528303,-0.05412528704644341
22779.4966250003,0.54364013671875,-0.8134613037109375,0.276824951171875,-0.01539493531342105,-0.03240774098906524,-0.0542525861465492
22809.5866250005,0.5353240966796875,-0.8019256591796875,0.309967041015625,-0.02085015449033936,-0.05888968223659517,-0.04027897990690344
22839.6896249997,0.530548095703125,-0.78582763671875,0.31103515625,-0.0188147004691918,-0.106610066861398,-0.0250491605810673
22869.7886250002,0.5261993408203125,-0.7887115478515625,0.2956390380859375,-0.02100301993690991,-0.1469436415706481,-0.015225291951983
22899.885625,0.539794921875,-0.77081298828125,0.287109375,-0.02521587446530626,-0.1300043391410901,-0.02282169264532502
22929.9806250001,0.480987548828125,-0.77789306640625,0.3406524658203125,-0.05943216815064431,-0.09606927526686439,-0.02329893111266722
22960.0766250005,0.5460357666015625,-0.7626953125,0.281463623046875,-0.05943216815064431,-0.09606927526686439,-0.02329893111266722
22990.1596250002,0.5308074951171875,-0.7667694091796875,0.2635498046875,-0.03339124637963151,-0.02195936108435737,-0.07043848030372379
23020.2716250005,0.5455780029296875,-0.7956390380859375,0.2669677734375,-0.02700471976951248,-0.03254862221073043,-0.06712657317210124
23050.3556250005,0.5731048583984375,-0.789581298828125,0.2531280517578125,-0.01525032566622975,-0.001714010477574998,-0.07148989630208707
23080.4726250008,0.5499420166015625,-0.800872802734375,0.2691802978515625,0.01430570242757864,-0.1638975913862015,-0.01910738187299151
23110.5716250004,0.54010009765625,-0.7941741943359375,0.265167236328125,0.02598206591092206,-0.2169267213279683,-0.005900499711179561
23140.6686250002,0.544921875,-0.7632293701171875,0.2831878662109375,0.02063230791317088,-0.2179957141895261,-0.004869856369318895
23170.7746250004,0.5153045654296875,-0.7654266357421875,0.3077545166015625,0.02063230791317088,-0.2179957141895261,-0.004869856369318895
23200.8756250007,0.525543212890625,-0.7762298583984375,0.2903900146484375,-0.0007930893726255971,-0.13726305100821,-0.008736766272113949
23230.976625,0.5265960693359375,-0.7860107421875,0.2620086669921875,-0.009029447675913658,-0.0536038401050059,-0.04767830667957959
23261.0796250001,0.559417724609375,-0.7710723876953125,0.255706787109375,-0.015225025635874,-0.02191861471967915,-0.0713633961503083
23291.152625,0.54119873046875,-0.761993408203125,0.2840118408203125,-0.01001694780811504,-0.03561045851599454,-0.05738712674957246
23321.2806250003,0.5442047119140625,-0.77349853515625,0.2792510986328125,0.006142581054267763,-0.04736352103873222,-0.06890796162525525
23351.3816249997,0.5646514892578125,-0.7787322998046875,0.2477874755859375,0.02018756001112765,-0.03045591022614617,-0.08595139365343535
23381.4866250004,0.5252685546875,-0.7863006591796875,0.28070068359375,0.02018756001112765,-0.03045591022614617,-0.08595139365343535
23411.5926249997,0.587799072265625,-0.776031494140625,0.2546539306640625,0.01782560244033637,0.03133315548921827,-0.07250562594184329
23441.7006250005,0.5671539306640625,-0.7830352783203125,0.2624053955078125,0.02393036660712501,0.0538994509860047,-0.04702956063803629
23471.8056250003,0.5787811279296875,-0.792327880859375,0.2548828125,0.03083993805533559,-0.04230617812867175,0.01754996526751317
23501.9066250015,0.551666259765625,-0.7790069580078125,0.26727294921875,0.04763889189544642,-0.1047101677397355,0.05216333627138204
23532.0126250008,0.547760009765625,-0.777801513671875,0.283477783203125,0.04745433483190393,-0.1491828274151867,0.07481352134250596
23562.1156249999,0.48876953125,-0.7870330810546875,0.3259429931640625,0.0199068628322333,-0.1228731926901849,0.05099660539781833
23592.2176250006,0.5225067138671875,-0.7882537841796875,0.294525146484375,0.001411741693851004,0.01779098134616534,-0.03419339049996337
23622.3006250002,0.54364013671875,-0.7948455810546875,0.246246337890625,0.001411741693851004,0.01779098134616534,-0.03419339049996337
23652.4086250001,0.5356903076171875,-0.78717041015625,0.266204833984375,-0.008457134357655629,0.06492653579558678,-0.1155356512547986
23682.513625,0.5540771484375,-0.7721099853515625,0.2828826904296875,-0.008457134357655629,0.06492653579558678,-0.1155356512547986
23712.6156249997,0.5634765625,-0.783233642578125,0.27545166015625,-0.006590258433510083,0.005653624678129215,-0.08318836402247815
23742.7186250015,0.5667572021484375,-0.7592010498046875,0.2378387451171875,0.01983549011501918,-0.05992325505565492,-0.04954598155205216
23772.8166250008,0.5456390380859375,-0.7704620361328125,0.2593231201171875,0.02827531392558929,-0.09593771510901447,-0.03540512879594943
23802.9266250005,0.5420074462890625,-0.77667236328125,0.2771148681640625,0.02827531392558929,-0.09593771510901447,-0.03540512879594943
23833.0336250001,0.5608673095703125,-0.77508544921875,0.277191162109375,0.0412153473461753,-0.03119813322195125,-0.05488695111820607
23863.1376250005,0.55548095703125,-0.7819061279296875,0.27166748046875,0.04744155165867155,-0.04166062788043655,-0.0366613418821398
23893.2356250007,0.552215576171875,-0.771697998046875,0.269378662109375,0.05458548128280911,-0.05093908111827261,-0.00458569708100744
23923.3406250005,0.528106689453125,-0.7602691650390625,0.304779052734375,0.0523705302041902,-0.02432371550012971,-0.0005075985037691028
23953.4466250016,0.5703277587890625,-0.711151123046875,0.2616119384765625,0.0485456982466184,0.03905206159270393,-0.04994225992225595
23983.5416250007,0.591705322265625,-0.7927398681640625,0.221282958984375,0.04371312613256061,0.05754372062166913,-2.103897261162598e-05
24013.6576250015,0.593719482421875,-0.752349853515625,0.2168121337890625,0.04153519299309381,-0.1007186218979247,0.02332503009135
24043.7486250003,0.5250396728515625,-0.7535858154296875,0.3122711181640625,0.04153519299309381,-0.1007186218979247,0.02332503009135
24073.869625,0.5310821533203125,-0.7249908447265625,0.3415069580078125,0.034281807448154,-0.1287507892159898,0.1054806202430954
24103.9596250002,0.4701690673828125,-0.7703094482421875,0.381011962890625,-0.0003787015070092677,-0.1758352109724817,-0.04258554372702106
24134.0776249999,0.49560546875,-0.782470703125,0.29058837890625,-0.04604925104077812,0.05033587513136967,-0.1935106111273376
24164.1716250006,0.55596923828125,-0.76226806640625,0.2637481689453125,-0.05659323842861985,0.2103990471800751,-0.126406674824502
24194.2606250004,0.595947265625,-0.78125,0.24981689453125,-0.05361076432384011,0.1861488349260316,-0.1027929580709874
24224.3816250002,0.523162841796875,-0.8143768310546875,0.2555694580078125,-0.02143977835568291,-0.05714611067092029,-0.08504165782506429
24254.4886250007,0.5408172607421875,-0.8084869384765625,0.2792816162109375,0.006386526610119021,0.004498611713361849,-0.09799633863164572
24284.5806250007,0.5401458740234375,-0.7864990234375,0.2809295654296875,0.04804582291001053,0.05134814266170878,-0.104358896791954
24314.6906250004,0.58282470703125,-0.7975616455078125,0.2563018798828125,0.04804582291001053,0.05134814266170878,-0.104358896791954
24344.773625,0.591461181640625,-0.766143798828125,0.268707275390625,0.06984566064507215,0.1009881338002407,-0.151378337417848
24374.8796250002,0.5634765625,-0.7825469970703125,0.269866943359375,0.09954310259276375,0.0268675669733734,-0.1229842465076412
24404.984625,0.5651092529296875,-0.783966064453125,0.2514190673828125,0.108289722560911,0.1327500582249618,-0.05539215277699411
24435.0896250007,0.5662841796875,-0.7441253662109375,0.248992919921875,0.1039405141847026,0.1763558589655922,-0.05356762111418082
24465.1906250001,0.57720947265625,-0.7718658447265625,0.2985076904296875,0.1039405141847026,0.1763558589655922,-0.05356762111418082
24495.2916250004,0.6151123046875,-0.733245849609375,0.3022613525390625,0.1189154689942181,0.142167794787809,0.04797604808945045
24525.3956250008,0.630584716796875,-0.700347900390625,0.282257080078125,0.1652281066668051,-0.01524340144739554,0.03120692165354851
24555.4786250004,0.5229644775390625,-0.70782470703125,0.28118896484375,0.1832124335081102,-0.3358877303768268,0.08662117866759028
24585.6026250003,0.5318756103515625,-0.68017578125,0.3776702880859375,0.1392151480872381,-0.111684720318544,0.07848628680183424
24615.7056250004,0.505401611328125,-0.721923828125,0.39251708984375,0.09143963602787064,0.0929941231561499,0.02676237211031527
24645.8076250001,0.5326385498046875,-0.7634124755859375,0.3472137451171875,0.05484993317905398,0.158134244471161,-0.05489946797532945