timestamp(unix),attitude_roll(radians),attitude_pitch(radians),attitude_yaw(radians),rotation_rate_x(radians/s),rotation_rate_y(radians/s),rotation_rate_z(radians/s),gravity_x(G),gravity_y(G),gravity_z(G),user_acc_x(G),user_acc_y(G),user_acc_z(G),magnetic_field_x(microteslas),magnetic_field_y(microteslas),magnetic_field_z(microteslas)
0,2.130344,-1.542898,-1.883607,-0.003491,-0.015535,0.023685,0.023641,0.999611,0.014807,-0.010762,0.008629,0.001703,29.203571,36.182728,-8.316246
20,2.124274,-1.542521,-1.889467,-0.00347,-0.004867,0.032211,0.024051,0.9996,0.014861,-0.008151,0.009586,0.003434,29.203571,36.182728,-8.316246
40,2.11436,-1.541874,-1.899452,-0.002394,0.005815,0.045001,0.02475,0.999582,0.014956,0.009292,0.009863,0.001081,29.217394,36.17065,-8.320249
60,2.098349,-1.541045,-1.915531,-0.000274,-0.000599,0.038611,0.025703,0.999557,0.014975,0.004998,0.010925,0.000009,29.253214,36.143337,-8.313081
80,2.088784,-1.540443,-1.924992,-0.002397,-0.005957,0.026885,0.026367,0.999539,0.015026,0.000168,0.008059,-0.000912,29.253214,36.143337,-8.313081
100,2.083912,-1.540074,-1.929721,-0.005598,-0.008077,0.025813,0.026762,0.999528,0.015079,0.003863,0.011901,0.001751,29.29497,36.109306,-8.313921
120,2.078774,-1.539458,-1.93477,-0.006485,-0.001527,0.020288,0.027377,0.999509,0.015241,0.005445,0.007968,0.001834,29.316925,36.091049,-8.315804
140,2.077427,-1.539009,-1.936001,-0.00544,-0.011131,0.012829,0.027789,0.999495,0.015422,0.001538,0.002626,0.005132,29.316925,36.091049,-8.315804
160,2.078509,-1.538739,-1.934741,-0.005433,-0.007932,0.014961,0.028009,0.999486,0.015583,-0.000253,0.009166,0.002148,29.343197,36.071106,-8.309676
180,2.075551,-1.538375,-1.937579,-0.00435,-0.002616,0.016029,0.028373,0.999474,0.015676,0.001336,0.008399,0.001338,29.354906,36.061535,-8.309856
200,2.075583,-1.537953,-1.937548,-0.003239,0.001574,0.002181,0.028742,0.999461,0.015881,0.003942,0.013509,0.002369,29.354906,36.061535,-8.309856
220,2.085824,-1.538086,-1.927278,-0.004304,-0.001635,-0.00315,0.028462,0.999465,0.016109,-0.009694,0.012238,0.004109,29.374918,36.04715,-8.301542
240,2.100131,-1.538247,-1.913047,-0.003237,0.006921,0.009638,0.02809,0.99947,0.016433,-0.006849,0.016261,0.00409,29.364628,36.057274,-8.29399
260,2.09917,-1.537821,-1.914176,-0.005356,0.006906,0.004308,0.028473,0.999456,0.016621,0.006866,0.00445,0.000667,29.359385,36.066448,-8.272619
280,2.099835,-1.537862,-1.91355,-0.004199,0.000718,0.005171,0.028426,0.999458,0.016619,-0.006545,0.002251,-0.000506,29.359385,36.066448,-8.272619
300,2.103004,-1.537925,-1.910525,0.000065,0.011402,0.021162,0.02832,0.99946,0.016677,-0.008148,0.005591,0.001252,29.36224,36.065834,-8.265162
320,2.098253,-1.537647,-1.915667,-0.000964,0.020974,0.021163,0.028639,0.999451,0.016682,0.000078,0.013443,0.000896,29.36224,36.065834,-8.265162
340,2.089559,-1.537271,-1.924701,-0.000978,0.013505,0.014768,0.029109,0.999438,0.016619,0.003804,0.006696,-0.002154,29.378311,36.056236,-8.249922
360,2.087116,-1.536973,-1.927366,-0.003105,0.007084,0.003042,0.029409,0.999428,0.016695,0.006922,0.009559,0.001249,29.403381,36.038647,-8.237448
380,2.093395,-1.536866,-1.921111,-0.004185,-0.002522,-0.006551,0.029396,0.999424,0.016933,-0.003273,0.006923,0.005895,29.416124,36.030079,-8.229434
400,2.100337,-1.536948,-1.914072,0.000062,-0.005726,-0.006545,0.029207,0.999427,0.017095,-0.006563,0.005257,0.002879,29.416124,36.030079,-8.229434
420,2.121646,-1.537686,-1.892674,0.000013,-0.002423,0.02009,0.028207,0.999452,0.017327,-0.027032,0.02014,0.007102,29.403111,36.042583,-8.221174
440,2.108485,-1.53705,-1.90632,-0.000825,0.035048,0.030516,0.028979,0.999431,0.01728,0.012448,0.008962,-0.002357,29.374973,36.067837,-8.211015
460,2.095244,-1.536259,-1.919957,-0.00303,0.00736,0.017721,0.02989,0.999404,0.017291,0.000521,0.00583,0.003385,29.426081,36.029972,-8.194219
480,2.095934,-1.536042,-1.919235,-0.003048,-0.004385,0.005997,0.030065,0.999396,0.01742,0.000025,0.007867,0.003744,29.426081,36.029972,-8.194219
500,2.097968,-1.53589,-1.917129,-0.004103,-0.004399,0.001733,0.030161,0.999391,0.017558,0.001501,0.008116,0.003484,29.44149,36.01886,-8.187743
520,2.103636,-1.535792,-1.911337,-0.005178,-0.005449,0.003862,0.030145,0.999387,0.017778,0.0008,0.002871,0.003035,29.44149,36.01886,-8.187743
540,2.101784,-1.535749,-1.913179,-0.000884,0.000896,-0.000391,0.030216,0.999386,0.017744,-0.000552,0.000172,-0.001585,29.441952,36.020126,-8.180494
560,2.100269,-1.535783,-1.914728,0.003378,0.001949,0.000682,0.030213,0.999387,0.017681,-0.00171,-0.000486,-0.001018,29.441952,36.020126,-8.180494
580,2.096482,-1.535822,-1.918544,0.006569,-0.002337,-0.004641,0.030246,0.999388,0.017547,0.002652,0.012422,0.000337,29.444593,36.017315,-8.183363
600,2.102416,-1.536161,-1.912492,0.003373,-0.005538,-0.009976,0.029849,0.9994,0.017554,-0.007221,0.01592,0.00361,29.445999,36.015232,-8.187472
620,2.108859,-1.536414,-1.905999,0.001256,-0.000202,-0.006782,0.029519,0.999409,0.017617,-0.001412,0.008663,0.002876,29.422422,36.033733,-8.190819
640,2.111059,-1.536432,-1.903766,0.000191,-0.00341,-0.012112,0.029464,0.99941,0.017672,0.005951,0.005412,0.001203,29.422422,36.033733,-8.190819
660,2.103676,-1.536439,-1.910958,0.003378,-0.011972,-0.022762,0.029588,0.99941,0.017451,0.002318,0.002284,-0.007609,29.416134,36.039425,-8.18839
680,2.103746,-1.537096,-1.910557,0.003369,-0.017306,-0.027026,0.029021,0.999432,0.017119,-0.001036,-0.000729,-0.011687,29.407681,36.041866,-8.207966
700,2.099253,-1.537986,-1.914868,0.00342,-0.00562,-0.029154,0.028329,0.999462,0.01654,-0.003732,0.003559,-0.013732,29.407681,36.041866,-8.207966
720,2.092599,-1.538704,-1.921557,-0.001853,0.007151,-0.030226,0.027817,0.999485,0.015993,0.004288,-0.002354,-0.00255,29.368923,36.064014,-8.249338
740,2.101163,-1.539155,-1.913226,-0.004994,0.012415,-0.045146,0.02729,0.999499,0.016003,0.012643,-0.001743,-0.003628,29.345423,36.079254,-8.266319
760,2.110133,-1.539593,-1.904451,-0.002842,0.008082,-0.06219,0.02677,0.999513,0.016023,0.014749,0.00009,0.003478,29.345423,36.079254,-8.266319
780,2.132829,-1.540654,-1.881779,-0.00177,-0.001571,-0.081369,0.025502,0.999546,0.016061,0.0135,-0.000324,0.00109,29.316759,36.105198,-8.254758
800,2.163923,-1.541928,-1.850629,-0.002784,-0.001663,-0.103745,0.023934,0.999583,0.016134,0.016746,0.008565,0.006693,29.250616,36.159561,-8.251448
820,2.207294,-1.543044,-1.807044,-0.005994,-0.012333,-0.115472,0.022315,0.999615,0.016494,0.007729,0.002857,0.000627,29.250616,36.159561,-8.251448
840,2.256737,-1.544907,-1.757227,-0.011332,-0.021923,-0.125073,0.020032,0.999665,0.016397,0.00603,0.001571,-0.008477,29.153751,36.23951,-8.243497
860,2.328488,-1.546722,-1.684978,-0.017707,-0.023,-0.133609,0.017487,0.99971,0.016544,0.004623,0.00029,-0.007144,29.043543,36.324444,-8.258675
880,2.435698,-1.548755,-1.57742,-0.023877,-0.007778,-0.13398,0.014298,0.999757,0.016773,-0.011688,0.013381,-0.004917,29.043543,36.324444,-8.258675
900,2.555983,-1.550149,-1.457193,-0.034471,0.007143,-0.133996,0.011411,0.999787,0.017206,-0.000806,0.006332,-0.004174,28.851969,36.475159,-8.265923
920,2.691023,-1.550775,-1.32235,-0.050384,0.014578,-0.148938,0.008718,0.9998,0.018022,0.009455,0.006167,-0.00377,28.722521,36.583103,-8.239655
940,2.837935,-1.550632,-1.175699,-0.067375,0.013474,-0.172408,0.006029,0.999797,0.01924,0.016508,0.011083,0.000169,28.573549,36.714504,-8.172882
960,2.996401,-1.549716,-1.017642,-0.081076,0.031451,-0.206521,0.00305,0.999778,0.020857,0.015612,0.001275,-0.002791,28.474615,36.806545,-8.103897
980,-3.09521,-1.548362,-0.826854,-0.085196,0.049403,-0.238488,-0.00104,0.999748,0.022408,0.022128,-0.008629,-0.007683,28.474615,36.806545,-8.103897
1000,-2.927333,-1.546513,-0.659958,-0.095745,0.054607,-0.273664,-0.005163,0.999705,0.023725,0.029745,-0.010981,-0.01222,28.188276,37.06094,-7.943951
1020,-2.761526,-1.543214,-0.49539,-0.101983,0.073616,-0.308829,-0.010231,0.99962,0.02561,0.020134,-0.003419,-0.002448,28.188276,37.06094,-7.943951
1040,-2.598372,-1.538592,-0.33375,-0.118938,0.078869,-0.337626,-0.016643,0.999481,0.027564,0.004986,0.014023,-0.005225,27.92791,37.289875,-7.79073
1060,-2.483404,-1.533102,-0.220104,-0.133752,0.06733,-0.35705,-0.023051,0.99929,0.029813,0.020732,0.010079,-0.009732,27.580854,37.585064,-7.606441
1080,-2.386987,-1.526742,-0.124706,-0.149768,0.044983,-0.375196,-0.030168,0.99903,0.032085,0.008699,-0.004294,-0.019817,27.580854,37.585064,-7.606441
1100,-2.307819,-1.519138,-0.046323,-0.166798,0.037532,-0.391212,-0.038235,0.998666,0.034704,-0.010105,0.003791,-0.00945,27.20089,37.896511,-7.427282
1120,-2.263846,-1.510996,-0.002747,-0.174341,0.017381,-0.385903,-0.045977,0.998213,0.038183,-0.009886,0.012835,-0.008153,26.753439,38.252048,-7.227231
1140,-2.233029,-1.502732,0.028113,-0.185136,-0.015498,-0.37634,-0.053635,0.997685,0.041819,-0.026306,0.016811,0.001547,26.753439,38.252048,-7.227231
1160,-2.214136,-1.494551,0.047694,-0.19388,-0.039671,-0.317759,-0.060945,0.997095,0.045693,-0.023635,0.005209,0.00315,26.314821,38.593575,-7.018891
1180,-2.210427,-1.487641,0.052961,-0.186777,-0.104345,-0.269813,-0.06664,0.996545,0.049578,-0.01913,0.016578,0.013654,25.917372,38.894485,-6.83427
1200,-2.211834,-1.481511,0.05415,-0.174208,-0.139323,-0.234637,-0.071465,0.996017,0.053324,-0.025504,0.019318,0.039861,25.917372,38.894485,-6.83427
1220,-2.216598,-1.476272,0.05285,-0.154182,-0.192208,-0.193139,-0.075376,0.995536,0.056804,-0.026934,0.014703,0.019002,25.601019,39.122368,-6.725068
1240,-2.221216,-1.472107,0.05265,-0.109739,-0.241074,-0.147255,-0.078412,0.995134,0.059661,-0.041735,0.003538,0.022217,25.342447,39.293911,-6.704284
1260,-2.225682,-1.469294,0.052934,-0.067219,-0.223941,-0.083245,-0.080365,0.994853,0.061716,-0.081012,0.014867,0.042288,25.342447,39.293911,-6.704284
1280,-2.232108,-1.468304,0.050302,-0.029949,-0.175882,-0.001122,-0.080744,0.994752,0.062836,-0.096792,-0.003053,0.022796,25.165539,39.39407,-6.782434
1300,-2.243648,-1.468753,0.042064,-0.015178,-0.169248,0.071362,-0.079664,0.994798,0.063485,-0.035326,0.020598,0.040595,25.137693,39.394737,-6.881096
1320,-2.25784,-1.470088,0.03216,0.020738,-0.243767,0.0778,-0.077728,0.994933,0.063767,-0.003952,0.00406,-0.002594,25.137693,39.394737,-6.881096
1340,-2.265198,-1.471729,0.030241,0.04939,-0.275793,0.070384,-0.076002,0.995097,0.063292,-0.009554,0.002889,0.006776,25.186516,39.3335,-7.050786
1360,-2.272836,-1.473881,0.027266,0.069821,-0.205571,0.100271,-0.073881,0.995307,0.062488,-0.031862,0.011605,0.046506,25.223246,39.263077,-7.307336
1380,-2.28321,-1.475233,0.019761,0.097873,-0.104647,0.10567,-0.072211,0.995437,0.062371,-0.0151,0.004502,0.060706,25.223246,39.263077,-7.307336
1400,-2.278479,-1.47848,0.026388,0.154372,-0.096381,0.096181,-0.070049,0.995742,0.059928,-0.007206,0.024598,0.062539,25.290091,39.190144,-7.466088
1420,-2.26232,-1.482082,0.044968,0.190498,-0.129541,0.078123,-0.068245,0.996067,0.0565,-0.003258,0.00346,0.05463,25.376392,39.083313,-7.728639
1440,-2.236071,-1.485762,0.073847,0.230034,-0.108512,0.055821,-0.06682,0.996387,0.052426,-0.03575,0.002927,0.009006,25.410629,39.015812,-7.953926
1460,-2.195047,-1.489535,0.116313,0.257024,-0.014004,0.051629,-0.065863,0.9967,0.047444,-0.050592,-0.014705,-0.001485,25.410629,39.015812,-7.953926
1480,-2.152591,-1.493813,0.156844,0.249045,0.161664,0.103869,-0.064254,0.997038,0.042262,-0.119187,-0.018233,-0.006755,25.455355,38.916824,-8.288815
1500,-2.131888,-1.49858,0.173211,0.181148,0.281318,0.184761,-0.06109,0.997394,0.038393,0.008692,0.047162,0.021223,25.630121,38.770012,-8.436907
1520,-2.108819,-1.503247,0.188695,0.162569,0.414105,0.144271,-0.057962,0.997719,0.034588,0.001504,0.027961,0.007923,25.630121,38.770012,-8.436907
1540,-2.085763,-1.506709,0.201732,0.108937,0.573606,0.106922,-0.055738,0.997947,0.031542,0.001126,0.038613,0.037626,25.932777,38.593449,-8.320771
1560,-2.059083,-1.508825,0.215736,0.073106,0.645823,0.058928,-0.054694,0.99808,0.029053,0.103858,0.050992,0.010452,26.189949,38.48925,-7.991412
1580,-2.022318,-1.509274,0.240335,0.08915,0.585679,-0.071054,-0.055322,0.998108,0.026828,0.126871,0.014053,-0.012805,26.189949,38.48925,-7.991412
1600,-1.967133,-1.507097,0.286067,0.081314,0.409762,-0.194713,-0.058721,0.997972,0.024574,0.069235,0.036711,0.013451,26.310501,38.48542,-7.604511
1620,-1.911351,-1.502933,0.334099,0.063291,0.379691,-0.28106,-0.063917,0.997698,0.02265,0.035169,0.03581,-0.0091,26.166285,38.630524,-7.362513
1640,-1.86602,-1.497512,0.372097,0.028171,0.372273,-0.304565,-0.070051,0.997316,0.021303,-0.028841,0.000929,-0.042071,26.166285,38.630524,-7.362513
1660,-1.834946,-1.491714,0.395923,-0.008013,0.378774,-0.305692,-0.07626,0.996875,0.020626,-0.003895,-0.0031,-0.06834,25.947802,38.814655,-7.164677
1680,-1.818854,-1.485415,0.404217,-0.071821,0.40131,-0.308995,-0.082667,0.996357,0.020937,-0.042424,-0.013111,-0.091952,25.667145,39.053879,-6.869546
1700,-1.817509,-1.479304,0.396674,-0.11855,0.459041,-0.271769,-0.088598,0.995817,0.022313,-0.058939,-0.012541,-0.080662,25.667145,39.053879,-6.869546
1720,-1.820854,-1.47372,0.384861,-0.122084,0.381534,-0.250484,-0.093909,0.995292,0.023985,-0.007394,-0.015571,-0.055433,25.404745,39.298908,-6.43376
1740,-1.827616,-1.468873,0.372016,-0.123772,0.251021,-0.191914,-0.09841,0.99481,0.025844,-0.094644,-0.028975,-0.03236,25.182858,39.511013,-5.991819
1760,-1.838939,-1.466193,0.356624,-0.101967,0.182405,-0.058701,-0.100682,0.994534,0.027663,-0.073299,0.010913,0.037766,25.182858,39.511013,-5.991819
1780,-1.854088,-1.466041,0.338234,-0.092871,0.131903,0.073429,-0.100396,0.994518,0.029228,-0.104804,-0.004681,0.071725,25.055485,39.636776,-5.687437
1800,-1.87485,-1.468772,0.314829,-0.062302,0.132392,0.214133,-0.097175,0.9948,0.030492,-0.06147,0.04234,0.07783,25.147097,39.609383,-5.469826
1820,-1.894956,-1.473676,0.292075,-0.014623,0.114486,0.293061,-0.091918,0.995287,0.030886,-0.025086,0.021879,0.061705,25.147097,39.609383,-5.469826
1840,-1.916078,-1.479641,0.26978,0.00407,0.009322,0.329296,-0.085657,0.995848,0.03081,-0.016867,-0.008605,-0.013583,25.45842,39.430405,-5.320781
1860,-1.944537,-1.486339,0.241823,0.003807,-0.035148,0.371906,-0.078534,0.996436,0.030799,-0.018512,0.024393,0.020089,25.847307,39.17942,-5.299848
1880,-1.981231,-1.493555,0.205149,-0.001304,0.009862,0.400361,-0.070756,0.997018,0.030789,-0.013091,0.00846,0.017428,25.847307,39.17942,-5.299848
1900,-2.028075,-1.500993,0.158012,0.000742,-0.003907,0.414214,-0.062581,0.997565,0.030794,-0.010097,0.020639,0.007796,26.292343,38.880085,-5.315097
1920,-2.08808,-1.508416,0.098417,-0.001518,-0.034703,0.420595,-0.054183,0.998055,0.030828,-0.009553,0.019218,0.006663,26.771759,38.551453,-5.315726
1940,-2.164581,-1.515396,0.022325,-0.009952,-0.017704,0.410995,-0.045894,0.998466,0.030981,-0.011815,0.017571,-0.004629,26.771759,38.551453,-5.315726
1960,-2.262309,-1.521712,-0.075691,-0.018318,0.019508,0.404596,-0.037793,0.998796,0.031288,-0.015246,-0.001847,-0.000115,27.246916,38.214523,-5.334274
1980,-2.390873,-1.527186,-0.204422,-0.035468,-0.013417,0.398165,-0.02974,0.999049,0.031878,0.002198,0.02599,-0.019549,27.711422,37.88316,-5.304873
2000,-2.553216,-1.531379,-0.366241,-0.051559,-0.046331,0.394932,-0.021871,0.999223,0.03278,-0.023722,0.002043,-0.010854,27.711422,37.88316,-5.304873
2020,-2.762117,-1.534449,-0.574086,-0.052653,-0.065546,0.375748,-0.013461,0.99934,0.033754,0.007342,0.021809,-0.001375,28.154961,37.558205,-5.279969
2040,-2.960926,-1.535331,-0.771847,-0.057832,-0.048671,0.339515,-0.006371,0.999371,0.034881,0.011208,0.027194,0.020234,28.593542,37.22588,-5.276511
2060,3.112564,-1.53402,-0.981075,-0.056582,-0.01798,0.307562,0.001067,0.999324,0.036752,0.017106,0.018209,0.014838,28.839119,37.03841,-5.259276
2080,2.963545,-1.532293,-1.129326,-0.055622,-0.065965,0.274521,0.006818,0.999259,0.037886,0.035129,-0.006797,0.007906,28.839119,37.03841,-5.259276
2100,2.848652,-1.530164,-1.241691,-0.04952,-0.177866,0.2159,0.01173,0.999175,0.03889,0.069431,0.019334,0.015019,29.196573,36.765446,-5.20199
2120,2.775173,-1.528171,-1.310263,-0.045484,-0.285597,0.135965,0.015267,0.999092,0.039783,0.067314,0.014763,0.025082,29.196573,36.765446,-5.20199
2140,2.735356,-1.526832,-1.343606,-0.026374,-0.343367,0.066725,0.017367,0.999034,0.040374,0.048322,-0.000132,0.035814,29.484818,36.495201,-5.472143
2160,2.716937,-1.526375,-1.354821,-0.000779,-0.368149,0.010291,0.018296,0.999014,0.040463,0.053054,-0.001028,0.035282,29.484818,36.495201,-5.472143
2180,2.716617,-1.52666,-1.348052,0.011153,-0.338621,-0.036565,0.018191,0.999026,0.040197,0.023892,-0.031634,0.014063,29.446577,36.47039,-5.831653
2200,2.728592,-1.52731,-1.329847,0.012445,-0.291942,-0.058927,0.017448,0.999055,0.039818,0.012032,-0.024964,-0.008262,29.446577,36.47039,-5.831653
2220,2.752834,-1.528753,-1.300327,0.013715,-0.24415,-0.06957,0.015932,0.999116,0.038895,-0.007142,-0.03502,-0.011399,29.34104,36.506756,-6.128515
2240,2.775626,-1.529666,-1.27345,0.027807,-0.177212,-0.067398,0.014714,0.999154,0.038396,-0.018529,-0.025674,-0.005925,29.225611,36.561665,-6.348772
2260,2.795274,-1.530654,-1.25143,0.032387,-0.082541,-0.051384,0.013622,0.999194,0.037749,-0.028103,-0.006168,0.009065,29.225611,36.561665,-6.348772
2280,2.841016,-1.531392,-1.204747,0.033557,-0.043131,-0.033264,0.011664,0.999224,0.037628,-0.026388,0.015928,0.008789,29.110577,36.619942,-6.538562
2300,2.852315,-1.532438,-1.192601,0.04745,-0.034706,-0.040696,0.010939,0.999264,0.036756,-0.006347,0.039554,0.015307,29.02354,36.681095,-6.582541
2320,2.857025,-1.530848,-1.187127,0.065557,-0.041217,-0.056644,0.011212,0.999202,0.038331,0.023807,0.004307,0.052016,29.02354,36.681095,-6.582541
2340,2.878162,-1.532742,-1.164912,0.086802,-0.063672,-0.069399,0.009907,0.999276,0.036733,0.011211,-0.001565,0.039347,29.002251,36.696819,-6.588732
2360,2.895413,-1.534892,-1.146173,0.101633,-0.073211,-0.050195,0.008748,0.999355,0.034815,-0.010579,0.007618,0.019293,28.916203,36.738613,-6.732456
2380,2.972425,-1.538251,-1.067646,0.135619,-0.084929,-0.027773,0.005478,0.99947,0.032075,-0.050858,0.02148,-0.004182,28.863955,36.750877,-6.887945
2400,2.965513,-1.541123,-1.0731,0.150568,-0.063642,-0.009627,0.005197,0.99956,0.029211,-0.007593,0.028944,0.029887,28.863955,36.750877,-6.887945
2420,2.951868,-1.544361,-1.085551,0.167624,-0.062661,-0.014925,0.004985,0.999651,0.025958,0.011952,0.005186,0.027478,28.728725,36.805626,-7.155766
2440,2.921356,-1.547136,-1.11462,0.189878,-0.078596,0.006422,0.005168,0.99972,0.023087,-0.008617,0.000738,0.007659,28.728725,36.805626,-7.155766
2460,2.808197,-1.551514,-1.225594,0.21415,-0.131789,0.018175,0.00631,0.999814,0.018219,0.015327,0.019122,-0.014038,28.71406,36.772469,-7.381516
2480,2.681904,-1.555547,-1.34847,0.234116,-0.200945,0.022455,0.006765,0.999884,0.013665,0.009775,0.009531,-0.016504,28.732803,36.682098,-7.749068
2500,2.458219,-1.560286,-1.567428,0.249856,-0.255157,0.037384,0.006636,0.999945,0.00815,-0.017439,0.026377,-0.011904,28.714058,36.61639,-8.120424
2520,1.950441,-1.562509,-2.069682,0.250731,-0.290136,0.062949,0.007697,0.999966,0.003071,-0.038307,0.024311,-0.013188,28.714058,36.61639,-8.120424
2540,1.363811,-1.561276,-2.65046,0.248505,-0.298511,0.091713,0.009317,0.999955,-0.001957,-0.049371,0.019424,-0.011395,28.672306,36.526184,-8.656519
2560,0.889382,-1.558529,-3.118247,0.243984,-0.352603,0.118323,0.009528,0.999925,-0.007727,-0.062247,0.000274,-0.010034,28.692942,36.37841,-9.193738
2580,0.784662,-1.553278,3.06726,0.219427,-0.339551,0.167297,0.012378,0.999847,-0.012396,-0.074862,0.002244,0.007956,28.692942,36.37841,-9.193738
2600,0.771959,-1.547622,3.059926,0.195279,-0.224488,0.204577,0.016164,0.999731,-0.016604,-0.049992,0.021997,0.015246,28.684219,36.234573,-9.770863
2620,0.748973,-1.544041,3.040626,0.149692,-0.155129,0.226881,0.018215,0.999642,-0.019593,-0.051968,0.008018,0.005112,28.760082,36.068974,-10.153099
2640,0.798988,-1.539215,3.092234,0.10541,-0.039114,0.221504,0.022629,0.999501,-0.022022,-0.025543,0.016124,-0.006374,28.760082,36.068974,-10.153099
2660,0.857044,-1.535333,-3.133364,0.055639,0.061168,0.261929,0.026802,0.999371,-0.023212,-0.019844,0.010944,0.005482,28.977837,35.83741,-10.351994
2680,0.90126,-1.5325,-3.090908,0.021619,0.108283,0.313015,0.030021,0.999267,-0.023762,-0.028099,0.001923,0.005055,29.205036,35.652714,-10.351255
2700,0.994636,-1.52687,-2.99997,0.004582,0.130822,0.349219,0.036823,0.999035,-0.023924,-0.017506,0.021961,0.022566,29.420235,35.494541,-10.285224
2720,1.079183,-1.521649,-2.918349,-0.011306,0.172467,0.379032,0.04331,0.998793,-0.023191,-0.027105,0.018755,0.010373,29.420235,35.494541,-10.285224
2740,1.154164,-1.514676,-2.846748,-0.014587,0.161933,0.399269,0.051292,0.998426,-0.022699,0.015038,0.008166,0.014307,29.824442,35.20179,-10.125957
2760,1.206104,-1.507572,-2.796809,-0.000013,0.057589,0.374762,0.059027,0.998002,-0.022535,-0.001623,-0.00464,-0.034121,30.281563,34.850269,-9.984187
2780,1.249355,-1.500531,-2.753616,-0.02689,-0.001799,0.387487,0.066612,0.997532,-0.022181,-0.009208,-0.00417,-0.034475,30.281563,34.850269,-9.984187
2800,1.294728,-1.492873,-2.709136,-0.051155,0.086717,0.432218,0.074897,0.996966,-0.021218,-0.051001,0.006758,0.00216,30.684122,34.506138,-9.950357
2820,1.343328,-1.484069,-2.662582,-0.04582,0.099524,0.448216,0.084388,0.996242,-0.019534,0.010186,0.015065,0.012972,30.684122,34.506138,-9.950357
2840,1.37476,-1.475368,-2.631978,-0.04831,0.011346,0.460976,0.093459,0.99545,-0.01856,-0.01042,0.018222,0.009374,31.336508,33.971428,-9.755193
2860,1.403583,-1.466176,-2.603214,-0.062185,0.018945,0.486527,0.102973,0.994532,-0.017381,-0.027244,0.037008,0.03296,31.814163,33.545109,-9.684179
2880,1.432924,-1.457622,-2.574825,-0.044956,0.071349,0.53104,0.111862,0.993603,-0.015521,-0.050888,0.023213,0.003726,31.814163,33.545109,-9.684179
2900,1.451622,-1.446658,-2.556716,-0.029315,0.008754,0.574739,0.122942,0.992305,-0.014721,-0.04648,0.025426,-0.029484,32.297638,33.116123,-9.559459
2920,1.457532,-1.43557,-2.54999,-0.015887,-0.057955,0.649329,0.13395,0.990871,-0.015237,-0.083856,0.044514,-0.003302,32.634254,32.785301,-9.556566
2940,1.468011,-1.421859,-2.538469,0.00425,-0.032144,0.735678,0.147604,0.988929,-0.015225,-0.068503,0.06382,0.016125,33.266434,32.133427,-9.590938
2960,1.476214,-1.406043,-2.529868,0.01481,0.004391,0.835865,0.163276,0.986459,-0.015489,-0.08567,0.081214,0.048769,33.266434,32.133427,-9.590938
2980,1.485815,-1.388023,-2.520772,-0.005512,0.047453,0.94559,0.181101,0.983343,-0.015427,-0.087962,0.142984,0.060761,34.010159,31.33979,-9.608599
3000,1.496371,-1.367526,-2.511923,-0.000166,0.135191,1.082009,0.201314,0.979412,-0.015011,-0.099034,0.153019,0.077083,34.918594,30.343609,-9.54754
3020,1.507066,-1.344569,-2.504405,-0.003551,0.159116,1.205611,0.223848,0.974519,-0.014285,-0.116838,0.190367,0.110934,34.918594,30.343609,-9.54754
3040,1.515953,-1.318868,-2.497136,-0.016038,0.028922,1.330225,0.248897,0.968433,-0.013664,-0.15559,0.260708,0.101845,35.994308,29.114777,-9.377539
3060,1.522178,-1.290674,-2.490161,-0.024108,-0.051262,1.46871,0.276147,0.961022,-0.013436,-0.231637,0.277336,0.086587,37.149426,27.640089,-9.335107
3080,1.528533,-1.258958,-2.483278,-0.033816,0.033588,1.663707,0.306535,0.951771,-0.012963,-0.302079,0.295925,0.086327,37.149426,27.640089,-9.335107
3100,1.536619,-1.223503,-2.476297,-0.052156,0.074779,1.835235,0.340155,0.940297,-0.01163,-0.304663,0.429133,0.099322,38.423107,25.846161,-9.318752
3120,1.543114,-1.185417,-2.470934,-0.02582,0.067737,1.951423,0.375766,0.926656,-0.010405,-0.413913,0.424616,0.120634,39.815262,23.693977,-9.194498
3140,1.5468,-1.144527,-2.467708,0.003486,0.021493,2.101703,0.413358,0.910515,-0.009921,-0.49603,0.433419,0.150775,39.815262,23.693977,-9.194498
3160,1.548953,-1.101041,-2.467523,0.076272,0.182221,2.207358,0.45256,0.891679,-0.009887,-0.784499,0.510741,0.219726,40.974049,21.649849,-9.143849
3180,1.552651,-1.055402,-2.471652,0.194259,0.474666,2.323779,0.492797,0.870099,-0.008943,-1.10739,0.580921,0.186708,40.974049,21.649849,-9.143849
3200,1.554023,-1.005789,-2.48362,0.445555,0.619482,2.58531,0.535347,0.844585,-0.00898,-1.211433,0.637273,0.020775,43.051849,17.36282,-8.733207
3220,1.550591,-0.948286,-2.501962,0.599683,0.557268,3.084235,0.582958,0.812417,-0.01178,-0.792629,0.544883,-0.163864,43.082645,22.859062,-7.639373
3240,1.548307,-0.879645,-2.518303,0.564827,0.583478,3.469903,0.637263,0.770513,-0.014334,-0.039867,0.521632,-0.200586,45.172417,18.534172,-7.276545
3260,1.549629,-0.813767,-2.530188,0.338766,0.342828,3.193475,0.686611,0.726879,-0.014536,0.037952,0.556141,-0.258017,45.172417,18.534172,-7.276545
3280,1.546905,-0.754133,-2.534319,0.188908,-0.139165,2.727457,0.728658,0.684657,-0.017412,0.037242,0.441823,-0.20175,46.875984,13.884169,-6.84713
3300,1.538057,-0.71093,-2.536798,0.109825,-0.479788,1.811942,0.757349,0.652539,-0.024804,-0.305887,0.246402,-0.157264,47.772648,10.162188,-7.177408
3320,1.522762,-0.687673,-2.539875,0.18762,-0.803366,0.783759,0.771834,0.634741,-0.037103,-0.833495,-0.330496,-0.054679,47.772648,10.162188,-7.177408
3340,1.500057,-0.677766,-2.541498,0.071998,-1.254724,0.299694,0.777027,0.627054,-0.055058,-1.157246,-0.136896,0.100896,47.95575,8.591137,-7.965537
3360,1.472223,-0.686579,-2.545693,0.123786,-1.235555,-0.903198,0.769664,0.633895,-0.076115,-1.240856,-0.248321,0.070469,47.722988,8.160885,-9.639896
3380,1.44463,-0.712676,-2.549646,-0.09111,-1.245816,-1.494949,0.750601,0.653861,-0.095206,-1.128989,-0.332511,0.054938,47.722988,8.160885,-9.639896
3400,1.422561,-0.748854,-2.549382,-0.355319,-0.99927,-1.988693,0.724437,0.680799,-0.108181,-0.76588,-0.297651,0.06689,47.024315,9.754602,-11.426838
3420,1.408544,-0.798939,-2.546142,-0.591119,-0.725271,-2.754093,0.688307,0.716617,-0.11267,-0.704878,-0.276477,0.093337,45.996643,12.587219,-12.76251
3440,1.40137,-0.86522,-2.540181,-0.853629,-0.466008,-3.506756,0.639188,0.761238,-0.109343,-0.68475,-0.254402,0.12593,45.996643,12.587219,-12.76251
3460,1.408166,-0.945307,-2.527846,-1.142061,0.090741,-4.076121,0.577768,0.810677,-0.0948,-0.7456,-0.187157,0.201337,44.397049,16.982483,-13.323233
3480,1.436378,-1.031892,-2.505496,-1.312869,0.735988,-4.237158,0.508566,0.858272,-0.068776,-0.75968,-0.02653,0.1292,42.036507,22.572561,-12.665811
3500,1.490966,-1.123306,-2.470961,-1.266015,1.427893,-4.496902,0.431327,0.901536,-0.034506,-0.531562,0.254638,-0.040125,42.036507,22.572561,-12.665811
3520,1.57066,-1.217525,-2.419365,-1.156939,1.673059,-4.756641,0.345969,0.938246,-0.000047,-0.184638,0.413027,-0.109328,39.037552,28.356491,-10.439831
3540,1.694687,-1.313951,-2.327463,-1.016064,1.909834,-4.96305,0.252084,0.967196,0.031391,0.015785,0.576444,0.064205,35.058838,33.934052,-7.507958
3560,1.922015,-1.409192,-2.137013,-0.662435,2.104569,-5.129673,0.151079,0.98697,0.055357,0.095396,0.610884,0.087206,35.058838,33.934052,-7.507958
3580,2.556152,-1.488484,-1.542105,-0.343723,2.142546,-5.186644,0.045431,0.996614,0.068527,0.198145,0.646879,0.114151,29.902124,39.008282,-4.607374
3600,-2.450786,-1.476884,-0.302905,-0.115734,1.942319,-5.081872,-0.059749,0.995593,0.072275,0.733257,0.648083,0.122107,23.723848,43.224445,-2.416072
3620,-1.971154,-1.395178,0.148131,0.110653,1.346823,-4.926053,-0.1609,0.984619,0.068095,0.965832,0.581665,0.090886,20.420624,44.912354,-1.699904
3640,-1.808352,-1.304209,0.297259,0.127593,0.578876,-4.74507,-0.256042,0.964676,0.061995,0.993591,0.702271,0.208666,13.665089,47.422199,-1.188054
3660,-1.73979,-1.215659,0.36444,0.115171,0.045715,-4.377612,-0.342765,0.937599,0.058483,1.144462,0.728234,0.195606,13.665089,47.422199,-1.188054
3680,-1.710988,-1.137254,0.402946,0.154852,-0.617157,-3.718139,-0.415966,0.907484,0.0587,1.457791,0.606783,0.112458,7.129609,48.831917,-1.274196
3700,-1.707282,-1.074703,0.433096,0.309384,-1.481535,-2.847538,-0.471567,0.879449,0.064765,1.615793,0.380958,0.126611,1.787155,49.307152,-1.619191
3720,-1.720405,-1.03369,0.460326,0.383591,-1.970984,-1.627491,-0.505936,0.859193,0.076262,1.738038,0.277541,0.170549,1.787155,49.307152,-1.619191
3740,-1.743919,-1.023449,0.476879,0.35585,-1.785962,0.112522,-0.512645,0.853908,0.089648,1.856013,0.21291,0.086332,1.787155,49.307152,-1.619191
3760,-1.769592,-1.045969,0.485684,0.479063,-1.590112,1.522487,-0.491195,0.865411,0.098954,1.389999,0.397269,-0.352433,-1.743776,49.279037,-2.355148
3780,-1.782907,-1.081462,0.499099,0.768465,-1.018591,1.655259,-0.459504,0.882646,0.098954,0.511857,0.471175,-0.047166,-0.778496,49.28405,-2.736306
3800,-1.779301,-1.094313,0.523668,0.437695,-1.209523,-0.270786,-0.448723,0.888613,0.094941,-2.260566,-0.077212,0.410995,1.299044,49.200771,-3.822034
3820,-1.801467,-1.111597,0.52603,0.224865,-0.482373,1.799351,-0.431491,0.896408,0.101336,0.178531,0.698304,0.231748,1.299044,49.200771,-3.822034
3840,-1.796848,-1.148335,0.520444,0.470803,0.355786,1.345003,-0.399576,0.912082,0.091895,0.77099,0.448818,0.443932,1.938976,49.133026,-4.381488
3860,-1.790251,-1.175862,0.544906,0.919177,-1.091886,1.293224,-0.37552,0.923022,0.083759,0.482621,0.449231,0.47514,4.323544,48.921757,-4.998003
3880,-1.766995,-1.203071,0.588786,1.188649,-0.914716,1.142191,-0.352596,0.933148,0.07008,0.11636,0.217335,-0.31886,4.323544,48.921757,-4.998003
3900,-1.745459,-1.231491,0.633723,0.854661,-1.054733,1.191652,-0.327768,0.942986,0.057838,0.002374,-0.156686,-0.18203,6.462877,48.402664,-7.240477
3920,-1.729082,-1.254165,0.6691,0.668625,-0.490205,1.036962,-0.307475,0.95029,0.049079,-0.135946,-0.159396,-0.159706,7.396548,48.113388,-8.20998
3940,-1.712061,-1.279881,0.678345,0.132167,0.935642,1.384799,-0.283972,0.957982,0.040384,-0.180704,0.014873,-0.048975,7.396548,48.113388,-8.20998
3960,-1.694593,-1.307998,0.671796,0.150036,1.136374,1.351848,-0.257796,0.965667,0.032078,0.42433,0.138795,0.1748,9.097487,47.707756,-8.844025
3980,-1.667163,-1.329318,0.683746,0.323556,0.523346,0.839481,-0.238029,0.970986,0.023009,0.539954,0.098595,0.127046,11.285857,47.264263,-8.702306
4000,-1.641301,-1.342346,0.708365,0.322961,-0.092376,0.55057,-0.225906,0.974018,0.015954,0.281509,0.036647,0.012092,11.285857,47.264263,-8.702306
4020,-1.625265,-1.354871,0.726556,0.184529,-0.003058,0.689934,-0.213933,0.976779,0.011664,-0.229823,-0.024386,-0.097556,12.373031,46.921524,-9.071376
4040,-1.617611,-1.372315,0.730586,0.03479,0.280393,0.971042,-0.196965,0.980367,0.009228,-0.289196,-0.09464,-0.14236,13.314754,46.606358,-9.3582
4060,-1.613945,-1.393848,0.727249,0.022921,0.333189,1.126602,-0.175863,0.984385,0.007593,-0.129298,-0.071742,-0.101846,14.561914,46.247032,-9.282995
4080,-1.60922,-1.417491,0.728203,0.077241,0.094093,1.198029,-0.152593,0.988272,0.005866,-0.034724,-0.026495,-0.054328,14.561914,46.247032,-9.282995
4100,-1.600009,-1.441287,0.739082,0.131642,-0.178344,1.178879,-0.129093,0.991625,0.003772,0.041095,0.019865,0.017987,16.233429,45.688324,-9.277063
4120,-1.584799,-1.464714,0.759748,0.151519,-0.285878,1.158642,-0.105873,0.994379,0.001483,-0.027108,0.021536,0.016157,17.78359,45.049435,-9.555281
4140,-1.556678,-1.48789,0.793017,0.15817,-0.215729,1.159736,-0.082804,0.996565,-0.001169,-0.061316,0.027376,-0.012457,17.78359,45.049435,-9.555281
4160,-1.499792,-1.511227,0.852995,0.163825,-0.115727,1.180016,-0.059384,0.998226,-0.004224,-0.051395,0.003361,-0.046664,19.268164,44.358738,-9.902093
4180,-1.359488,-1.534513,0.995714,0.176514,-0.122024,1.209871,-0.035469,0.999342,-0.007608,-0.034081,-0.020552,-0.008917,20.795082,43.595539,-10.198281
4200,-0.775451,-1.5549,1.582889,0.205102,-0.164636,1.213107,-0.011127,0.999874,-0.011351,-0.053097,0.004551,0.025816,20.795082,43.595539,-10.198281
4220,0.69737,-1.550785,3.058568,0.197985,-0.084948,1.196066,0.01285,0.9998,-0.015338,-0.030886,0.051805,0.036411,22.32345,42.749954,-10.541148
4240,1.096013,-1.529028,-2.826363,0.172938,0.083339,1.248274,0.037137,0.999128,-0.019088,0.020999,0.030764,0.03041,23.829498,41.855915,-10.828135
4260,1.22427,-1.50503,-2.701116,0.169087,0.176801,1.222717,0.061813,0.997838,-0.02232,-0.040481,0.037028,0.008282,23.829498,41.855915,-10.828135
4280,1.287688,-1.479867,-2.640874,0.164677,0.179241,1.293035,0.08719,0.995869,-0.025366,-0.077668,0.05534,0.025976,25.412582,40.887024,-10.929903
4300,1.324234,-1.452812,-2.608313,0.206177,0.232695,1.397543,0.114151,0.993048,-0.02873,-0.183884,0.10618,-0.03818,27.053881,39.801792,-10.996183
4320,1.352455,-1.42212,-2.585643,0.197479,0.311221,1.606392,0.144612,0.988968,-0.032086,-0.199269,0.18277,0.162503,28.274906,38.939243,-11.012547
4340,1.375182,-1.386732,-2.568487,0.253195,0.254583,1.8345,0.179536,0.983108,-0.035575,-0.170961,0.228394,0.2228,28.274906,38.939243,-11.012547
4360,1.384372,-1.347288,-2.559612,0.298154,-0.140283,2.01882,0.217812,0.975126,-0.041082,-0.063484,0.205142,0.314535,31.101503,36.68618,-11.127972
4380,1.385668,-1.30436,-2.550902,0.292333,-0.441393,2.208401,0.258796,0.964715,-0.048465,-0.363838,0.378989,0.0788,32.536041,35.29467,-11.519697
4400,1.387352,-1.256167,-2.542635,0.352339,-0.164987,2.505857,0.304272,0.950911,-0.056452,-0.528179,0.484239,0.034876,32.536041,35.29467,-11.519697
4420,1.394632,-1.201457,-2.537033,0.41596,0.228389,2.811873,0.355412,0.932566,-0.063267,-0.59351,0.518148,0.139561,34.87841,32.756721,-12.145146
4440,1.405614,-1.14242,-2.531766,0.393689,0.352488,2.975956,0.40974,0.909642,-0.068304,-0.705425,0.79417,0.285879,37.603043,29.53231,-12.282704
4460,1.420489,-1.081306,-2.52916,0.459304,0.860809,3.062503,0.464875,0.882573,-0.070405,-0.999436,0.890758,0.335405,37.603043,29.53231,-12.282704
4480,1.445372,-1.018751,-2.532858,0.572285,1.750376,3.088491,0.520311,0.851453,-0.065604,-2.148454,1.077929,0.441001,40.356583,25.835423,-11.869638
4500,1.47809,-0.954837,-2.545243,0.741116,2.246727,3.195461,0.575261,0.81622,-0.053484,-2.014119,0.886005,0.31946,43.172653,21.745647,-10.012981
4520,1.505372,-0.883743,-2.556213,0.432971,1.449225,3.9097,0.632905,0.773118,-0.041467,-0.558152,-0.060045,-0.073722,43.172653,21.745647,-10.012981
4540,1.534891,-0.782845,-2.556717,0.172199,1.466581,5.279524,0.708453,0.705299,-0.025448,1.213788,0.75132,-0.200794,45.754284,16.740938,-7.955964
4560,1.548476,-0.704785,-2.549386,-0.286246,-0.404703,2.860569,0.761561,0.64787,-0.017001,0.925313,1.636295,-0.114118,47.903957,10.053019,-6.415484
4580,1.525603,-0.665191,-2.541065,-0.202162,-1.701761,1.672329,0.785995,0.61721,-0.035546,0.168701,1.249138,-0.185157,47.903957,10.053019,-6.415484
4600,1.495246,-0.645511,-2.537766,0.049237,-1.580296,0.438911,0.796514,0.601607,-0.060291,-0.985204,-0.715132,-0.293865,48.150288,7.14761,-8.214173
4620,1.45705,-0.6445,-2.536343,-0.218345,-2.142166,0.093072,0.794234,0.600799,-0.090733,-0.606185,-0.895492,-0.203548,47.745708,6.525585,-10.713322
4640,1.410888,-0.655287,-2.530297,-0.346391,-2.636845,-1.090015,0.782757,0.609387,-0.126248,-0.8858,-0.245068,0.106961,47.745708,6.525585,-10.713322
4660,1.363529,-0.69416,-2.527315,-0.580877,-2.250766,-2.249633,0.752141,0.63974,-0.158166,-1.413854,-0.607681,0.085626,46.711681,7.437632,-14.131927
4680,1.33479,-0.746906,-2.520972,-0.994975,-1.276955,-2.599616,0.713453,0.679372,-0.171577,-1.424437,-0.680302,0.056175,45.120102,10.846447,-16.838707
4700,1.333378,-0.804609,-2.503066,-1.454597,-0.376438,-2.721672,0.673942,0.72056,-0.163082,-1.269966,-0.730219,0.041942,45.120102,10.846447,-16.838707
4720,1.350408,-0.873123,-2.479066,-1.594947,0.071566,-3.491124,0.626897,0.766339,-0.140442,-0.584051,-0.417737,0.017364,43.21212,16.708477,-17.045547
4740,1.371506,-0.959797,-2.453766,-1.693205,0.021308,-4.39275,0.562332,0.819075,-0.113575,-0.549285,-0.256697,0.054996,41.797554,20.530979,-16.384575
4760,1.401454,-1.059211,-2.420556,-1.861934,0.200763,-4.834132,0.482557,0.87197,-0.082508,-0.733534,-0.263815,0.026401,41.797554,20.530979,-16.384575
4780,1.467575,-1.162524,-2.362714,-1.991877,1.062471,-4.809651,0.394911,0.917808,-0.040909,-0.970656,-0.066993,0.083221,38.504715,27.031281,-14.956873
4800,1.585917,-1.262519,-2.269348,-1.733102,1.765438,-5.043443,0.303383,0.952858,0.004588,-0.161613,0.604424,0.016012,34.502903,33.223343,-11.948646
4820,1.780455,-1.367906,-2.105325,-1.315562,1.672988,-5.690579,0.197089,0.979488,0.041938,0.17492,0.736347,-0.141562,34.502903,33.223343,-11.948646
4840,2.276212,-1.466974,-1.629899,-0.965813,1.040056,-5.987405,0.078902,0.994615,0.067192,0.075074,0.775236,-0.107384,29.132978,38.893036,-8.695529
4860,-2.660614,-1.4777,-0.300287,-0.627828,1.113103,-6.031548,-0.043008,0.99567,0.082414,0.258524,0.913266,-0.077516,21.945152,43.710327,-6.695436
4880,-2.071691,-1.384091,0.269982,-0.377372,1.230976,-5.884248,-0.16282,0.982621,0.089138,0.694009,1.044128,-0.107967,21.945152,43.710327,-6.695436
4900,-1.880149,-1.277405,0.435729,-0.245424,1.734078,-5.469402,-0.275472,0.957269,0.088045,0.694952,1.065955,0.014845,14.051138,47.012486,-5.422422
4920,-1.781162,-1.180022,0.50044,-0.193625,1.840488,-4.652021,-0.372508,0.924614,0.079539,0.86085,1.134681,0.031728,6.611611,48.709225,-4.550729
4940,-1.734418,-1.099667,0.525929,-0.237395,0.705118,-3.668887,-0.447831,0.891056,0.073936,1.92476,0.958034,-0.028236,6.611611,48.709225,-4.550729
4960,-1.715923,-1.042844,0.539149,0.034594,0.270164,-2.220456,-0.49847,0.863841,0.072853,2.189784,0.604147,-0.127785,0.823051,49.190121,-4.082371
4980,-1.690854,-1.02905,0.556559,0.450158,0.641437,0.184207,-0.511922,0.856809,0.061757,2.169941,0.1131,-0.107152,-1.784187,49.158676,-4.153612
5000,-1.671358,-1.058456,0.567254,0.403407,0.382695,2.05727,-0.487742,0.8716,0.049214,2.088984,0.047269,-0.011647,-1.784187,49.158676,-4.153612
5020,-1.658788,-1.113152,0.576128,0.554202,0.203916,2.893934,-0.440127,0.897096,0.038828,1.826525,0.329665,-0.063013,-0.364611,49.129768,-4.810815
5040,-1.634618,-1.154255,0.596798,0.500747,0.167549,1.043,-0.403776,0.914494,0.025805,-0.403399,0.420727,0.767088,3.587788,48.920383,-5.561929
5060,-1.65398,-1.162722,0.607545,0.239426,-2.190696,1.535309,-0.39547,0.917887,0.032973,-3.134804,0.511129,0.534883,3.587788,48.920383,-5.561929
5080,-1.653109,-1.231124,0.615604,0.884421,0.53253,2.940411,-0.33205,0.942864,0.027394,2.766941,1.400322,0.390102,4.537731,48.765556,-6.191968
5100,-1.630232,-1.278162,0.673593,0.821248,-2.573987,2.636931,-0.287966,0.957487,0.017136,1.700487,0.416933,0.551361,8.756799,48.033379,-7.28863
5120,-1.622461,-1.319852,0.726772,0.960881,-1.855606,1.426904,-0.247987,0.968678,0.012824,0.528474,0.565578,0.875604,8.756799,48.033379,-7.28863
5140,-1.575039,-1.352939,0.789154,0.534257,0.197281,1.814512,-0.216136,0.976363,0.000917,-0.255819,-0.107497,-0.164018,11.313066,47.163273,-9.200625
5160,-1.522504,-1.389661,0.827485,0.360853,0.780245,1.755746,-0.179937,0.98364,-0.008696,0.54218,0.081698,0.068511,13.662851,46.339558,-10.148061
5180,-1.457681,-1.416109,0.884585,0.337703,0.169376,1.088532,-0.153087,0.98806,-0.017391,0.686153,-0.02137,-0.030705,13.662851,46.339558,-10.148061
5200,-1.402594,-1.432431,0.941731,0.295655,-0.147501,0.788966,-0.135978,0.990443,-0.02309,0.033973,0.097463,0.02193,15.907145,45.560867,-10.401028
5220,-1.346755,-1.445463,0.999858,0.213305,-0.029723,0.666314,-0.121881,0.992156,-0.027773,0.091379,0.095582,0.009569,16.999992,45.060982,-10.840632
5240,-1.294707,-1.456545,1.052014,0.134933,0.046813,0.599067,-0.109686,0.99348,-0.031077,0.045629,0.064808,0.024866,16.999992,45.060982,-10.840632
5260,-1.238832,-1.467775,1.104776,0.100452,0.254464,0.650203,-0.097225,0.994698,-0.033515,-0.179173,0.05384,-0.054345,17.854599,44.667454,-11.092462
5280,-1.159743,-1.480487,1.175988,0.077697,0.495245,0.751448,-0.082674,0.995925,-0.036036,-0.099089,-0.047683,-0.117467,18.791655,44.279133,-11.101492
5300,-1.054177,-1.494311,1.271112,0.029784,0.538219,0.817437,-0.066439,0.997076,-0.037743,-0.071287,-0.075583,-0.108696,18.791655,44.279133,-11.101492
5320,-0.906289,-1.507819,1.410025,0.031425,0.413865,0.827,-0.049544,0.998018,-0.038811,0.038909,0.01393,0.024193,19.988472,43.808098,-10.877623
5340,-0.691256,-1.518786,1.619188,0.059633,0.260619,0.814225,-0.033142,0.998648,-0.040053,0.08548,0.000589,0.046325,21.204897,43.287609,-10.655802
5360,-0.388628,-1.526198,1.918928,0.054251,0.240402,0.805686,-0.016893,0.999006,-0.041259,-0.05319,-0.05879,0.074462,21.204897,43.287609,-10.655802
5380,0.010752,-1.527805,2.314299,0.068409,0.058685,0.836567,0.000462,0.999076,-0.042976,0.048931,-0.017295,-0.060891,22.306164,42.744576,-10.59941
5400,0.345105,-1.523291,2.650085,0.095724,-0.061691,0.802489,0.016065,0.998872,-0.044688,-0.198835,0.005095,-0.078603,23.40871,42.147102,-10.614387
5420,0.62739,-1.512836,2.932301,0.117252,0.078061,0.933621,0.034005,0.998321,-0.046896,-0.120767,-0.011535,-0.060999,23.40871,42.147102,-10.614387
5440,0.837951,-1.498219,3.140681,0.080092,0.152924,1.007096,0.053897,0.997367,-0.048511,-0.035892,0.037377,0.048083,24.485893,41.495411,-10.750946
5460,0.978038,-1.481202,-3.005651,0.095092,0.195528,1.038033,0.07421,0.995989,-0.049985,-0.067573,0.085462,0.080487,25.755672,40.720764,-10.745965
5480,1.079981,-1.46112,-2.907993,0.104669,0.264033,1.155275,0.096535,0.993992,-0.051592,-0.09211,0.090603,0.167803,25.755672,40.720764,-10.745965
5500,1.159483,-1.437473,-2.832965,0.114769,0.221136,1.326833,0.121842,0.991126,-0.053147,-0.115738,0.149545,0.187821,27.134674,39.8311,-10.686618
5520,1.215916,-1.409711,-2.778498,0.166994,0.051577,1.498435,0.150396,0.987054,-0.055732,-0.135457,0.133811,0.118446,28.744818,38.699638,-10.634117
5540,1.253609,-1.378098,-2.738401,0.199879,-0.153998,1.68491,0.181955,0.981491,-0.05973,-0.204339,0.190887,0.089973,28.744818,38.699638,-10.634117
5560,1.280988,-1.341738,-2.706468,0.233215,-0.208386,1.923635,0.217592,0.973881,-0.064887,-0.233278,0.210613,0.143637,30.517727,37.250019,-10.868095
5580,1.30267,-1.300538,-2.680003,0.26681,-0.194743,2.160246,0.257441,0.963702,-0.07073,-0.268381,0.239881,0.131872,32.515751,35.38303,-11.303909
5600,1.32026,-1.254568,-2.657403,0.280137,-0.192741,2.392556,0.301275,0.950415,-0.0771,-0.380057,0.331766,0.084638,32.515751,35.38303,-11.303909
5620,1.336923,-1.20328,-2.638459,0.31872,0.042214,2.675047,0.349517,0.933222,-0.083267,-0.566391,0.598714,0.213226,35.962353,31.625849,-11.980224
5640,1.357839,-1.146925,-2.620659,0.266109,0.338843,2.884938,0.402002,0.911503,-0.086927,-0.747842,0.8204,0.292219,35.962353,31.625849,-11.980224
5660,1.383672,-1.087758,-2.606841,0.331887,0.911097,3.005598,0.456364,0.885588,-0.086408,-1.070927,0.895983,0.333234,35.962353,31.625849,-11.980224
5680,1.413501,-1.024314,-2.602103,0.510436,1.517442,3.236213,0.51327,0.854358,-0.081407,-1.929758,1.161527,0.463579,41.33905,24.600098,-11.087343
5700,1.444292,-0.957111,-2.607807,0.673131,1.796923,3.340989,0.571283,0.817531,-0.072658,-1.654107,0.853795,0.295925,41.33905,24.600098,-11.087343
5720,1.464568,-0.884744,-2.614873,0.541101,0.960595,3.820044,0.629917,0.773753,-0.067168,-1.085743,0.450491,0.065596,44.086151,20.170492,-9.304499
5740,1.481923,-0.791233,-2.612558,0.311885,0.810488,5.086524,0.700195,0.711221,-0.062393,1.131776,0.949302,-0.346191,44.086151,20.170492,-9.304499
5760,1.493042,-0.707481,-2.608443,0.06379,0.006246,3.258503,0.757705,0.649921,-0.059034,0.794526,1.679287,-0.224276,46.850296,13.292301,-8.08552
5780,1.476869,-0.663396,-2.604001,0.056528,-1.377678,1.817551,0.784433,0.615796,-0.073897,0.046408,1.14104,-0.230653,48.029907,8.098623,-8.034382
5800,1.449344,-0.6414,-2.605553,0.278565,-1.176673,0.513775,0.795356,0.598318,-0.097076,-1.214897,-0.150488,-0.039902,48.029907,8.098623,-8.034382
5820,1.425792,-0.643677,-2.611125,0.05526,-0.921452,-0.156774,0.7915,0.60014,-0.115582,-0.920071,-0.318738,0.034451,47.793549,6.151552,-10.721292
5840,1.404687,-0.652069,-2.612108,-0.036296,-1.060251,-0.873007,0.78389,0.606832,-0.131422,-1.146515,-0.246435,0.115568,47.793549,6.151552,-10.721292
5860,1.382942,-0.68548,-2.615766,-0.279145,-0.903697,-2.01245,0.760496,0.633045,-0.144567,-1.33798,-0.531818,0.101705,47.10022,7.715738,-12.611422
5880,1.371672,-0.731655,-2.613655,-0.663283,-0.44659,-2.341196,0.729367,0.668102,-0.147185,-1.215039,-0.534298,0.120589,47.10022,7.715738,-12.611422
5900,1.374716,-0.784609,-2.604113,-0.952641,-0.017442,-2.688082,0.694104,0.706549,-0.137871,-0.690015,-0.503302,0.077447,46.226303,11.049116,-13.3438
5920,1.384791,-0.850433,-2.592079,-1.063664,0.008335,-3.470372,0.648279,0.751566,-0.121994,-0.427195,-0.337519,0.034271,45.108173,15.278858,-12.993086
5940,1.386046,-0.933341,-2.580734,-1.152494,-0.61474,-4.312451,0.585025,0.803613,-0.10933,-0.46036,-0.328286,0.045686,45.108173,15.278858,-12.993086
5960,1.383905,-1.028931,-2.564798,-1.437637,-0.795208,-4.736012,0.506754,0.856748,-0.095826,-0.658534,-0.305646,0.109773,42.788525,20.988562,-12.869873
5980,1.396095,-1.128647,-2.535449,-1.625224,-0.590711,-4.803419,0.42137,0.903834,-0.074372,-0.5092,0.096196,0.091752,39.071808,27.354845,-12.73253
6000,1.427453,-1.232202,-2.493029,-1.606345,-0.296596,-5.127236,0.328755,0.943222,-0.04745,-0.12058,0.265991,-0.055974,36.069748,31.445541,-12.131041
6020,1.490514,-1.343765,-2.421818,-1.624441,-0.288921,-5.588642,0.224361,0.974339,-0.018051,-0.087108,0.335903,-0.120224,36.069748,31.445541,-12.131041
6040,1.696402,-1.458809,-2.207987,-1.699157,-0.198277,-5.835955,0.110873,0.993736,0.014,-0.129367,0.674416,-0.046883,30.361887,37.413921,-10.740834
6060,-2.983392,-1.522137,-0.602937,-1.701414,0.239074,-5.994617,-0.007663,0.998816,0.048032,0.057681,0.835717,-0.089735,30.361887,37.413921,-10.740834
6080,-2.13033,-1.418328,0.242036,-1.660124,0.709687,-6.045576,-0.128718,0.988399,0.080616,0.307291,0.983387,-0.145878,20.690067,44.099842,-8.008508
6100,-1.981166,-1.299073,0.374596,-1.435557,1.109747,-5.785094,-0.246108,0.96331,0.107074,0.840377,1.392357,-0.226291,12.57158,47.43187,-5.402225
6120,-1.902608,-1.189031,0.428845,-1.032634,1.561637,-5.188645,-0.352237,0.928008,0.121363,1.037357,1.395051,-0.260646,12.57158,47.43187,-5.402225
6140,-1.839737,-1.100179,0.459031,-0.494494,1.797653,-3.992116,-0.437137,0.891289,0.120483,1.454517,1.261498,-0.208205,4.908012,49.007782,-3.340614
6160,-1.783255,-1.040319,0.482762,-0.011729,1.775551,-2.286422,-0.494569,0.862566,0.106686,2.175508,0.57913,-0.485393,-0.52533,49.295094,-2.59401
6180,-1.741186,-1.027793,0.496727,0.371208,1.21097,0.274589,-0.509227,0.856161,0.087617,2.57188,0.182063,-0.295075,-0.52533,49.295094,-2.59401
6200,-1.722235,-1.05778,0.508688,0.621383,-0.060611,1.972112,-0.48519,0.871268,0.074043,2.08808,0.433938,-0.163887,-1.441648,49.254677,-2.984893
6220,-1.721508,-1.110983,0.521916,0.609863,-0.830353,2.959654,-0.43875,0.896135,0.06663,1.418563,0.360701,0.566747,1.570663,49.182491,-3.953048
6240,-1.733403,-1.145223,0.53309,0.4022,-1.805842,0.394312,-0.407397,0.910802,0.066835,-1.75662,0.74792,0.009016,1.570663,49.182491,-3.953048
6260,-1.78216,-1.182078,0.541562,0.670605,-2.2715,3.373901,-0.370568,0.925395,0.079512,-1.793448,0.733326,-0.003661,3.825932,48.980537,-4.824962
6280,-1.765895,-1.248494,0.569008,1.385304,-0.653158,2.265262,-0.310742,0.948509,0.061407,1.488202,0.392479,0.05958,6.206545,48.64727,-5.650923
6300,-1.75114,-1.301431,0.617632,1.15803,-1.76024,2.49688,-0.261804,0.96394,0.047733,-0.120795,0.044101,0.137264,9.87505,47.757027,-7.665577
6320,-1.708872,-1.339393,0.693065,1.113408,-1.133406,1.608299,-0.227161,0.973346,0.031566,-0.286984,-0.440783,-0.302654,9.87505,47.757027,-7.665577
6340,-1.666856,-1.378739,0.73687,0.419768,0.399234,1.938839,-0.189999,0.981614,0.018308,0.279172,-0.037384,0.02518,12.150438,46.835159,-9.790095
6360,-1.645749,-1.415091,0.746217,0.250742,0.618867,1.695655,-0.154642,0.987902,0.011613,0.44964,0.286756,0.228896,12.150438,46.835159,-9.790095
6380,-1.591096,-1.44226,0.795429,0.474518,0.03098,1.136498,-0.128156,0.991751,0.002602,0.334989,0.162363,0.095344,15.698124,45.665504,-10.258744
6400,-1.521172,-1.460518,0.869551,0.386809,-0.276355,0.793168,-0.109919,0.993926,-0.005459,0.193324,0.020967,0.016903,16.826267,45.178143,-10.621838
6420,-1.447389,-1.473087,0.950851,0.349715,-0.341877,0.604487,-0.096812,0.99523,-0.012008,0.065623,0.053186,0.050476,17.781059,44.64455,-11.300847
6440,-1.37188,-1.483117,1.030635,0.242199,-0.082355,0.542561,-0.085841,0.996159,-0.017304,-0.012426,0.047146,-0.007797,17.781059,44.64455,-11.300847
6460,-1.290384,-1.49403,1.109777,0.169707,0.255432,0.663988,-0.073695,0.997055,-0.021224,-0.221761,0.016358,-0.10225,18.466928,44.240494,-11.779747
6480,-1.171,-1.506413,1.221114,0.152326,0.485395,0.725814,-0.059265,0.997928,-0.025043,-0.053803,-0.026584,-0.0957,18.466928,44.240494,-11.779747
6500,-1.004856,-1.5181,1.378327,0.124392,0.420641,0.72575,-0.044459,0.998612,-0.028243,-0.027791,-0.013535,-0.068513,19.823711,43.639641,-11.815805
6520,-0.770152,-1.527892,1.605635,0.10936,0.381307,0.713993,-0.029863,0.99908,-0.030788,0.004274,0.032247,0.029674,20.559238,43.315369,-11.751913
6540,-0.441257,-1.533959,1.927024,0.123272,0.37792,0.678854,-0.015729,0.999322,-0.033301,0.073712,0.026603,0.068564,21.610176,42.827312,-11.654736
6560,-0.066582,-1.534745,2.295719,0.132599,0.288438,0.644751,-0.002398,0.99935,-0.035963,0.056536,0.000543,0.040831,21.610176,42.827312,-11.654736
6580,0.286198,-1.530797,2.642093,0.115714,0.368504,0.708673,0.011289,0.9992,-0.038362,-0.085722,0.002951,-0.011351,22.563046,42.346043,-11.607445
6600,0.59229,-1.521829,2.939529,0.13079,0.486985,0.83233,0.027326,0.998801,-0.04061,-0.122205,-0.012076,-0.012017,23.613043,41.802734,-11.487676
6620,0.816136,-1.507413,-3.127573,0.161812,0.328023,0.978324,0.046144,0.997992,-0.043391,-0.086656,-0.015585,-0.01914,23.613043,41.802734,-11.487676
6640,0.961288,-1.48932,-2.986242,0.177009,0.158128,1.04011,0.066731,0.996683,-0.046591,-0.018376,0.028601,0.026968,24.896299,41.078865,-11.389124
6660,1.056488,-1.469266,-2.894361,0.179275,0.225316,1.091276,0.088244,0.99485,-0.04986,-0.075091,0.048881,0.053797,26.234566,40.215446,-11.466311
6680,1.127158,-1.447471,-2.829349,0.183736,0.325566,1.169092,0.111105,0.992405,-0.052801,-0.082052,0.071224,0.048757,26.234566,40.215446,-11.466311
6700,1.179224,-1.423423,-2.782161,0.199078,0.211072,1.258596,0.135726,0.98916,-0.05604,-0.112533,0.118277,0.046061,27.690744,39.233242,-11.444928
6720,1.217484,-1.396728,-2.745902,0.230217,0.088293,1.413123,0.162493,0.984888,-0.059925,-0.196642,0.138906,0.097172,29.244507,38.066895,-11.518751
6740,1.247424,-1.365716,-2.716785,0.277494,0.055087,1.644418,0.193091,0.979045,-0.064712,-0.235663,0.187093,0.12036,29.244507,38.066895,-11.518751
6760,1.268696,-1.329645,-2.694017,0.329632,-0.104673,1.870364,0.228006,0.971064,-0.071056,-0.184976,0.262976,0.202525,31.00942,36.569649,-11.751066
6780,1.283548,-1.289234,-2.675095,0.359667,-0.197395,2.092025,0.266472,0.960623,-0.078721,-0.274971,0.286509,0.185807,32.994957,34.626053,-12.222132
6800,1.297583,-1.244242,-2.656901,0.362694,-0.10608,2.317945,0.308883,0.947153,-0.086555,-0.383865,0.367712,0.120857,32.994957,34.626053,-12.222132
6820,1.31529,-1.193963,-2.640716,0.412535,0.298998,2.61435,0.356031,0.929835,-0.093001,-0.62779,0.547186,0.190642,34.798534,32.642132,-12.671407
6840,1.339926,-1.138262,-2.627093,0.392283,0.717871,2.846703,0.408051,0.907907,-0.095917,-0.71904,0.687385,0.350418,37.302589,29.7087,-12.76405
6860,1.369137,-1.079064,-2.614401,0.369775,1.051334,2.992723,0.462586,0.881516,-0.09457,-1.178284,0.973586,0.364819,37.302589,29.7087,-12.76405
6880,1.401921,-1.016574,-2.609996,0.544459,1.713856,3.163513,0.518795,0.85031,-0.088454,-1.941479,1.063371,0.433135,40.051193,26.192863,-12.118044
6900,1.438535,-0.948793,-2.614259,0.635511,2.036959,3.467429,0.577575,0.812713,-0.076839,-1.136596,0.647828,0.330303,42.880577,22.104069,-10.47268
6920,1.461723,-0.867771,-2.618536,0.579639,0.782446,4.423874,0.642686,0.76289,-0.070379,-0.283464,0.486881,0.231756,42.880577,22.104069,-10.47268
6940,1.468285,-0.776901,-2.619459,0.441668,0.258196,4.281789,0.709346,0.701073,-0.072972,0.137715,0.932137,-0.297664,45.562378,16.861698,-8.761507
6960,1.465729,-0.705209,-2.613318,0.006484,-0.569875,3.198242,0.757277,0.648193,-0.079859,0.189821,1.262879,-0.316244,47.39238,10.755825,-8.676719
6980,1.455791,-0.653449,-2.60557,-0.00094,-0.867422,2.221062,0.788747,0.607928,-0.091112,-0.077184,1.021924,-0.357786,47.39238,10.755825,-8.676719
7000,1.438231,-0.629842,-2.603321,0.130346,-1.011502,0.443946,0.80103,0.589017,-0.106816,-0.710561,-0.604307,-0.115215,47.954239,6.680424,-9.631908
7020,1.411669,-0.634346,-2.603617,-0.148648,-1.476339,-0.345151,0.795283,0.592651,-0.127631,-0.905726,-0.278076,0.178763,47.770058,5.587288,-11.127213
7040,1.382117,-0.656815,-2.604603,-0.154315,-1.267429,-1.728173,0.777886,0.610598,-0.148538,-1.587243,-0.499788,0.255594,47.770058,5.587288,-11.127213
7060,1.363416,-0.706072,-2.610665,-0.347982,-0.407704,-2.725642,0.744613,0.64885,-0.156671,-1.487151,-0.608887,0.175973,47.086044,6.847586,-13.15394
7080,1.365389,-0.762021,-2.610826,-0.717929,0.351701,-2.705859,0.708234,0.690385,-0.147558,-1.099866,-0.54448,0.152456,46.206642,10.564556,-13.796646
7100,1.386649,-0.821806,-2.600653,-1.030394,0.879693,-3.056838,0.669388,0.732377,-0.124678,-0.471496,-0.386612,0.118682,46.206642,10.564556,-13.796646
7120,1.41495,-0.897435,-2.587494,-1.052838,0.830934,-4.043574,0.616059,0.78173,-0.096796,-0.30388,-0.233909,0.08494,45.359768,14.767246,-12.705551
7140,1.433874,-0.992592,-2.574206,-1.118228,0.155295,-4.977261,0.541406,0.837445,-0.074597,-0.332529,-0.253629,0.046247,43.58297,20.370628,-11.071274
7160,1.456585,-1.100492,-2.550492,-1.341853,0.210771,-5.367625,0.450206,0.89143,-0.051643,-0.671626,-0.311367,0.139336,43.58297,20.370628,-11.071274
7180,1.510863,-1.210517,-2.50582,-1.393208,0.976259,-5.404821,0.351903,0.935798,-0.021116,-0.581548,0.11744,0.180067,39.951164,27.2136,-10.016752
7200,1.622494,-1.32187,-2.417171,-1.309875,1.435058,-5.699717,0.246034,0.969177,0.012731,0.031782,0.483413,0.064067,35.212608,33.711266,-7.786774
7220,1.890127,-1.434765,-2.170285,-1.280614,1.077333,-6.046051,0.128757,0.990762,0.042573,0.243695,0.557944,-0.019898,35.212608,33.711266,-7.786774
7240,3.049311,-1.502762,-1.021116,-1.110957,0.527675,-6.158835,0.006265,0.997687,0.067692,0.177756,0.910349,0.090816,29.021708,39.608475,-5.091202
7260,-2.19848,-1.422059,0.01104,-0.962207,0.306184,-6.370669,-0.119943,0.988959,0.087028,0.742548,1.195215,-0.035407,21.30685,44.418365,-3.1683
7280,-1.977498,-1.303042,0.230805,-0.924399,0.30063,-6.144711,-0.242986,0.964367,0.104658,0.974904,1.230472,-0.084867,21.30685,44.418365,-3.1683
7300,-1.892125,-1.190019,0.311304,-0.74385,0.617862,-5.396313,-0.35262,0.928376,0.117375,0.854009,1.278274,-0.321949,12.600813,47.700905,-1.689448
7320,-1.834867,-1.098284,0.352103,-0.341956,1.183048,-4.157321,-0.439348,0.890427,0.118793,1.38872,1.293716,-0.218952,4.648632,49.144623,-0.455468
7340,-1.780955,-1.032672,0.38026,0.014268,1.608836,-2.735171,-0.501249,0.858672,0.10692,2.570463,0.31508,-0.450701,0.695284,49.361099,-0.096362
7360,-1.740212,-1.014431,0.397492,0.380254,0.970136,0.133731,-0.520543,0.84918,0.089041,2.322255,0.095919,-0.301657,0.695284,49.361099,-0.096362
7380,-1.732839,-1.043271,0.40591,0.510959,-0.572754,1.934336,-0.496802,0.864055,0.081215,2.295752,0.340107,0.012611,-1.242903,49.346912,-0.590314
7400,-1.74585,-1.093381,0.418061,0.821379,-1.423439,2.652842,-0.452463,0.888185,0.080025,1.976633,0.287382,-0.05912,-1.242903,49.346912,-0.590314
7420,-1.756165,-1.145677,0.436213,0.770031,-1.213781,2.160526,-0.405364,0.910989,0.076015,-1.183411,0.365775,1.252141,3.887278,49.160851,-2.260731
7440,-1.773669,-1.164014,0.45073,0.3598,-2.081213,0.339664,-0.387542,0.918399,0.079718,-2.087022,0.769116,0.328317,3.887278,49.160851,-2.260731
7460,-1.820415,-1.221056,0.439729,0.53685,-0.703823,4.39147,-0.332034,0.939462,0.084647,0.750415,1.038306,0.005456,5.369423,48.965607,-3.248048
7480,-1.81547,-1.287096,0.440752,0.710981,-0.25402,2.551708,-0.271573,0.960026,0.067805,1.21481,0.318584,0.151311,10.277114,48.090904,-4.319315
7500,-1.811528,-1.33953,0.468706,1.318915,-1.534734,2.391564,-0.2226,0.973377,0.054647,0.956411,0.307614,-0.162191,10.277114,48.090904,-4.319315
7520,-1.774781,-1.385418,0.525462,0.946479,-0.526915,1.571762,-0.180497,0.982867,0.037338,0.605393,0.108457,0.144501,13.643362,47.048935,-6.104707
7540,-1.714021,-1.414831,0.589151,0.585198,0.232184,1.526562,-0.153744,0.987862,0.022172,0.278087,-0.129998,-0.095841,13.643362,47.048935,-6.104707
7560,-1.6958,-1.445266,0.598483,0.229055,0.359652,1.45671,-0.124224,0.992131,0.01561,0.14461,0.17689,0.088547,16.203556,45.983597,-7.743699
7580,-1.661492,-1.47295,0.632276,0.373909,-0.068217,1.211786,-0.097289,0.995217,0.008848,0.270064,0.199729,0.036272,18.303326,45.152489,-7.953104
7600,-1.610074,-1.491009,0.68783,0.237831,-0.283404,0.746923,-0.079641,0.996819,0.00313,0.211004,0.019478,-0.052492,19.478399,44.577316,-8.394423
7620,-1.575176,-1.504657,0.728001,0.1405,-0.161158,0.662605,-0.066091,0.997814,0.000289,-0.035457,0.076893,0.108063,19.478399,44.577316,-8.394423
7640,-1.519541,-1.517541,0.782006,0.144124,0.21075,0.620081,-0.05316,0.998582,-0.002727,-0.048387,0.076125,0.11108,19.478399,44.577316,-8.394423
7660,-1.43407,-1.52823,0.862431,0.140173,0.232665,0.519919,-0.042157,0.999094,-0.0058,0.043774,0.020025,-0.014815,21.178926,43.710369,-8.824267
7680,-1.303209,-1.537879,0.99029,0.138695,0.126383,0.526284,-0.03174,0.999458,-0.008702,-0.077116,-0.053169,-0.101039,21.178926,43.710369,-8.824267
7700,-1.071078,-1.547198,1.219591,0.115346,0.174491,0.569941,-0.020711,0.999722,-0.011307,-0.107219,-0.054501,-0.123947,21.904039,43.335827,-8.901141
7720,-0.548878,-1.555133,1.736928,0.087932,0.302549,0.660495,-0.008172,0.999877,-0.013362,-0.080787,-0.048324,-0.09287,22.710566,42.914906,-8.919202
7740,0.374577,-1.554588,2.653507,0.09322,0.322943,0.710589,0.00593,0.999869,-0.015084,0.062582,-0.005118,-0.021263,22.710566,42.914906,-8.919202
7760,0.839819,-1.54429,3.116875,0.151501,-0.063356,0.670107,0.019733,0.999649,-0.017694,0.104154,-0.018768,-0.01789,23.686094,42.407528,-8.808062
7780,1.002002,-1.531966,-2.999257,0.153847,-0.299455,0.653005,0.032709,0.999246,-0.02091,0.031806,-0.025568,-0.00735,24.257492,42.057446,-8.930634
7800,1.100845,-1.5176,-2.894902,0.150558,-0.224318,0.81924,0.047407,0.998585,-0.024078,-0.169385,-0.012242,0.016311,24.257492,42.057446,-8.930634
7820,1.179057,-1.498746,-2.813913,0.174025,-0.087423,1.03029,0.066535,0.997405,-0.027485,-0.147544,0.013215,0.048298,25.371691,41.281963,-9.438646
7840,1.227861,-1.477148,-2.763332,0.199426,-0.086141,1.102792,0.088067,0.995618,-0.031444,0.004661,0.032,0.097728,26.609306,40.425877,-9.731619
7860,1.259276,-1.454065,-2.730105,0.208911,-0.065645,1.180597,0.110861,0.993195,-0.035698,-0.082877,0.060226,0.095344,27.498056,39.774765,-9.941637
7880,1.285883,-1.42872,-2.703004,0.202537,0.013706,1.323245,0.13589,0.989924,-0.0398,-0.124904,0.070699,0.110005,27.498056,39.774765,-9.941637
7900,1.308543,-1.399776,-2.679977,0.233876,-0.037716,1.507624,0.164369,0.985412,-0.044123,-0.136858,0.107255,0.066355,28.983686,38.638794,-10.198066
7920,1.321568,-1.36701,-2.664462,0.297047,-0.123288,1.687789,0.196126,0.979307,-0.049918,-0.169744,0.143541,0.052939,30.708176,37.190586,-10.52993
7940,1.329992,-1.330262,-2.653146,0.355183,-0.115169,1.895672,0.231348,0.971211,-0.056812,-0.259943,0.166927,0.056308,30.708176,37.190586,-10.52993
7960,1.337097,-1.288812,-2.642962,0.360776,-0.186493,2.129016,0.270698,0.960505,-0.064439,-0.126273,0.234075,0.239656,33.347057,34.643848,-11.170878
7980,1.340243,-1.243673,-2.633911,0.398236,-0.325223,2.287813,0.312818,0.946971,-0.073427,-0.225263,0.277562,0.192537,33.347057,34.643848,-11.170878
8000,1.342476,-1.194346,-2.624311,0.405112,-0.316662,2.557407,0.358081,0.929975,-0.083208,-0.408908,0.369173,0.166231,35.490082,32.207272,-11.838786
8020,1.350159,-1.137909,-2.615401,0.486101,0.195952,2.916759,0.409324,0.907758,-0.091807,-0.688819,0.603808,0.22999,36.989376,30.283209,-12.31765
8040,1.370116,-1.075079,-2.605677,0.410091,0.835354,3.210869,0.466117,0.879628,-0.094817,-0.849753,0.923305,0.440108,36.989376,30.283209,-12.31765
8060,1.405544,-1.008495,-2.596373,0.386422,1.718527,3.370873,0.525871,0.846031,-0.087701,-1.147392,1.171425,0.422693,40.57505,25.361748,-12.143229
8080,1.449873,-0.936571,-2.595933,0.622496,2.397449,3.715619,0.588227,0.805531,-0.071479,-2.115586,1.398403,0.429069,43.557453,20.89994,-10.14653
8100,1.480681,-0.857415,-2.604221,0.712927,1.449223,4.065042,0.651739,0.756154,-0.058891,-0.834509,0.63438,-0.225304,43.557453,20.89994,-10.14653
8120,1.486763,-0.766296,-2.611379,0.549856,0.177266,4.830564,0.717942,0.693471,-0.060473,-0.270493,0.43806,-0.346448,46.195671,15.422297,-8.069937
8140,1.486031,-0.674763,-2.610148,0.137883,-0.173888,4.164864,0.778052,0.624712,-0.06611,0.218057,0.932157,-0.425986,47.927528,8.709127,-8.007131
8160,1.482234,-0.61324,-2.601567,-0.061315,-0.664284,2.428641,0.814583,0.57552,-0.07233,0.020027,1.19865,-0.203289,47.927528,8.709127,-8.007131
8180,1.464231,-0.579886,-2.601166,0.226865,-0.977916,1.162149,0.83178,0.547928,-0.088976,-0.715371,0.417221,-0.194059,48.415043,4.214376,-8.673745
8200,1.441135,-0.578017,-2.609323,0.348296,-0.891123,-0.582961,0.830517,0.546364,-0.108293,-0.883511,-0.926827,-0.171797,48.243568,2.852642,-10.071318
8220,1.424413,-0.589757,-2.612073,-0.086558,-0.742153,-0.661471,0.822187,0.556159,-0.121222,-1.068785,-0.399955,0.155234,48.040733,3.379326,-10.847998
8240,1.409944,-0.620159,-2.61539,-0.098513,-0.518423,-2.064745,0.803281,0.581164,-0.130336,-1.361722,-0.37305,0.239436,48.040733,3.379326,-10.847998
8260,1.401773,-0.671287,-2.619823,-0.368139,-0.110951,-2.721487,0.771863,0.621995,-0.13172,-1.427304,-0.547318,0.119299,47.628792,5.585699,-11.717901
8280,1.40655,-0.728612,-2.616345,-0.756359,0.241845,-2.831831,0.736058,0.665834,-0.121994,-0.871251,-0.548281,0.098724,46.988731,9.581274,-11.716191
8300,1.42369,-0.791461,-2.603449,-1.032511,0.48565,-3.229699,0.695216,0.711381,-0.103015,-0.522211,-0.564637,0.081271,46.988731,9.581274,-11.716191
8320,1.444372,-0.869822,-2.587319,-1.062811,0.344529,-4.191964,0.639816,0.764214,-0.081322,-0.284026,-0.34121,0.131401,46.02993,14.179247,-10.826146
8340,1.458367,-0.968029,-2.572228,-1.037402,-0.003114,-5.172295,0.563345,0.82377,-0.063604,-0.491384,-0.288888,0.128851,43.876961,20.339577,-9.905823
8360,1.476894,-1.082001,-2.552451,-1.148089,0.208327,-5.794709,0.467494,0.882899,-0.044028,-0.586924,-0.312923,0.115897,43.876961,20.339577,-9.905823
8380,1.524211,-1.200523,-2.514406,-1.228465,0.898402,-5.839434,0.361478,0.932228,-0.016852,-0.777524,-0.075234,0.180716,39.878738,27.680439,-8.971638
8400,1.617262,-1.318447,-2.440703,-1.054465,1.198022,-5.990362,0.24941,0.968328,0.011597,-0.23525,0.478098,0.181884,34.615273,34.525787,-6.838412
8420,1.847668,-1.437863,-2.227489,-1.071176,0.849355,-6.244073,0.127494,0.991177,0.03623,0.14283,0.660678,0.052179,34.615273,34.525787,-6.838412
8440,3.10765,-1.51391,-0.974065,-0.892603,0.395282,-6.372801,0.001929,0.998382,0.056823,0.435876,1.108826,0.189683,27.835255,40.499084,-4.694059
8460,-2.07904,-1.42311,0.118802,-0.759365,0.332502,-6.52602,-0.12855,0.989114,0.071609,0.883036,1.168173,-0.087357,27.835255,40.499084,-4.694059
8480,-1.893641,-1.302749,0.300566,-0.619783,0.383146,-6.000455,-0.251166,0.96429,0.084027,0.978186,1.111851,-0.16052,16.652746,46.384136,-2.865141
8500,-1.821104,-1.196881,0.369231,-0.35937,0.326186,-4.92702,-0.35388,0.930904,0.090477,1.185606,1.242573,-0.268028,8.317769,48.623604,-1.889684
8520,-1.779462,-1.115249,0.411046,0.017234,0.098248,-3.712773,-0.43041,0.898021,0.091139,2.03298,0.739385,0.027117,3.951862,49.179508,-1.664317
8540,-1.755277,-1.063676,0.430813,-0.044457,0.460875,-1.736228,-0.477421,0.874147,0.089088,2.267582,0.442397,-0.120598,3.951862,49.179508,-1.664317
8560,-1.740828,-1.065377,0.441693,0.403521,0.015839,0.990084,-0.477192,0.874972,0.081929,2.225712,0.009123,-0.386296,0.225203,49.338913,-1.622363
8580,-1.746129,-1.105563,0.449109,0.619544,-0.90832,2.355186,-0.441754,0.893717,0.078257,1.897335,0.441183,-0.112971,1.840164,49.281212,-2.233108
8600,-1.746778,-1.160235,0.46821,0.917015,-0.853383,2.770212,-0.392959,0.916897,0.069876,1.404113,0.274738,-0.160224,1.840164,49.281212,-2.233108
8620,-1.722393,-1.170425,0.51264,0.708793,-2.780854,-0.657379,-0.38529,0.920916,0.05886,-4.242457,1.023511,0.225625,5.454939,48.9319,-3.594974
8640,-1.736496,-1.249564,0.543376,2.178269,-0.501284,5.113485,-0.311411,0.948847,0.052078,3.210536,1.995138,-2.003403,7.498119,48.513927,-5.214215
8660,-1.713109,-1.342336,0.570414,-0.368659,-0.828522,4.309794,-0.224188,0.974016,0.032122,3.256903,-0.061846,-0.568972,7.498119,48.513927,-5.214215
8680,-1.755783,-1.398443,0.583845,1.522161,-3.0539,2.314687,-0.168575,0.985184,0.031545,0.251903,0.459778,0.500819,13.797701,46.902878,-6.837736
8700,-1.641839,-1.450098,0.726177,0.954328,-0.352108,2.174767,-0.120102,0.992725,0.008547,-0.07399,-0.097797,-0.234346,16.170147,45.71999,-9.231475
8720,-1.462228,-1.486296,0.899528,0.792704,0.256522,1.659979,-0.083903,0.996432,-0.009145,0.548335,-0.088626,-0.144648,16.170147,45.71999,-9.231475
8740,-1.18357,-1.509452,1.184723,0.625039,-0.45523,1.151252,-0.056767,0.998119,-0.02315,0.410175,-0.030697,-0.181058,18.852924,44.407089,-10.468451
8760,-0.900245,-1.519126,1.476179,0.356813,-0.374145,0.745899,-0.040465,0.998665,-0.032095,0.002104,0.029167,-0.2727,20.340977,43.477856,-11.5296
8780,-0.603102,-1.52675,1.778628,0.163804,-0.116985,0.808491,-0.024975,0.99903,-0.036264,-0.170155,0.154794,-0.03765,20.340977,43.477856,-11.5296
8800,-0.245488,-1.529919,2.132182,0.180943,0.390539,0.666928,-0.009932,0.999165,-0.03964,0.032713,0.127636,0.146589,21.240576,42.896915,-12.070779
8820,0.025912,-1.527305,2.395989,0.196084,0.336515,0.475145,0.001126,0.999054,-0.043463,0.142108,0.069152,0.112799,22.228432,42.384468,-12.102257
8840,0.213702,-1.522464,2.578292,0.177754,0.259915,0.447391,0.010246,0.998832,-0.047215,-0.065559,0.025399,-0.025096,22.228432,42.384468,-12.102257
8860,0.39528,-1.516719,2.754748,0.115865,0.294618,0.557041,0.020813,0.998538,-0.049883,-0.122254,-0.005603,-0.100324,22.922272,42.00378,-12.135201
8880,0.567067,-1.509456,2.918424,0.09412,0.479918,0.604872,0.032929,0.998119,-0.051707,-0.062684,-0.055584,-0.112813,23.558544,41.657742,-12.109444
8900,0.714955,-1.500274,3.055796,0.09962,0.554518,0.651784,0.046195,0.997514,-0.053209,0.010018,-0.085893,-0.063536,24.329021,41.266151,-11.925365
8920,0.833047,-1.489494,-3.118466,0.10113,0.406857,0.68052,0.060097,0.996697,-0.054626,0.064781,-0.053124,-0.001389,24.329021,41.266151,-11.925365
8940,0.924641,-1.477837,-3.033491,0.08799,0.317644,0.69113,0.074112,0.995682,-0.055892,0.009048,-0.013947,0.061294,25.64188,40.554146,-11.6132
8960,0.999916,-1.464458,-2.963924,0.102606,0.301016,0.793443,0.089307,0.994351,-0.057354,-0.056287,-0.007215,0.084148,25.64188,40.554146,-11.6132
8980,1.067937,-1.447922,-2.901789,0.126833,0.326062,0.953321,0.107393,0.99246,-0.059068,-0.106233,0.057176,0.114702,26.626968,39.951595,-11.484146
9000,1.127695,-1.427931,-2.848082,0.143492,0.313874,1.101457,0.128629,0.989812,-0.061044,-0.081693,0.035701,0.100107,27.844391,39.146599,-11.368582
9020,1.174917,-1.40588,-2.805568,0.152658,0.234331,1.15473,0.151473,0.986432,-0.063307,-0.002165,-0.026105,0.050841,27.844391,39.146599,-11.368582
9040,1.211948,-1.382078,-2.77204,0.171374,0.178375,1.262368,0.175651,0.982245,-0.065885,-0.123618,0.048547,0.028104,29.240181,38.135468,-11.300846
9060,1.242581,-1.355145,-2.743957,0.199606,0.137505,1.425434,0.202561,0.976837,-0.068979,-0.174531,0.139938,0.081445,30.203072,37.376118,-11.305374
9080,1.266279,-1.324032,-2.720965,0.257198,0.010675,1.649266,0.233029,0.969708,-0.073239,-0.201749,0.16521,0.132428,30.203072,37.376118,-11.305374
9100,1.282762,-1.287932,-2.702106,0.313527,-0.157533,1.892266,0.267609,0.96026,-0.079285,-0.231522,0.234549,0.226548,32.382881,35.449856,-11.474674
9120,1.29165,-1.246319,-2.686768,0.388896,-0.349119,2.153407,0.306473,0.947817,-0.087844,-0.266983,0.293149,0.239914,33.615479,34.195339,-11.734113
9140,1.295629,-1.198929,-2.674691,0.488268,-0.360924,2.460451,0.349686,0.931651,-0.098727,-0.460083,0.318151,0.238589,35.60807,31.848007,-12.441099
9160,1.301354,-1.144034,-2.663927,0.571596,-0.059772,2.846394,0.398991,0.910311,-0.110184,-0.749119,0.556425,0.243272,35.60807,31.848007,-12.441099
9180,1.31825,-1.080774,-2.654481,0.62821,0.802947,3.263327,0.455716,0.882323,-0.1176,-1.039929,0.800157,0.392548,37.877861,28.776276,-13.19866
9200,1.36193,-1.010764,-2.642543,0.402943,2.264779,3.579753,0.519669,0.847238,-0.110148,-1.314743,0.78382,0.673167,40.732712,24.757641,-12.841981
9220,1.443448,-0.938412,-2.627486,0.110214,4.037234,3.632949,0.586283,0.806621,-0.075069,-1.815867,0.80576,1.145869,40.732712,24.757641,-12.841981
9240,1.519874,-0.863549,-2.617624,-0.06574,2.684277,3.839025,0.648902,0.760153,-0.033072,-0.866645,0.267771,0.234931,45.188828,18.408672,-7.490124
9260,1.545358,-0.788131,-2.602968,-0.624325,-0.390173,3.667876,0.704944,0.709036,-0.017937,0.392071,0.150934,-0.201363,46.758278,14.89167,-5.377087
9280,1.548084,-0.720233,-2.570733,-1.298816,-1.097151,3.113511,0.751458,0.65956,-0.01707,0.667639,1.131227,-0.166066,46.758278,14.89167,-5.377087
9300,1.526901,-0.669898,-2.539225,-0.905263,-2.800507,2.390287,0.78313,0.620906,-0.034398,0.324719,1.509343,-0.478053,48.113678,8.831154,-6.640474
9320,1.473496,-0.632427,-2.528409,0.128991,-2.784856,1.421401,0.80278,0.591104,-0.078358,0.264175,1.417197,-0.565975,48.113678,8.831154,-6.640474
9340,1.4182,-0.622285,-2.542045,0.772806,-2.18898,-0.180955,0.803107,0.582893,-0.123511,-0.73905,0.272087,-0.521111,47.838341,5.965498,-10.626242
9360,1.355401,-0.638021,-2.563631,0.358441,-2.699162,-0.994807,0.784714,0.595607,-0.171687,-0.739777,-0.542826,-0.272222,47.330254,5.407978,-12.9465
9380,1.319001,-0.654253,-2.563991,-0.301363,-1.224934,-1.123467,0.768481,0.608567,-0.197695,-1.457888,-0.246216,0.143588,46.124161,6.387871,-16.394156
9400,1.311385,-0.690043,-2.563465,-0.61313,0.116926,-1.842921,0.745415,0.63657,-0.197826,-2.143043,-0.434193,0.337841,46.124161,6.387871,-16.394156
9420,1.340669,-0.72438,-2.554548,-0.858661,1.858464,-1.52007,0.729167,0.662671,-0.170828,-1.463664,-0.232511,0.197515,45.420975,8.607851,-17.316206
9440,1.402935,-0.764029,-2.53673,-1.099317,2.683131,-2.048795,0.711906,0.691836,-0.120636,-0.611777,-0.269091,0.0569,45.701054,11.20911,-14.925833
9460,1.465624,-0.819253,-2.516585,-1.010653,2.146972,-3.056766,0.678995,0.730636,-0.071676,-0.256952,-0.197112,0.049886,45.701054,11.20911,-14.925833
9480,1.511057,-0.896731,-2.497172,-0.956225,1.20852,-4.192759,0.623054,0.781291,-0.037265,-0.440132,-0.216975,-0.005505,45.727673,14.945959,-11.072917
9500,1.555912,-0.987494,-2.466716,-1.104199,0.970162,-4.616093,0.550722,0.834648,-0.008198,-0.738695,-0.305977,0.070087,44.397259,19.606218,-9.027221
9520,1.61564,-1.083559,-2.422686,-0.996137,1.17348,-4.96748,0.467716,0.88363,0.020988,-0.657642,-0.105737,0.12365,41.459,25.876034,-6.970896
9540,1.693597,-1.187851,-2.362882,-0.698997,1.119027,-5.52851,0.37084,0.927568,0.04577,-0.186591,0.235594,0.059134,41.459,25.876034,-6.970896
9560,1.804962,-1.301816,-2.260277,-0.564392,0.34983,-6.046311,0.258496,0.964042,0.061662,0.182926,0.312889,-0.111055,37.018028,32.290459,-4.899245
9580,2.050252,-1.414707,-2.004424,-0.556592,-0.547407,-6.276671,0.137928,0.987843,0.071711,0.172787,0.604809,-0.014918,30.596783,38.528702,-4.048096
9600,3.006608,-1.48795,-1.027529,-0.594319,-0.811953,-6.516547,0.011136,0.99657,0.081999,0.449771,0.950436,-0.129835,30.596783,38.528702,-4.048096
9620,-2.256184,-1.420131,0.010392,-0.63468,-0.405024,-6.359885,-0.1162,0.988671,0.095007,0.602696,0.970893,-0.195394,22.553019,43.738899,-3.909107
9640,-1.9843,-1.309426,0.284192,-0.374617,0.46441,-5.94579,-0.236626,0.966037,0.103832,0.807472,1.034696,-0.463192,13.877444,47.26223,-3.272528
9660,-1.874667,-1.207654,0.389771,-0.21108,0.388444,-4.921545,-0.338939,0.934785,0.106285,1.389552,1.27104,-0.211129,13.877444,47.26223,-3.272528
9680,-1.820563,-1.122793,0.441361,-0.230384,0.340317,-4.002034,-0.419726,0.901314,0.107069,1.657427,1.139458,-0.071135,6.218568,48.895447,-2.752404
9700,-1.784898,-1.064243,0.46561,0.065628,0.885169,-2.130306,-0.474088,0.874422,0.103083,2.376966,0.525038,-0.590541,0.723387,49.300953,-2.429825
9720,-1.744531,-1.05812,0.488102,0.60301,0.984098,0.583509,-0.483127,0.871435,0.084791,2.428622,0.046732,-0.276471,0.723387,49.300953,-2.429825
9740,-1.720469,-1.094114,0.50422,0.700488,0.169115,2.274483,-0.453704,0.888522,0.068419,2.158233,0.215268,-0.113691,0.14835,49.270203,-3.071813
9760,-1.714251,-1.152871,0.519646,0.683158,-0.823465,3.106392,-0.401696,0.913933,0.058024,1.491998,0.388832,0.704092,3.616997,49.05814,-4.150571
9780,-1.718477,-1.166202,0.546736,0.411699,-3.855163,-1.035487,-0.389361,0.919262,0.057923,-4.636045,0.910389,0.60733,3.616997,49.05814,-4.150571
9800,-1.783946,-1.237511,0.560468,1.770303,-1.306254,5.230721,-0.319745,0.944973,0.069205,2.678479,2.160588,-0.150809,4.837494,48.839901,-5.317286
9820,-1.743727,-1.310011,0.628963,1.006118,-2.309726,2.87644,-0.253994,0.966188,0.044366,1.85696,-0.677491,-0.050989,10.158509,47.656178,-7.918633
9840,-1.746909,-1.367255,0.687684,1.481831,-2.865361,2.108887,-0.199013,0.979357,0.035415,0.671608,0.579893,1.051895,10.158509,47.656178,-7.918633
9860,-1.680804,-1.411381,0.788729,0.957771,-0.533577,2.248123,-0.157782,0.98732,0.017428,-0.192316,-0.028336,-0.49106,13.044803,46.420532,-10.581985
9880,-1.585262,-1.456061,0.870434,0.700431,0.937369,2.175467,-0.114472,0.993425,0.001656,-0.023132,0.019987,0.192131,15.888357,45.177509,-11.981828
9900,-1.400712,-1.493607,1.045752,0.653504,0.29833,1.614758,-0.076,0.997022,-0.013053,0.736858,-0.107069,-0.186197,15.888357,45.177509,-11.981828
9920,-1.167739,-1.510094,1.284651,0.503865,-0.645674,0.755445,-0.055803,0.998158,-0.023795,0.548723,0.07075,-0.069498,18.578896,43.957928,-12.630766
9940,-0.961517,-1.516667,1.506703,0.331746,-0.671541,0.53031,-0.044368,0.998535,-0.030962,-0.135625,0.155334,0.035875,19.340206,43.3358,-13.600583
9960,-0.7623,-1.521083,1.710571,0.222778,0.078283,0.512188,-0.034317,0.998765,-0.03594,-0.052582,0.121612,0.058462,19.570948,43.123028,-13.942506
9980,-0.555089,-1.523381,1.911205,0.204068,0.411666,0.391831,-0.02498,0.998876,-0.040281,0.107972,0.029322,0.047621,19.570948,43.123028,-13.942506
10000,-0.386258,-1.523016,2.073214,0.175051,0.304123,0.328888,-0.017993,0.998859,-0.044243,-0.061353,0.002362,-0.07772,20.378065,42.699402,-14.089232
10020,-0.214319,-1.522685,2.238816,0.110149,0.373826,0.416165,-0.010228,0.998843,-0.046992,-0.180857,-0.035052,-0.147099,20.953388,42.416775,-14.099071
10040,0.006069,-1.521782,2.448617,0.094899,0.647677,0.550462,0.000297,0.998799,-0.048993,-0.126289,-0.044347,-0.072131,20.953388,42.416775,-14.099071
10060,0.250415,-1.517764,2.678691,0.137696,0.742446,0.620885,0.013136,0.998594,-0.051354,0.025927,-0.03169,0.009423,21.814526,42.053558,-13.879331
10080,0.460069,-1.510987,2.877523,0.124624,0.401361,0.653811,0.02654,0.998212,-0.053559,0.102992,-0.027448,0.090988,22.876951,41.582272,-13.585682
10100,0.617205,-1.501791,3.030635,0.154461,0.128068,0.663386,0.039906,0.99762,-0.056229,0.03532,0.004043,0.0849,22.876951,41.582272,-13.585682
10120,0.735814,-1.490372,-3.135251,0.178691,0.09208,0.720958,0.053922,0.996768,-0.059553,-0.046018,0.019986,0.054533,23.64259,41.153404,-13.580744
10140,0.834099,-1.476612,-3.040582,0.201508,0.275305,0.825465,0.069658,0.995568,-0.063184,-0.118136,0.053779,0.031049,24.561211,40.564301,-13.72208
10160,0.924649,-1.459818,-2.956587,0.203667,0.371604,0.972536,0.088425,0.993848,-0.066685,-0.089233,0.002215,0.04871,24.561211,40.564301,-13.72208
10180,1.000899,-1.440326,-2.886929,0.223552,0.339002,1.072723,0.109539,0.991501,-0.070195,-0.065654,0.037704,0.055318,25.75577,39.814632,-13.727587
10200,1.060327,-1.41824,-2.833262,0.25726,0.308536,1.186787,0.132592,0.988386,-0.074248,-0.106958,0.081484,0.090469,27.15247,38.880241,-13.71427
10220,1.108727,-1.392698,-2.789858,0.292823,0.245391,1.367975,0.15858,0.984182,-0.078978,-0.145778,0.095728,0.122313,27.15247,38.880241,-13.71427
10240,1.148207,-1.362917,-2.752832,0.329124,0.112193,1.57685,0.188229,0.978471,-0.084643,-0.177136,0.150649,0.143939,28.712627,37.717255,-13.784225
10260,1.180941,-1.328173,-2.720714,0.376238,0.053598,1.837974,0.222223,0.970711,-0.091308,-0.267236,0.204628,0.175064,30.492273,36.199894,-14.028549
10280,1.207542,-1.287572,-2.693095,0.431645,-0.053848,2.11828,0.261217,0.960159,-0.099295,-0.261401,0.225204,0.212988,30.492273,36.199894,-14.028549
10300,1.226805,-1.24166,-2.670257,0.497759,-0.163581,2.369835,0.30429,0.946322,-0.109007,-0.353194,0.260038,0.237059,32.556717,34.18708,-14.433109
10320,1.242016,-1.190015,-2.6504,0.548322,-0.139153,2.656559,0.351739,0.928375,-0.12,-0.541345,0.445618,0.157903,34.804047,31.605068,-15.060177
10340,1.258593,-1.132167,-2.634422,0.651522,0.300867,2.96372,0.404169,0.905335,-0.130449,-0.71351,0.539505,0.164293,34.804047,31.605068,-15.060177
10360,1.285267,-1.068118,-2.621491,0.659057,1.053643,3.236694,0.462269,0.876295,-0.135699,-1.062092,0.888414,0.478015,37.303173,28.336884,-15.572592
10380,1.326646,-1.000611,-2.610936,0.61427,1.97188,3.374293,0.523779,0.841801,-0.130484,-1.679816,1.190563,0.595328,40.273636,24.314821,-14.961102
10400,1.381457,-0.929768,-2.606398,0.672291,2.812535,3.603689,0.587332,0.801481,-0.112553,-2.011756,1.185793,0.635289,40.273636,24.314821,-14.961102
10420,1.424589,-0.849752,-2.60723,0.690599,1.562875,4.261917,0.653126,0.751117,-0.096178,-0.720661,0.46069,0.169207,43.507019,19.722828,-12.456337
10440,1.433537,-0.748367,-2.606085,0.606831,-0.034974,5.209705,0.725909,0.680443,-0.100268,0.835554,0.819587,-0.029416,45.426064,16.05471,-10.757784
10460,1.429654,-0.665153,-2.601371,0.280511,-0.622698,3.48176,0.778998,0.61718,-0.110686,0.2418,1.466362,-0.332399,45.426064,16.05471,-10.757784
10480,1.412447,-0.606636,-2.596489,0.260597,-1.062211,2.611077,0.811292,0.570107,-0.129552,-0.126538,1.387702,-0.146663,47.580498,7.264063,-10.969983
10500,1.399574,-0.572111,-2.598687,0.470582,-0.270184,1.026123,0.828466,0.541408,-0.143255,-0.827367,0.670063,-0.137553,47.691673,4.423313,-11.956176
10520,1.394232,-0.57097,-2.613302,0.604175,0.399378,-0.419409,0.828296,0.540449,-0.147787,-0.848789,-0.595029,-0.15388,47.67218,2.513117,-12.57213
10540,1.39801,-0.576433,-2.626992,0.539943,0.481733,-0.607035,0.825928,0.545037,-0.144147,-0.568924,-0.216378,-0.097934,47.67218,2.513117,-12.57213
10560,1.393784,-0.603102,-2.643677,0.310304,0.128592,-1.841412,0.810711,0.5672,-0.145024,-1.009975,-0.457703,-0.090007,47.815498,2.842037,-11.94202
10580,1.391234,-0.647261,-2.654027,-0.128622,0.291273,-2.450561,0.784912,0.603004,-0.142475,-1.04126,-0.625266,-0.006512,47.815498,2.842037,-11.94202
10600,1.398921,-0.701375,-2.658057,-0.421652,0.598003,-2.815412,0.752699,0.645269,-0.13066,-0.897612,-0.649312,0.146559,47.583939,6.244362,-11.566675
10620,1.411868,-0.764807,-2.657886,-0.580007,0.64518,-3.353772,0.712423,0.692398,-0.114187,-0.608144,-0.543274,0.146398,47.292324,8.87055,-11.034512
10640,1.42461,-0.841484,-2.65633,-0.657795,0.507549,-4.033752,0.65925,0.745633,-0.097066,-0.541253,-0.455945,0.144261,47.292324,8.87055,-11.034512
10660,1.433235,-0.931534,-2.654373,-0.737078,0.278656,-4.675398,0.590968,0.802536,-0.081811,-0.537852,-0.296402,0.123727,45.85482,15.557522,-9.607802
10680,1.443169,-1.033455,-2.647743,-0.915014,0.207829,-5.228739,0.50769,0.859073,-0.06515,-0.467331,-0.198688,0.184412,44.351437,19.703327,-9.041016
10700,1.458804,-1.145803,-2.636363,-0.924079,0.336567,-5.714608,0.409732,0.911041,-0.04608,-0.47362,-0.070358,0.168623,41.52536,25.36879,-8.311443
10720,1.481522,-1.265399,-2.620339,-0.875086,0.441449,-6.01178,0.299475,0.953727,-0.026807,-0.398078,0.202904,0.139493,41.52536,25.36879,-8.311443
10740,1.536521,-1.388469,-2.575377,-0.976469,0.60186,-6.124866,0.181212,0.983424,-0.006214,-0.153273,0.444417,0.054797,33.573364,35.617867,-6.419339
10760,1.851073,-1.507733,-2.270206,-1.200381,0.562453,-6.076252,0.060562,0.998012,0.017433,0.095977,0.672444,0.090767,29.043192,39.566181,-5.293514
10780,-2.151053,-1.493791,-0.002766,-1.241227,0.887988,-6.310662,-0.064337,0.997037,0.042175,0.400351,1.036243,0.057541,29.043192,39.566181,-5.293514
10800,-1.887049,-1.368551,0.241863,-1.095138,1.218102,-6.313522,-0.190908,0.979618,0.062472,0.678411,1.332241,-0.045382,21.330305,44.402687,-3.229626
10820,-1.792694,-1.244538,0.308193,-0.611749,1.603285,-6.087754,-0.312643,0.947248,0.070536,1.143087,1.403384,-0.224147,12.65361,47.703575,-1.125142
10840,-1.728766,-1.135106,0.347159,-0.154472,1.198905,-5.048157,-0.416782,0.906579,0.066392,1.365329,1.357108,-0.136598,12.65361,47.703575,-1.125142
10860,-1.688224,-1.053514,0.37539,0.137846,0.540867,-3.54114,-0.491114,0.869166,0.057937,2.000544,0.980046,0.229584,4.344275,49.174446,-0.110543
10880,-1.669163,-1.012137,0.387238,0.203508,0.293247,-0.959392,-0.527487,0.847967,0.052055,2.921424,0.406001,-0.102028,-1.105202,49.353428,-0.17007
10900,-1.666634,-1.031251,0.402065,0.506125,-1.128227,1.786672,-0.511389,0.857942,0.049161,2.512335,0.04109,-0.372678,-1.105202,49.353428,-0.17007
10920,-1.695172,-1.083007,0.416314,0.762031,-2.401531,2.832098,-0.465054,0.883371,0.058141,2.257733,0.451361,0.102824,-0.889202,49.353146,-0.697952
10940,-1.709219,-1.133116,0.447579,1.067517,-1.707817,1.708665,-0.419786,0.905737,0.058482,0.191011,0.634927,0.369207,2.896969,49.245846,-1.861551
10960,-1.724804,-1.143139,0.4768,0.525687,-2.605903,0.572703,-0.409832,0.90994,0.063621,-4.051518,0.105838,1.059472,2.896969,49.245846,-1.861551
10980,-1.766746,-1.204312,0.46942,0.347697,-0.670441,4.311821,-0.351478,0.933593,0.069767,0.787376,0.894548,0.11227,4.125826,49.083225,-3.290228
11000,-1.745096,-1.267623,0.493537,1.131669,-0.944989,2.393036,-0.294027,0.954394,0.051774,1.578252,0.703687,-0.358491,8.710582,48.406731,-4.233835
11020,-1.734976,-1.325158,0.551424,1.309431,-2.491226,2.691319,-0.239906,0.969982,0.039745,0.888984,0.348789,0.355671,8.710582,48.406731,-4.233835
11040,-1.704153,-1.361572,0.625658,0.942312,-1.76286,1.411148,-0.205857,0.978192,0.027616,0.137864,-0.376248,0.165896,12.23302,47.378956,-6.526788
11060,-1.686253,-1.400662,0.657242,0.294283,0.152335,1.987999,-0.168188,0.985562,0.019505,0.276769,0.087406,0.111598,13.837714,46.640785,-8.376518
11080,-1.657872,-1.436656,0.676078,0.408615,0.370845,1.714411,-0.133231,0.991017,0.011631,0.260383,0.231029,0.233883,16.472214,45.685402,-8.861229
11100,-1.594809,-1.466559,0.73755,0.408238,0.001103,1.267861,-0.104018,0.994572,0.002498,0.34587,-0.176198,-0.247142,16.472214,45.685402,-8.861229
11120,-1.537676,-1.486642,0.801621,0.248334,-0.543156,0.90197,-0.084009,0.996461,-0.002783,0.24119,-0.131334,-0.164529,18.478985,44.805244,-9.382342
11140,-1.490426,-1.502187,0.860143,0.137094,-0.490336,0.730237,-0.068334,0.997647,-0.005504,-0.02595,0.065722,0.001598,19.517569,44.232567,-9.977761
11160,-1.438907,-1.516315,0.916445,0.088726,-0.042591,0.728131,-0.053982,0.998516,-0.007161,-0.096226,0.092396,0.05483,19.517569,44.232567,-9.977761
11180,-1.332055,-1.530134,1.020394,0.139712,0.194236,0.710163,-0.039498,0.999173,-0.009613,-0.039985,0.066424,0.075318,20.404942,43.76778,-10.248455
11200,-1.113869,-1.541683,1.236718,0.165896,0.035446,0.641976,-0.026123,0.999576,-0.012843,0.04213,-0.036136,-0.038198,21.363543,43.28688,-10.337126
11220,-0.690287,-1.550174,1.661266,0.144168,-0.055751,0.67921,-0.013131,0.999787,-0.0159,-0.092872,-0.065476,-0.094238,21.363543,43.28688,-10.337126
11240,0.115638,-1.551807,2.46667,0.159346,0.09894,0.817793,0.002191,0.99982,-0.018861,-0.146127,0.012738,-0.025374,22.206299,42.807861,-10.553609
11260,0.717089,-1.54091,3.065857,0.196463,0.098036,0.886052,0.019638,0.999553,-0.022523,-0.004425,0.003163,0.011598,23.286497,42.192734,-10.70156
11280,0.945296,-1.525002,-2.988246,0.219142,-0.114763,0.864729,0.037111,0.998952,-0.026803,0.068892,-0.013814,0.012551,23.286497,42.192734,-10.70156
11300,1.048808,-1.507371,-2.881189,0.241139,-0.169821,0.936145,0.054942,0.997989,-0.031603,-0.07931,-0.020679,0.025866,24.375179,41.497368,-10.992283
11320,1.116539,-1.486608,-2.812084,0.276655,0.025288,1.096085,0.075561,0.996458,-0.036898,-0.158874,0.043031,0.045397,25.516829,40.695107,-11.393473
11340,1.166914,-1.463181,-2.764188,0.275962,0.177696,1.18456,0.098766,0.994215,-0.04221,-0.06126,0.035295,0.0248,25.516829,40.695107,-11.393473
11360,1.204745,-1.438962,-2.730189,0.261143,0.217192,1.210117,0.122743,0.991322,-0.047051,-0.032396,0.031627,0.013482,26.952768,39.690468,-11.628678
11380,1.23583,-1.413584,-2.703878,0.256904,0.271771,1.291103,0.147864,0.987668,-0.051469,-0.076193,0.03754,0.019365,28.468559,38.582005,-11.746529
11400,1.263255,-1.386343,-2.681405,0.241562,0.215894,1.389092,0.174804,0.983037,-0.055521,-0.078185,0.054195,0.117502,28.468559,38.582005,-11.746529
11420,1.285152,-1.356581,-2.661393,0.250275,0.06333,1.521196,0.203967,0.977143,-0.0599,-0.085575,0.187133,0.195627,30.100361,37.302406,-11.811425
11440,1.29992,-1.323846,-2.6461,0.310223,-0.032885,1.696025,0.235535,0.969662,-0.065408,-0.201813,0.266422,0.226618,31.813568,35.772865,-12.050308
11460,1.307718,-1.285724,-2.636048,0.403857,-0.165949,1.983851,0.271551,0.959641,-0.073134,-0.174139,0.239226,0.276839,32.739906,34.856693,-12.252374
11480,1.310297,-1.242241,-2.626742,0.435475,-0.395765,2.219333,0.311789,0.94651,-0.083109,-0.227698,0.26571,0.215235,32.739906,34.856693,-12.252374
11500,1.31134,-1.193602,-2.616454,0.474232,-0.390396,2.514555,0.355986,0.929702,-0.094493,-0.539122,0.495225,0.058848,35.08329,32.172253,-13.081272
11520,1.317609,-1.137777,-2.607683,0.580789,0.13389,2.889937,0.406235,0.907703,-0.105109,-0.782395,0.666638,0.109382,35.08329,32.172253,-13.081272
11540,1.335759,-1.074211,-2.599484,0.571734,0.778676,3.255557,0.463327,0.879215,-0.11095,-0.999719,0.919705,0.309085,38.196514,27.99382,-13.942144
11560,1.369884,-1.005182,-2.589488,0.465642,1.599756,3.496382,0.525154,0.84426,-0.106953,-1.480461,1.250879,0.471684,40.105644,25.31625,-13.698009
11580,1.416469,-0.933893,-2.584456,0.528447,2.449041,3.50842,0.587641,0.803941,-0.091416,-2.053797,1.282363,0.577287,42.668583,21.548666,-12.331191
11600,1.465851,-0.862696,-2.588281,0.578462,2.489627,3.59376,0.646814,0.759599,-0.068131,-1.914789,0.805648,0.33078,42.668583,21.548666,-12.331191
11620,1.501115,-0.784373,-2.594291,0.527481,1.682788,4.07403,0.706114,0.706381,-0.049283,-0.651136,0.221826,-0.190341,45.511482,16.707787,-9.304068
11640,1.530771,-0.697228,-2.597944,0.212676,1.694715,4.3697,0.766011,0.642095,-0.030677,0.593089,0.43809,-0.245263,47.630455,10.957504,-6.948674
11660,1.554719,-0.630752,-2.600553,0.290546,0.679203,2.630637,0.80748,0.589752,-0.012983,1.243408,1.5271,-0.528811,47.630455,10.957504,-6.948674
11680,1.540396,-0.594038,-2.612776,0.732217,-0.817779,1.224541,0.828305,0.559712,-0.025189,0.296924,1.046016,-0.61446,48.795963,5.589201,-4.972529
11700,1.506758,-0.59529,-2.635401,0.970819,-1.183395,-0.809235,0.826289,0.560749,-0.052987,-0.857661,-0.303486,-0.343787,48.888054,3.510042,-5.886327
11720,1.469394,-0.618745,-2.655164,0.585488,-1.251881,-1.483344,0.810423,0.580013,-0.082462,-1.089704,-0.624721,0.063144,48.888054,3.510042,-5.886327
11740,1.437967,-0.659271,-2.672071,0.327652,-0.966648,-2.375578,0.783476,0.612541,-0.104685,-1.662886,-0.546608,0.237498,48.412865,5.248413,-8.10309
11760,1.413536,-0.70558,-2.681525,-0.141115,-0.929358,-2.243198,0.751842,0.648475,-0.119219,-1.530254,-0.600242,0.153933,47.820835,7.935045,-9.338835
11780,1.394412,-0.753541,-2.684173,-0.378466,-0.813031,-2.585621,0.717956,0.684225,-0.127966,-0.835952,-0.373266,0.190939,47.820835,7.935045,-9.338835
11800,1.375447,-0.818199,-2.686742,-0.586536,-0.96868,-3.611067,0.670536,0.729916,-0.132681,-0.252232,-0.359005,0.185247,46.672394,12.016741,-10.690958
11820,1.345716,-0.904608,-2.691928,-0.841711,-1.443969,-4.588725,0.602406,0.786183,-0.137927,-0.465275,-0.390584,0.233798,44.664989,17.354008,-11.869637
11840,1.314819,-1.006267,-2.696813,-1.222782,-1.159011,-5.146597,0.517586,0.84484,-0.135462,-0.73246,-0.424308,0.254389,44.664989,17.354008,-11.869637
11860,1.302798,-1.115862,-2.698792,-1.455514,-0.040822,-5.396066,0.423718,0.89829,-0.116355,-0.914974,-0.210271,0.273398,41.101391,24.126247,-12.868982
11880,1.318215,-1.229599,-2.697333,-1.509395,1.13043,-5.518493,0.323999,0.942355,-0.083622,-0.762689,-0.068423,0.178669,41.101391,24.126247,-12.868982
11900,1.354656,-1.34706,-2.692539,-1.3957,1.748703,-5.787723,0.216712,0.975075,-0.047584,-0.347312,0.365165,0.111777,35.010662,33.134682,-10.646961
11920,1.413568,-1.46516,-2.666342,-1.236712,1.544013,-5.789626,0.104139,0.994426,-0.01651,0.08153,0.714223,0.095566,31.287079,37.21809,-8.54071
11940,-1.911652,-1.553918,0.261818,-0.939135,1.440422,-6.154608,-0.015906,0.999858,0.005642,0.563605,0.963872,0.081745,25.82667,41.61095,-6.206698
11960,-1.721935,-1.428834,0.429677,-0.813425,0.875392,-6.168377,-0.139873,0.98994,0.021303,0.875194,1.147404,0.067702,25.82667,41.61095,-6.206698
11980,-1.687078,-1.306858,0.448854,-0.511559,0.837979,-5.966472,-0.259123,0.96537,0.030268,1.088362,1.183571,0.171499,17.895277,45.81604,-4.202458
12000,-1.663862,-1.198538,0.455105,-0.455387,0.812334,-4.94773,-0.362146,0.931508,0.033801,1.042109,0.941615,-0.06351,9.571437,48.332951,-3.053596
12020,-1.654964,-1.114989,0.456441,-0.253265,0.07262,-3.722192,-0.438629,0.897906,0.037006,1.717651,1.084028,0.027173,9.571437,48.332951,-3.053596
12040,-1.6534,-1.057104,0.460356,-0.044483,-0.153569,-2.234396,-0.48972,0.870936,0.040545,2.286427,0.682225,-0.062548,3.052103,49.213963,-2.38358
12060,-1.649475,-1.043966,0.472302,0.375842,-0.441053,0.267077,-0.501241,0.864405,0.039518,2.255162,0.12586,-0.388472,-0.457552,49.309872,-2.310423
12080,-1.653401,-1.073206,0.487884,0.579101,-1.156416,1.971047,-0.475682,0.878735,0.039383,2.146824,0.223865,-0.1763,-0.457552,49.309872,-2.310423
12100,-1.661858,-1.124812,0.510145,0.822292,-1.457088,2.72047,-0.429559,0.902187,0.039225,1.142861,0.612645,-0.097315,0.8717,49.268833,-2.972116
12120,-1.650412,-1.173006,0.548287,1.016977,-0.93756,1.796054,-0.386155,0.921919,0.030809,0.307145,0.400346,0.255125,4.486191,48.975651,-4.274407
12140,-1.654942,-1.181583,0.583269,0.58572,-2.982912,0.720742,-0.378118,0.925208,0.031892,-3.596751,0.168145,1.201857,4.486191,48.975651,-4.274407
12160,-1.688954,-1.253424,0.58483,0.556281,0.045825,4.1663,-0.309896,0.950059,0.036788,2.130574,1.265945,-0.048583,5.619518,48.712582,-5.702353
12180,-1.585117,-1.310901,0.69955,1.852019,-0.799579,2.934475,-0.256953,0.966417,0.00368,2.364558,0.402541,-0.917071,10.23576,47.773148,-7.068705
12200,-1.575478,-1.371162,0.734806,0.300112,-1.910746,2.10996,-0.198309,0.980139,0.000929,0.496191,0.328561,1.636217,13.052659,46.836971,-8.540332
12220,-1.494508,-1.40853,0.852291,0.996022,-0.941483,2.107152,-0.161085,0.986864,-0.012313,-0.022463,0.104826,-0.213716,13.052659,46.836971,-8.540332
12240,-1.361142,-1.446635,0.991337,0.728106,0.206882,1.924757,-0.121131,0.992302,-0.025774,0.222938,0.067757,0.114077,15.489741,45.731911,-10.279654
12260,-1.175934,-1.472968,1.173033,0.482167,0.123151,1.280723,-0.090156,0.995219,-0.037573,0.483863,-0.171198,-0.268732,18.084787,44.541061,-11.226987
12280,-0.988799,-1.488259,1.365783,0.338243,-0.366568,1.003313,-0.068871,0.996596,-0.045319,0.13424,0.015581,-0.109481,18.084787,44.541061,-11.226987
12300,-0.811502,-1.498479,1.548292,0.158581,-0.146925,0.753717,-0.052408,0.997386,-0.049741,0.069162,0.086339,-0.103,19.604748,43.723652,-11.870436
12320,-0.646142,-1.50615,1.714295,0.071399,0.104844,0.635351,-0.038897,0.997911,-0.051578,-0.020277,0.145232,0.04903,20.572117,43.175728,-12.233383
12340,-0.48088,-1.510516,1.873356,0.094274,0.421927,0.466049,-0.027866,0.998184,-0.053411,-0.004543,0.09105,0.117635,20.572117,43.175728,-12.233383
12360,-0.329432,-1.512082,2.016657,0.087956,0.412177,0.418086,-0.018983,0.998277,-0.055525,-0.02545,0.014998,-0.006289,21.632753,42.681725,-12.13695
12380,-0.162157,-1.51305,2.175582,0.053825,0.445584,0.495819,-0.009318,0.998333,-0.056957,-0.082189,-0.042874,-0.06937,22.097355,42.474922,-12.024925
12400,0.041274,-1.512863,2.368972,0.042351,0.568298,0.592792,0.002389,0.998322,-0.057852,-0.122094,-0.062928,-0.118051,22.097355,42.474922,-12.024925
12420,0.272766,-1.509898,2.588504,0.042306,0.622988,0.703621,0.016396,0.998146,-0.05861,-0.013802,-0.065804,-0.040084,23.286697,41.945629,-11.632065
12440,0.487817,-1.503094,2.793139,0.087457,0.470936,0.735629,0.031708,0.997709,-0.05976,0.046677,-0.054487,-0.011865,24.021194,41.596935,-11.388074
12460,0.643052,-1.493478,2.943515,0.125652,0.129396,0.703646,0.046317,0.997012,-0.061814,0.110238,-0.047397,0.008042,24.021194,41.596935,-11.388074
12480,0.747039,-1.48222,3.047883,0.168652,-0.051517,0.697284,0.060106,0.99608,-0.064904,-0.000933,-0.032212,0.048623,25.034267,41.029312,-11.264644
12500,0.835447,-1.468876,3.137342,0.166461,0.011777,0.829422,0.075453,0.994811,-0.068255,-0.12715,0.028947,0.098635,25.890974,40.435169,-11.474565
12520,0.921207,-1.452071,-3.062386,0.193466,0.217606,1.003202,0.094323,0.99296,-0.071644,-0.100732,0.052404,0.119968,25.890974,40.435169,-11.474565
12540,0.996589,-1.432005,-2.992041,0.213723,0.293511,1.119399,0.116159,0.990384,-0.075146,-0.014596,0.033893,0.122051,26.99947,39.663029,-11.613953
12560,1.055656,-1.409259,-2.936868,0.253454,0.164142,1.231318,0.139963,0.986981,-0.079237,-0.0384,0.037296,0.126142,26.99947,39.663029,-11.613953
12580,1.099074,-1.383246,-2.893419,0.298098,-0.052263,1.380518,0.16609,0.982464,-0.084728,-0.15312,0.14249,0.060162,28.88431,38.293144,-11.676601
12600,1.132179,-1.353313,-2.857011,0.350501,-0.154705,1.585167,0.195348,0.976444,-0.091636,-0.211339,0.182736,0.089424,30.421711,36.972729,-12.022807
12620,1.157803,-1.318482,-2.826418,0.418835,-0.245344,1.828206,0.228657,0.968337,-0.100196,-0.262882,0.241639,0.099342,31.557798,35.883923,-12.387919
12640,1.178322,-1.278268,-2.798757,0.459507,-0.316665,2.091447,0.266448,0.957518,-0.110296,-0.264968,0.325029,0.18038,31.557798,35.883923,-12.387919
12660,1.196754,-1.232267,-2.773557,0.529354,-0.246481,2.403788,0.309138,0.943244,-0.121343,-0.452205,0.35418,0.238256,33.467758,33.835812,-13.117086
12680,1.214025,-1.178798,-2.75189,0.638882,-0.068818,2.772698,0.357979,0.924148,-0.133426,-0.570671,0.465486,0.260883,35.675903,31.169041,-13.882799
12700,1.23483,-1.11699,-2.734323,0.740123,0.482237,3.188568,0.41388,0.898785,-0.144529,-0.722062,0.60181,0.319212,35.675903,31.169041,-13.882799
12720,1.272925,-1.047849,-2.717479,0.665789,1.573512,3.492381,0.477442,0.866351,-0.146577,-1.315577,1.087827,0.704713,38.314331,27.6287,-14.34148
12740,1.327455,-0.974948,-2.702413,0.569362,2.384773,3.682075,0.544677,0.827673,-0.135222,-1.568679,1.287959,0.741637,41.539742,23.198475,-13.164042
12760,1.382607,-0.899654,-2.693594,0.528461,2.320416,3.765099,0.610902,0.783112,-0.116342,-1.94661,1.117447,0.746988,41.539742,23.198475,-13.164042
12780,1.41833,-0.820607,-2.685729,0.327046,0.799131,4.118132,0.673868,0.73156,-0.103546,-1.046992,0.359932,0.131607,44.683777,18.19511,-10.455088
12800,1.440223,-0.730541,-2.668067,-0.25391,0.673553,4.610426,0.738473,0.667273,-0.096976,0.488227,0.220895,0.06124,46.588669,13.51388,-9.158731
12820,1.458473,-0.660048,-2.648808,-0.188298,-0.207996,2.862851,0.784985,0.613154,-0.088545,0.581058,1.518849,-0.417025,48.051918,7.561905,-8.416753
12840,1.444905,-0.613803,-2.645355,0.281457,-1.005459,1.973758,0.810994,0.57598,-0.10264,0.307719,1.505318,-0.53092,48.051918,7.561905,-8.416753
12860,1.418493,-0.595036,-2.653322,0.547034,-1.160907,0.134008,0.818542,0.560538,-0.12564,-0.602814,0.512689,-0.44629,48.260002,4.222799,-9.494783
12880,1.381454,-0.60434,-2.665851,0.249135,-1.596192,-0.718051,0.808171,0.568219,-0.154877,-0.886754,-0.454968,-0.138702,47.867184,3.957155,-11.405478
12900,1.345664,-0.630115,-2.675262,0.032822,-1.422431,-1.789248,0.787571,0.589238,-0.180365,-1.456989,-0.386952,0.097082,47.867184,3.957155,-11.405478
12920,1.322259,-0.674426,-2.68324,-0.432521,-0.59382,-2.325825,0.757066,0.624449,-0.192132,-1.66446,-0.631712,0.111672,47.112343,5.843941,-13.538338
12940,1.328183,-0.720518,-2.677527,-0.942109,0.531548,-2.114402,0.729456,0.659774,-0.180532,-1.199946,-0.431152,0.170034,46.430405,9.20335,-14.018806
12960,1.356853,-0.770717,-2.663752,-1.115761,1.091559,-2.571683,0.701055,0.69665,-0.152317,-0.565084,-0.294611,0.108784,46.430405,9.20335,-14.018806
12980,1.386338,-0.837494,-2.649891,-1.12836,0.829078,-3.557388,0.657972,0.742968,-0.122764,-0.278761,-0.280978,0.119498,46.004433,12.9137,-12.403197
13000,1.406264,-0.92318,-2.636276,-1.210464,0.269588,-4.442061,0.59514,0.797524,-0.098813,-0.430345,-0.33828,0.096708,44.539665,18.308632,-10.863867
13020,1.429461,-1.020462,-2.613692,-1.464031,0.307195,-4.80904,0.517757,0.85235,-0.073668,-0.82127,-0.230508,0.165374,42.693909,22.615074,-10.139024
13040,1.474109,-1.121549,-2.576642,-1.468159,0.795457,-4.997528,0.43226,0.900774,-0.041925,-0.727792,-0.105745,0.135721,42.693909,22.615074,-10.139024
13060,1.542286,-1.227456,-2.523582,-1.254679,0.975954,-5.378571,0.336498,0.941635,-0.009596,-0.341381,0.19873,0.077086,39.034569,29.069996,-8.261287
13080,1.643657,-1.34089,-2.433646,-1.093356,0.549236,-5.839768,0.227282,0.973688,0.016589,0.072462,0.468588,-0.066684,39.034569,29.069996,-8.261287
13100,1.906617,-1.453944,-2.169991,-1.063139,-0.018273,-6.015667,0.110074,0.993181,0.03842,0.18967,0.449095,-0.088515,31.840343,37.318008,-5.528996
13120,-2.923841,-1.510879,-0.713495,-0.983701,0.025233,-6.2201,-0.012936,0.998206,0.058467,0.297879,0.811914,-0.001521,24.557135,42.613132,-4.251933
13140,-2.094091,-1.414485,0.117021,-0.969504,0.236514,-6.025031,-0.134843,0.987808,0.077797,0.458604,1.036682,-0.179954,24.557135,42.613132,-4.251933
13160,-1.922516,-1.301938,0.279484,-0.72622,0.878399,-5.633398,-0.24937,0.964075,0.091513,0.766963,1.141104,-0.202643,16.3843,46.480106,-2.857519
13180,-1.842564,-1.201719,0.343427,-0.497117,0.93169,-4.660151,-0.347514,0.932661,0.096839,1.168666,1.098986,-0.260795,8.598163,48.58688,-1.5485
13200,-1.792994,-1.124341,0.37732,-0.186767,0.912253,-3.471542,-0.421156,0.901983,0.095151,1.899062,0.890421,0.019031,8.598163,48.58688,-1.5485
13220,-1.755391,-1.075303,0.396092,0.006797,1.051934,-1.710907,-0.467388,0.879734,0.087271,2.38615,0.382244,-0.336584,2.879263,49.272964,-0.946514
13240,-1.73179,-1.073047,0.408335,0.392494,0.284735,0.706212,-0.471275,0.878659,0.076534,2.36657,0.152926,-0.376782,1.220392,49.343307,-0.871369
13260,-1.728147,-1.10788,0.421274,0.685685,-0.761735,2.12363,-0.441043,0.894754,0.069977,2.285434,0.251441,-0.174972,1.220392,49.343307,-0.871369
13280,-1.731389,-1.161623,0.442044,0.868225,-1.318322,2.894195,-0.392732,0.91745,0.063618,1.46628,0.234863,-0.082523,3.282751,49.220093,-1.901902
13300,-1.737759,-1.205134,0.464649,0.578042,-1.05431,0.731783,-0.352595,0.933887,0.059424,-1.334554,0.63998,1.870798,6.989971,48.751709,-3.379723
13320,-1.806436,-1.221723,0.474316,0.431554,-4.964151,2.963932,-0.332575,0.93969,0.079851,-1.246542,1.463813,-0.280169,6.814259,48.736206,-3.919088
13340,-1.788583,-1.317752,0.527568,1.50458,0.133731,4.124224,-0.244439,0.968155,0.054093,3.634301,1.273636,-1.271424,6.814259,48.736206,-3.919088
13360,-1.810244,-1.36781,0.524079,1.116257,-2.494718,1.464396,-0.195844,0.979469,0.047812,0.487088,0.076043,1.630091,11.741711,47.499714,-6.551362
13380,-1.764752,-1.411178,0.6136,0.981002,-1.266846,2.089927,-0.155961,0.987288,0.030635,-0.381484,-0.429259,-0.17686,11.741711,47.499714,-6.551362
13400,-1.683164,-1.451336,0.693317,0.811709,0.503365,1.71606,-0.118425,0.992873,0.013363,0.332399,0.238954,-0.226269,15.82663,45.822289,-9.319161
13420,-1.587832,-1.478837,0.785159,0.482407,0.055244,1.066463,-0.091816,0.995775,0.001564,0.576573,-0.096971,-0.231331,17.13587,45.245415,-9.809452
13440,-1.492989,-1.495862,0.882349,0.311793,-0.151467,0.816779,-0.074638,0.997194,-0.005819,0.100685,0.01779,-0.040919,18.774181,44.444115,-10.452849
13460,-1.407693,-1.508627,0.968694,0.153225,0.02031,0.578929,-0.061305,0.998068,-0.010089,0.12945,0.145303,-0.049833,18.774181,44.444115,-10.452849
13480,-1.334999,-1.517989,1.039245,0.092457,0.211356,0.453137,-0.051322,0.998606,-0.012331,0.003684,0.191564,0.079439,19.706253,43.946228,-10.835292
13500,-1.246491,-1.52476,1.120235,0.109544,0.443678,0.347735,-0.043621,0.998941,-0.014664,-0.037052,0.034308,0.052659,20.380768,43.632305,-10.856215
13520,-1.130666,-1.530883,1.227024,0.091398,0.456667,0.387131,-0.0361,0.999204,-0.017001,-0.067263,0.061618,-0.065442,20.380768,43.632305,-10.856215
13540,-0.978846,-1.537374,1.369948,0.052967,0.453761,0.422226,-0.02773,0.999442,-0.018645,-0.127223,-0.002798,-0.133378,21.001764,43.373184,-10.709989
13560,-0.729765,-1.543242,1.608451,0.122622,0.607954,0.488449,-0.018368,0.99962,-0.020534,-0.15958,0.079542,-0.268421,21.693863,43.082989,-10.499671
13580,-0.323779,-1.546899,1.998673,0.076139,0.751949,0.560859,-0.007602,0.999714,-0.022654,-0.132077,-0.013875,-0.108541,21.693863,43.082989,-10.499671
13600,0.203804,-1.545856,2.514894,0.09087,0.449099,0.607694,0.005047,0.999689,-0.024421,0.109272,-0.053858,-0.048973,22.56967,42.716518,-10.144955
13620,0.54349,-1.539133,2.851284,0.153216,0.008547,0.562943,0.016371,0.999499,-0.027096,0.044527,-0.091021,-0.006671,23.60256,42.198898,-9.959082
13640,0.755941,-1.529161,3.065392,0.153807,-0.061225,0.656694,0.028552,0.999133,-0.030286,0.009183,-0.033725,0.171796,23.959948,41.969189,-10.075676
13660,0.913364,-1.516575,-3.061091,0.133966,0.094421,0.740875,0.042898,0.99853,-0.033117,0.090494,0.001988,0.232031,23.959948,41.969189,-10.075676
13680,1.022004,-1.503865,-2.955222,0.08847,0.14862,0.698187,0.05706,0.997761,-0.034889,0.063942,0.054882,0.284264,24.825336,41.418797,-10.256557
13700,1.098782,-1.490009,-2.879211,0.097255,-0.020139,0.771683,0.071876,0.996738,-0.036693,0.008859,0.111279,0.267985,24.825336,41.418797,-10.256557
13720,1.152158,-1.473293,-2.822139,0.148161,-0.264164,0.931543,0.088942,0.99525,-0.039574,-0.123244,0.073033,0.198922,26.051954,40.644215,-10.312832
13740,1.191972,-1.451504,-2.774703,0.214042,-0.415214,1.217184,0.110572,0.992893,-0.044013,-0.22573,0.122463,0.163901,26.713499,40.161434,-10.509954
13760,1.22098,-1.424133,-2.736795,0.270996,-0.427213,1.443174,0.137288,0.989264,-0.050085,-0.207509,0.145746,0.132117,27.984875,39.13163,-11.071289
13780,1.243114,-1.393248,-2.705898,0.273959,-0.401089,1.589164,0.16722,0.98428,-0.056844,-0.186904,0.1534,0.087591,27.984875,39.13163,-11.071289
13800,1.26505,-1.359683,-2.676733,0.243196,-0.279154,1.737249,0.19983,0.977798,-0.063075,-0.292726,0.208695,0.034648,29.569912,37.743279,-11.750599
13820,1.287639,-1.32319,-2.649832,0.235961,-0.128579,1.889644,0.235325,0.969502,-0.068474,-0.344562,0.258465,0.021782,29.569912,37.743279,-11.750599
13840,1.308227,-1.283779,-2.626812,0.241259,-0.053598,2.02606,0.27339,0.959092,-0.07348,-0.372923,0.303557,0.088663,32.021099,35.457741,-12.42614
13860,1.328443,-1.242103,-2.607026,0.217362,0.16913,2.13156,0.313373,0.946465,-0.07747,-0.49628,0.390449,0.20865,34.075745,33.376087,-12.723656
13880,1.353837,-1.198553,-2.587258,0.130807,0.433501,2.227371,0.35518,0.931514,-0.078292,-0.647218,0.490422,0.38565,34.075745,33.376087,-12.723656
13900,1.382816,-1.153892,-2.570935,0.156859,0.865158,2.259429,0.397799,0.914347,-0.075672,-1.063311,0.45365,0.40549,36.276596,31.014252,-12.614901
13920,1.413006,-1.107274,-2.560694,0.224703,1.144025,2.391742,0.441547,0.894483,-0.070256,-1.429477,0.506838,0.341984,38.586784,28.414928,-11.86015
13940,1.437047,-1.05527,-2.560355,0.468737,1.119201,2.756575,0.48859,0.870033,-0.065741,-1.25362,0.545815,0.036337,40.182037,26.449223,-11.083934
13960,1.445982,-0.98594,-2.564878,0.523692,0.265811,3.879536,0.547785,0.833791,-0.068729,-0.165583,0.621531,0.069018,40.182037,26.449223,-11.083934
13980,1.445349,-0.907611,-2.566994,0.545218,-0.111703,3.623754,0.610792,0.788035,-0.077027,0.076662,1.140065,-0.067718,42.768921,22.326527,-10.457388
14000,1.432472,-0.83782,-2.566806,0.515432,-0.866758,3.296398,0.662694,0.743186,-0.092256,0.327754,1.333032,-0.225035,44.96521,17.199884,-10.922681
14020,1.411372,-0.783085,-2.572827,0.61793,-0.864126,2.247028,0.699753,0.705469,-0.112512,0.143845,0.924352,-0.369345,44.96521,17.199884,-10.922681
14040,1.385037,-0.747719,-2.580448,0.58588,-1.13029,1.379562,0.720628,0.679968,-0.135424,-0.408799,0.434656,-0.091062,45.994911,13.029079,-12.317562
14060,1.363625,-0.72857,-2.585832,0.240259,-0.722905,0.889976,0.730172,0.665804,-0.153472,-0.558343,-0.293901,-0.030289,46.10413,10.808439,-13.949839
14080,1.347637,-0.712557,-2.587131,0.234972,-0.699269,0.442448,0.737929,0.653771,-0.167465,-0.641112,0.155006,0.274505,46.10413,10.808439,-13.949839
14100,1.332058,-0.718364,-2.593886,0.125552,-0.476303,-0.720186,0.73153,0.658154,-0.17804,-0.873711,-0.229519,0.227631,46.016937,9.60804,-15.071106
14120,1.322218,-0.739037,-2.599629,-0.174793,-0.203002,-1.202267,0.716399,0.673577,-0.181842,-0.883132,-0.389671,0.22121,46.016937,9.60804,-15.071106
14140,1.322499,-0.768025,-2.597453,-0.565081,0.042614,-1.518289,0.697225,0.694716,-0.176767,-0.674474,-0.668547,0.179575,45.466301,10.840851,-15.88403
14160,1.32915,-0.809161,-2.59305,-0.672429,0.215228,-2.26857,0.670055,0.723709,-0.165143,-0.57011,-0.539276,0.192212,45.127453,12.233479,-15.838752
14180,1.334153,-0.866866,-2.591454,-0.789049,0.156954,-3.070071,0.629181,0.762304,-0.151735,-0.619904,-0.514532,0.189409,44.312447,15.458599,-15.311768
14200,1.33716,-0.936777,-2.589049,-0.935602,-0.007133,-3.527481,0.576294,0.805653,-0.137148,-0.596908,-0.536335,0.196321,44.312447,15.458599,-15.311768
14220,1.340995,-1.014858,-2.584505,-1.071763,0.078831,-3.926208,0.513867,0.849405,-0.120211,-0.461499,-0.35766,0.241488,42.621742,20.08197,-14.734739
14240,1.352766,-1.101609,-2.576938,-1.184914,0.338022,-4.321656,0.441456,0.891936,-0.097806,-0.39098,-0.316573,0.219067,40.005459,25.346624,-13.932808
14260,1.373989,-1.194184,-2.561479,-1.270347,0.24775,-4.36978,0.360673,0.929916,-0.071914,-0.284547,-0.021758,0.116821,40.005459,25.346624,-13.932808
14280,1.416531,-1.295054,-2.528608,-1.391384,0.670653,-4.774795,0.269028,0.962223,-0.041834,-0.182999,0.126613,0.111262,36.420639,30.893051,-12.496693
14300,1.507291,-1.39387,-2.450199,-1.402473,0.781933,-4.866423,0.175649,0.984389,-0.01117,-0.121588,0.252412,0.12648,31.73708,36.336411,-10.46108
14320,1.809212,-1.490624,-2.166185,-1.392488,1.124965,-4.944106,0.077821,0.996788,0.018913,0.118285,0.497368,0.066185,27.249834,40.2808,-8.480268
14340,-2.690093,-1.519292,-0.406535,-1.280551,1.397518,-5.010972,-0.022462,0.998674,0.046323,0.46779,0.63867,0.049045,27.249834,40.2808,-8.480268
14360,-2.061432,-1.427638,0.195133,-1.091436,1.474936,-5.150207,-0.125839,0.98977,0.067224,0.589554,0.729117,0.018408,20.104225,44.757492,-5.44039
14380,-1.915683,-1.327192,0.312329,-0.953178,1.571175,-4.904868,-0.226998,0.970475,0.081548,0.575891,0.698028,-0.069173,20.104225,44.757492,-5.44039
14400,-1.84359,-1.235448,0.354881,-0.702237,1.525945,-4.332249,-0.316929,0.944296,0.088667,0.877552,0.741114,-0.141218,13.266729,47.439255,-3.243782
14420,-1.788082,-1.156257,0.384597,-0.264612,1.287694,-3.744431,-0.393297,0.915302,0.086829,1.141741,0.791119,0.026376,7.97496,48.680431,-1.904392
14440,-1.746638,-1.091798,0.409784,-0.043051,0.6621,-2.918407,-0.453783,0.887457,0.080627,1.420382,0.554971,0.090608,2.675625,49.274986,-1.351933
14460,-1.734606,-1.047656,0.421467,-0.148038,-0.247113,-1.804264,-0.492915,0.866254,0.081474,1.694194,0.274127,0.075005,2.675625,49.274986,-1.351933
14480,-1.744633,-1.024835,0.425151,0.000613,-0.851185,-0.726897,-0.511414,0.854629,0.089809,1.77913,0.232011,-0.0471,-0.614929,49.347778,-1.195738
14500,-1.758476,-1.024713,0.432183,0.255185,-1.044199,0.348626,-0.510224,0.854565,0.096899,1.570313,0.180408,-0.303091,-1.513454,49.327766,-1.221458
14520,-1.771071,-1.043862,0.441229,0.510918,-0.999573,1.305934,-0.492834,0.864353,0.100043,1.498617,0.341931,-0.325095,-1.513454,49.327766,-1.221458
14540,-1.768261,-1.071151,0.453296,0.551013,0.249135,0.722396,-0.469804,0.877753,0.093994,0.961076,0.511697,0.339493,-0.211939,49.332943,-1.796417
14560,-1.767668,-1.063567,0.474385,0.247771,-1.658016,0.252565,-0.476374,0.874094,0.095015,-2.848318,0.583716,-0.05464,0.11698,49.298557,-2.578747
14580,-1.774229,-1.110554,0.449642,-0.034304,2.18763,2.332931,-0.435006,0.895945,0.089736,1.239633,0.431448,0.110383,0.11698,49.298557,-2.578747
14600,-1.724953,-1.134501,0.478748,1.256926,0.055219,0.955871,-0.417573,0.906324,0.064887,1.157991,0.455188,-0.914237,2.98424,49.208961,-2.565837
14620,-1.715609,-1.162099,0.513676,0.681637,-1.628459,1.063138,-0.393255,0.917639,0.05735,0.7759,0.430811,0.306725,4.616398,48.981892,-4.058832
14640,-1.71857,-1.176276,0.537981,0.471204,-0.719004,0.497192,-0.380176,0.923181,0.056593,-0.486904,-0.192392,0.289995,4.616398,48.981892,-4.058832
14660,-1.7035,-1.195404,0.549629,0.336841,0.567007,1.295356,-0.363414,0.930364,0.048512,-0.468693,-0.107198,-0.185062,5.474491,48.800484,-5.055078
14680,-1.683433,-1.224486,0.555859,0.28003,0.780025,1.34006,-0.337279,0.940631,0.038152,0.172102,-0.08739,0.016582,7.378572,48.510647,-5.411525
14700,-1.654781,-1.24637,0.570706,0.34934,0.562274,0.941619,-0.317642,0.947834,0.02674,0.284057,0.03793,-0.048758,7.378572,48.510647,-5.411525
14720,-1.643075,-1.265724,0.578155,0.094178,0.137016,0.981559,-0.299578,0.953825,0.021691,0.191286,0.039384,-0.158089,9.068913,48.187275,-5.722973
14740,-1.640384,-1.285243,0.579279,0.096205,0.107223,0.977293,-0.281006,0.959506,0.019586,-0.019821,0.017819,0.028631,10.487013,47.882553,-5.856182
14760,-1.631859,-1.304223,0.581225,0.090113,0.426949,0.905969,-0.262936,0.964679,0.016076,0.057782,0.032788,0.065498,10.487013,47.882553,-5.856182
14780,-1.620778,-1.321975,0.585597,0.110755,0.237537,0.882518,-0.245955,0.969203,0.012303,0.052443,0.020222,0.078258,11.888586,47.550766,-5.881948
14800,-1.611497,-1.339016,0.594621,0.156607,-0.071221,0.815394,-0.229521,0.973259,0.009347,0.039411,0.01609,0.069038,12.544556,47.379684,-5.900072
14820,-1.602635,-1.354497,0.60637,0.155424,-0.147013,0.741851,-0.214508,0.976698,0.006832,0.068192,0.011461,0.032353,13.8852,46.969715,-6.169151
14840,-1.593118,-1.3687,0.618684,0.140833,-0.09617,0.685365,-0.200673,0.979648,0.00448,0.038335,0.014264,0.027731,13.8852,46.969715,-6.169151
14860,-1.581636,-1.381864,0.631155,0.124245,-0.002745,0.640606,-0.187799,0.982205,0.002036,0.03013,0.004779,0.001687,14.85482,46.637146,-6.428215
14880,-1.568433,-1.393987,0.643336,0.107725,0.101233,0.585144,-0.175889,0.98441,-0.000416,0.054704,0.009105,0.026493,15.596286,46.374149,-6.573053
14900,-1.553204,-1.405148,0.655259,0.088,0.213833,0.546778,-0.164866,0.986312,-0.002901,0.037486,0.020082,0.025804,15.596286,46.374149,-6.573053
14920,-1.537269,-1.416121,0.666402,0.068973,0.258597,0.557411,-0.153973,0.988062,-0.005164,-0.002903,0.012625,0.020026,16.549204,46.032757,-6.64231
14940,-1.520087,-1.427552,0.678844,0.068742,0.215135,0.587235,-0.142571,0.989758,-0.007236,0.005425,-0.016018,0.018054,17.232174,45.785324,-6.615664
14960,-1.501384,-1.439644,0.69429,0.068424,0.150424,0.62025,-0.130461,0.991412,-0.00907,0.003096,-0.005694,0.011679,17.232174,45.785324,-6.615664
14980,-1.518121,-1.448648,0.6751,0.069389,0.14631,0.653274,-0.121676,0.992549,-0.006415,-0.022443,0.014821,0.01969,18.238634,45.394188,-6.612924
15000,-1.521213,-1.463527,0.669186,0.075752,0.154893,0.676732,-0.106932,0.994252,-0.005306,0.027601,0.016292,0.018688,18.880283,45.174187,-6.311782
15020,-1.495449,-1.476807,0.692827,0.078665,0.070831,0.661799,-0.093585,0.995586,-0.007065,0.049029,-0.005886,0.009338,18.880283,45.174187,-6.311782
15040,-1.46513,-1.489766,0.723227,0.067666,-0.025904,0.655363,-0.08049,0.996719,-0.008537,0.004807,0.005982,0.025245,19.960129,44.701416,-6.355119
15060,-1.426484,-1.502759,0.762244,0.060287,0.003957,0.671341,-0.067278,0.997686,-0.009777,-0.019697,0.020838,0.035122,20.835808,44.285591,-6.45497
15080,-1.364322,-1.516159,0.823449,0.074355,0.082716,0.703351,-0.05345,0.998508,-0.011196,-0.014558,0.03201,0.06657,20.835808,44.285591,-6.45497
15100,-1.378192,-1.532435,0.807571,0.092472,0.111518,0.740687,-0.037643,0.999264,-0.007341,0.008559,0.012393,0.057329,21.760727,43.830246,-6.510872
15120,-1.172601,-1.546605,1.011858,0.103788,0.029787,0.781177,-0.022297,0.999707,-0.00938,-0.001583,0.017627,0.039958,22.810452,43.320854,-6.324395
15140,-0.50692,-1.55847,1.678718,0.101032,-0.101789,0.838679,-0.005984,0.999924,-0.010776,-0.008909,0.019073,0.019122,22.810452,43.320854,-6.324395
15160,0.733211,-1.553659,2.922333,0.097339,-0.20041,0.895122,0.011468,0.999853,-0.012733,-0.040796,0.011835,0.020301,23.854286,42.733685,-6.466554
15180,1.125589,-1.538649,-2.964524,0.103655,-0.169248,0.978249,0.029009,0.999483,-0.013842,-0.090105,0.015104,0.065233,24.971724,42.048897,-6.731578
15200,1.259266,-1.518281,-2.828234,0.107923,-0.096471,1.095483,0.049965,0.998621,-0.016089,-0.056022,0.068929,0.09954,24.971724,42.048897,-6.731578
15220,1.325394,-1.495466,-2.760526,0.101408,-0.073729,1.188179,0.073004,0.997164,-0.018284,-0.059912,0.070249,0.105885,25.975401,41.411007,-6.886082
15240,1.36992,-1.471146,-2.713763,0.07338,-0.114751,1.2691,0.097485,0.995039,-0.01985,-0.07153,0.093309,0.09355,27.396475,40.454556,-7.062111
15260,1.402717,-1.445264,-2.679085,0.024479,-0.051578,1.334027,0.123438,0.992131,-0.020945,-0.101405,0.107448,0.091441,27.396475,40.454556,-7.062111
15280,1.436964,-1.418296,-2.645637,-0.045325,0.130835,1.421322,0.150552,0.988394,-0.02027,-0.168526,0.106332,0.05474,29.188337,39.154278,-7.21072
15300,1.470745,-1.38848,-2.616551,-0.072633,0.322934,1.571562,0.180402,0.983426,-0.01811,-0.260526,0.109942,0.015378,30.574553,38.108601,-7.06699
15320,1.50071,-1.355103,-2.593879,-0.087643,0.402406,1.747368,0.213499,0.976828,-0.014988,-0.308302,0.139657,0.01926,30.574553,38.108601,-7.06699
15340,1.524886,-1.317742,-2.578227,-0.045077,0.514741,1.948855,0.250099,0.968152,-0.01149,-0.477241,0.433123,0.028031,32.483074,36.575447,-6.640616
15360,1.539308,-1.275039,-2.577707,0.154407,0.795011,2.269999,0.29132,0.956582,-0.009176,-0.584396,0.483222,0.246649,34.644684,34.637371,-6.083536
15380,1.546568,-1.226034,-2.588823,0.283116,0.897639,2.509994,0.337874,0.941156,-0.008188,-0.538375,0.468116,0.335672,34.644684,34.637371,-6.083536
15400,1.546009,-1.173833,-2.603072,0.330938,0.396321,2.664458,0.386501,0.922239,-0.009582,-0.356441,0.391481,0.33992,37.162376,32.048203,-5.374141
15420,1.520967,-1.12008,-2.626167,0.693227,-0.451543,2.587102,0.43507,0.900135,-0.021697,-0.036678,0.587261,-0.189195,39.64632,28.945919,-5.226275
15440,1.493002,-1.06755,-2.638672,0.362051,-1.01283,2.576795,0.480813,0.876022,-0.03748,0.015616,0.15619,0.091222,39.64632,28.945919,-5.226275
15460,1.469605,-1.018884,-2.644275,0.297305,-0.811595,2.343379,0.521635,0.851523,-0.052966,0.171801,-0.103476,0.017657,41.660789,25.669807,-6.515435
15480,1.459167,-0.97629,-2.64244,0.14049,-0.542619,1.962774,0.556613,0.828425,-0.062394,0.211133,-0.092021,-0.069641,43.184555,22.610172,-7.802896
15500,1.447463,-0.941793,-2.643362,0.272599,-0.521627,1.506962,0.58387,0.808614,-0.072378,0.409767,0.007914,-0.185206,43.184555,22.610172,-7.802896
15520,1.435359,-0.921082,-2.645864,0.165714,-0.518118,0.741723,0.599419,0.796257,-0.081684,-0.348015,-0.351524,-0.075284,44.212875,20.185211,-8.648129
15540,1.423479,-0.914385,-2.647331,0.030722,-0.558694,0.087238,0.603668,0.792187,-0.08958,-0.756515,-0.565289,0.033092,44.567993,19.018219,-9.434657
15560,1.415347,-0.918956,-2.644293,-0.231083,-0.464843,-0.310641,0.599336,0.794969,-0.093924,-0.779572,-0.564149,0.134452,44.466682,19.003521,-9.929316
15580,1.41565,-0.930373,-2.63684,-0.344088,-0.17488,-0.719934,0.590358,0.801843,-0.092334,-0.526759,-0.445871,0.096911,44.466682,19.003521,-9.929316
15600,1.421306,-0.952479,-2.627592,-0.500142,-0.069148,-1.236965,0.5732,0.814855,-0.086332,-0.39838,-0.409612,0.066022,44.098965,19.683258,-10.240198
15620,1.430223,-0.983529,-2.614741,-0.627223,-0.101107,-1.608001,0.548622,0.832458,-0.077633,-0.37777,-0.363922,0.097561,43.354862,21.358738,-10.058395
15640,1.442287,-1.021876,-2.599217,-0.692977,0.016511,-2.005532,0.517464,0.853088,-0.066868,-0.391198,-0.292022,0.145466,43.354862,21.358738,-10.058395
15660,1.461179,-1.069053,-2.580149,-0.808601,0.170359,-2.424452,0.478068,0.876746,-0.052615,-0.385645,-0.308127,0.135379,42.147736,23.800476,-9.70138
15680,1.49225,-1.122907,-2.550945,-0.976832,0.28557,-2.722002,0.431728,0.901363,-0.033981,-0.280789,-0.236446,0.085036,40.384033,26.960968,-8.902068
15700,1.537197,-1.181618,-2.508292,-1.046526,0.295397,-2.969326,0.379214,0.925221,-0.012746,-0.128543,-0.098942,0.088292,40.384033,26.960968,-8.902068
15720,1.599767,-1.244416,-2.448402,-1.056382,0.337832,-3.249568,0.320482,0.947209,0.009287,-0.024706,0.023082,0.094442,38.025375,30.527594,-7.690771
15740,1.69358,-1.311578,-2.356441,-1.051888,0.235661,-3.522362,0.254395,0.966591,0.031394,-0.033112,0.055519,0.07937,38.025375,30.527594,-7.690771
15760,1.850447,-1.378506,-2.199056,-1.040293,0.125564,-3.652364,0.183683,0.981569,0.052749,0.083803,0.178282,0.041825,33.75177,35.547497,-5.848453
15780,2.15291,-1.438883,-1.892179,-0.954768,-0.160282,-3.799328,0.109868,0.991312,0.072315,0.266536,0.360311,-0.026813,31.105417,38.011269,-4.9606
15800,2.772526,-1.474706,-1.260372,-0.859332,-0.549697,-3.791797,0.034611,0.995387,0.089483,0.202465,0.407399,-0.100515,31.105417,38.011269,-4.9606
15820,-2.823481,-1.458755,-0.557853,-0.772697,-0.686941,-3.241864,-0.03497,0.99373,0.106197,0.709805,0.722914,-0.110134,24.974287,42.423347,-3.681835
15840,-2.516847,-1.425897,-0.238989,-0.441758,-0.59791,-2.029751,-0.084454,0.98952,0.117119,1.632352,0.844571,-0.36631,20.569016,44.771648,-3.070188
15860,-2.443367,-1.419404,-0.146471,0.71753,-1.037603,0.288643,-0.096953,0.988562,0.115522,2.421965,1.045602,-1.5594,18.916668,45.497932,-3.018087
15880,-2.564726,-1.437423,-0.27935,-0.20015,1.073884,0.810687,-0.072526,0.991119,0.111459,0.861284,0.26091,0.942572,18.916668,45.497932,-3.018087
15900,-2.470452,-1.432553,-0.179881,0.371132,-1.205749,-1.281577,-0.085697,0.99046,0.107916,-1.011837,-0.183819,0.41189,20.022512,44.994305,-3.409187
15920,-2.461702,-1.434944,-0.150905,0.081653,-0.471965,0.78523,-0.085149,0.990786,0.10532,-0.552134,0.143415,-0.28957,19.029428,45.370075,-4.055622
15940,-2.576208,-1.448997,-0.279327,0.179743,0.957508,0.758047,-0.065091,0.992592,0.102591,0.956113,0.245445,0.022882,19.029428,45.370075,-4.055622
15960,-2.571785,-1.452563,-0.275125,0.115197,-0.582157,-0.101262,-0.063635,0.993019,0.099321,0.44602,-0.016685,-0.042574,20.260351,44.831863,-4.078359
15980,-2.554351,-1.451645,-0.244191,0.06335,-0.556916,-0.208966,-0.065862,0.99291,0.098955,-0.145045,-0.077291,-0.037218,20.229151,44.816074,-4.394552
16000,-2.53616,-1.450785,-0.222506,0.007919,0.075343,-0.077848,-0.068137,0.992807,0.098443,-0.116479,-0.041117,-0.099923,20.229151,44.816074,-4.394552
16020,-2.521494,-1.449599,-0.213073,-0.024223,0.287945,-0.110884,-0.070257,0.992665,0.098391,0.181479,0.062313,-0.002673,19.977058,44.9039,-4.644165
16040,-2.483422,-1.445714,-0.178277,-0.029599,0.095336,-0.408224,-0.07631,0.992187,0.098696,0.302201,0.08577,0.043882,19.847017,44.97953,-4.46645
16060,-2.427355,-1.439138,-0.121382,-0.015024,-0.048624,-0.498804,-0.085993,0.991346,0.099193,0.00596,0.017459,0.046559,19.847017,44.97953,-4.46645
16080,-2.374351,-1.43274,-0.0672,0.028672,-0.029563,-0.480609,-0.095528,0.990485,0.099061,0.02021,0.013085,0.056807,19.242222,45.246685,-4.4142
16100,-2.323085,-1.426573,-0.014229,0.055115,-0.078565,-0.48164,-0.104937,0.989618,0.098208,0.034044,0.015555,0.028272,18.579351,45.517982,-4.464545
16120,-2.278294,-1.420472,0.032466,0.045516,-0.049596,-0.427308,-0.113816,0.988723,0.097334,-0.045547,-0.000243,-0.002882,18.579351,45.517982,-4.464545
