timestamp(unix),attitude_roll(radians),attitude_pitch(radians),attitude_yaw(radians),rotation_rate_x(radians/s),rotation_rate_y(radians/s),rotation_rate_z(radians/s),gravity_x(G),gravity_y(G),gravity_z(G),user_acc_x(G),user_acc_y(G),user_acc_z(G),magnetic_field_x(microteslas),magnetic_field_y(microteslas),magnetic_field_z(microteslas)
0,0.043897,0.472558,-2.223508,0.254168,0.109502,-0.151647,0.039074,-0.455166,-0.889549,0.045201,0.009411,0.126793,-22.246136,-5.681387,-36.843224
20,0.049479,0.47815,-2.228434,0.316538,0.209867,-0.249542,0.043912,-0.460137,-0.886761,-0.000043,0.027215,0.129589,-22.120882,-5.963704,-36.874008
40,0.05819,0.484981,-2.235121,0.379867,0.316852,-0.289895,0.05145,-0.466191,-0.883187,-0.000547,-0.006526,0.125023,-22.120882,-5.963704,-36.874008
60,0.06802,0.493336,-2.242344,0.458638,0.308084,-0.286563,0.059863,-0.473567,-0.878721,0.021757,0.020152,0.104948,-21.760044,-6.542955,-36.990295
80,0.072251,0.503368,-2.248206,0.567821,-0.050145,-0.184168,0.063235,-0.482378,-0.873678,0.102033,0.029375,0.083684,-21.468599,-7.239612,-37.030785
100,0.061561,0.516192,-2.253017,0.664882,-0.552105,-0.140433,0.053506,-0.493572,-0.868057,0.140418,0.075466,0.207794,-21.468599,-7.239612,-37.030785
120,0.039879,0.529058,-2.254761,0.696688,-1.367131,-0.01804,0.034418,-0.50472,-0.862597,0.135825,0.07047,0.210314,-22.03878,-8.047029,-36.525734
140,0.013591,0.545919,-2.255751,0.917418,-1.310607,-0.044278,0.011615,-0.519204,-0.854572,0.050869,0.111962,0.272571,-23.459276,-8.850124,-35.439098
160,-0.01036,0.566278,-2.25814,1.080621,-1.294534,-0.130297,-0.008743,-0.536495,-0.843858,0.028823,0.105602,0.184679,-23.459276,-8.850124,-35.439098
180,-0.031259,0.58971,-2.263313,1.228541,-1.157656,-0.3218,-0.025975,-0.55612,-0.830696,0.019917,0.053434,0.157173,-24.758835,-9.986094,-34.232586
200,-0.054059,0.615852,-2.27176,1.305305,-1.476208,-0.416576,-0.044106,-0.577655,-0.815089,0.111062,-0.032377,0.075678,-25.914217,-11.482077,-32.881714
220,-0.077994,0.642695,-2.280386,1.325781,-1.436048,-0.455955,-0.06237,-0.599355,-0.79805,0.084281,0.055379,0.171249,-26.754602,-12.557167,-31.79781
240,-0.102347,0.669996,-2.289587,1.324473,-1.530876,-0.506061,-0.080082,-0.620983,-0.779722,0.101994,0.077007,0.152922,-26.754602,-12.557167,-31.79781
260,-0.126495,0.698024,-2.30012,1.361994,-1.5304,-0.613614,-0.096652,-0.642705,-0.759993,0.087725,0.217672,0.320433,-28.323771,-14.746753,-29.408997
280,-0.145578,0.727806,-2.314104,1.434587,-1.310288,-0.794574,-0.10831,-0.665233,-0.738738,0.063785,0.25967,0.305953,-28.958921,-15.934324,-28.143736
300,-0.156412,0.760764,-2.331491,1.599038,-0.994642,-0.934859,-0.112829,-0.689475,-0.715467,0.029959,0.248588,0.295942,-28.958921,-15.934324,-28.143736
320,-0.159864,0.798091,-2.35186,1.790429,-0.856478,-1.037847,-0.111122,-0.716025,-0.689174,0.009132,0.17562,0.345713,-29.477934,-18.714365,-25.795658
340,-0.164193,0.838152,-2.371182,1.920662,-0.978627,-0.903392,-0.109326,-0.743408,-0.659842,0.042874,0.231796,0.457541,-29.477934,-18.714365,-25.795658
360,-0.175544,0.879942,-2.384212,2.031634,-1.07385,-0.699517,-0.111282,-0.770702,-0.627403,0.04483,0.25909,0.425102,-29.595411,-20.962542,-23.859495
380,-0.188613,0.924752,-2.393168,2.239711,-0.971481,-0.705521,-0.112879,-0.798472,-0.591356,-0.142355,0.352503,0.405976,-29.841108,-22.999638,-21.566568
400,-0.19892,0.975121,-2.403068,2.524573,-0.873863,-0.765734,-0.110873,-0.82777,-0.550004,-0.234189,0.237102,0.361802,-29.87479,-24.421457,-19.891743
420,-0.213567,1.030086,-2.404297,2.750341,-0.697968,-0.466946,-0.109099,-0.857343,-0.503051,-0.32773,0.21269,0.396621,-29.87479,-24.421457,-19.891743
440,-0.236398,1.085846,-2.388023,2.826944,-0.212941,-0.098019,-0.109177,-0.884698,-0.453199,-0.552917,0.219278,0.463484,-29.858179,-26.43232,-17.158478
460,-0.260102,1.140401,-2.354906,2.826526,0.627662,0.07054,-0.107303,-0.908801,-0.403196,-0.571759,0.193133,0.329618,-29.858179,-26.43232,-17.158478
480,-0.274242,1.196663,-2.317658,2.970406,1.099396,-0.13261,-0.098975,-0.930825,-0.351809,-0.575876,0.134224,0.132479,-29.75186,-28.244301,-14.201346
500,-0.295233,1.256404,-2.275288,3.122713,0.854591,-0.072733,-0.089977,-0.950985,-0.295859,-0.293843,-0.083744,-0.054498,-29.406397,-29.10725,-13.138631
520,-0.37189,1.314122,-2.180233,3.13025,0.702106,0.578284,-0.092249,-0.96724,-0.236511,-0.328665,-0.086792,0.067703,-29.146433,-30.206434,-11.074688
540,-0.52086,1.361245,-2.007961,2.873702,1.154746,0.805969,-0.103517,-0.978124,-0.180436,-0.376387,-0.054133,0.049744,-29.146433,-30.206434,-11.074688
560,-0.701203,1.398594,-1.790948,2.600628,1.95364,0.440208,-0.110546,-0.98521,-0.130924,-0.41985,-0.238682,-0.00346,-29.578026,-30.512024,-8.874041
580,-0.881658,1.432432,-1.557716,2.391007,2.784337,-0.144935,-0.106448,-0.990443,-0.087701,-0.250333,-0.38947,-0.020834,-29.307907,-30.8262,-8.68239
600,-1.099977,1.463273,-1.277005,2.208383,3.064581,-0.396652,-0.09564,-0.994225,-0.04868,0.02223,-0.457084,-0.094218,-28.618006,-31.393423,-8.947319
620,-1.411204,1.482244,-0.905943,1.880212,2.815342,-0.275817,-0.087313,-0.996082,-0.014054,0.267885,-0.420636,-0.163055,-28.618006,-31.393423,-8.947319
640,-1.755414,1.487561,-0.508555,1.571083,2.414243,-0.349978,-0.081727,-0.996538,0.015262,0.3163,-0.536162,-0.211978,-27.171251,-32.456055,-9.639467
660,-2.048634,1.488282,-0.17099,1.126089,2.055589,-0.555427,-0.073189,-0.996598,0.037902,0.288215,-0.628708,-0.215484,-27.171251,-32.456055,-9.639467
680,-2.279162,1.489214,0.100664,0.789629,1.976317,-0.724391,-0.061887,-0.996674,0.053018,0.250135,-0.588058,-0.216012,-25.625687,-33.485142,-10.327703
700,-2.496732,1.491105,0.355855,0.535562,1.734216,-0.864479,-0.047851,-0.996826,0.06362,0.329848,-0.293762,-0.104361,-24.937807,-33.887665,-10.692222
720,-2.723589,1.494293,0.613481,0.252309,1.372046,-1.013173,-0.031025,-0.997075,0.069848,0.347889,-0.255855,-0.131738,-24.937807,-33.887665,-10.692222
740,-2.992759,1.49838,0.905174,0.012064,0.86535,-1.111747,-0.010729,-0.997379,0.071553,0.309511,-0.462643,-0.089894,-23.215021,-34.829395,-11.513812
760,3.005525,1.501153,1.20181,-0.206001,0.427449,-1.014206,0.009439,-0.997576,0.068944,0.333746,-0.43231,-0.027486,-21.785698,-35.555653,-12.073559
780,2.726806,1.501092,1.486572,-0.25943,0.166594,-0.89822,0.028068,-0.997572,0.063742,0.314431,-0.327441,0.018213,-21.785698,-35.555653,-12.073559
800,2.515116,1.496721,1.698197,-0.141926,-0.16452,-0.662612,0.04339,-0.997258,0.059954,0.171423,-0.054485,0.251768,-20.671631,-36.065239,-12.512959
820,2.386784,1.49061,1.822367,-0.034825,-0.214344,-0.5399,0.054881,-0.996787,0.058345,0.159932,-0.054956,0.253376,-20.671631,-36.065239,-12.512959
840,2.289846,1.485258,1.917239,-0.236672,-0.006871,-0.418732,0.064283,-0.996344,0.056273,-0.00807,-0.129434,0.177919,-19.850508,-36.517906,-12.529634
860,2.186555,1.484007,2.03143,-0.404897,0.881627,-0.376189,0.07076,-0.996236,0.050064,-0.133291,-0.261592,0.114624,-18.339821,-35.572964,-10.510473
880,2.11333,1.479637,2.128077,-0.16815,1.257211,-0.361831,0.077961,-0.995848,0.047001,0.066967,-0.18918,0.378567,-17.633839,-35.679993,-11.324336
900,2.060706,1.480081,2.209127,-0.432352,1.426388,-0.046854,0.079935,-0.995888,0.042627,0.349386,-0.203331,0.242148,-17.633839,-35.679993,-11.324336
920,1.983916,1.48534,2.309002,-0.534848,0.880917,0.100942,0.078172,-0.996351,0.034266,0.384841,-0.136858,0.124379,-17.049496,-35.680008,-12.186324
940,1.909911,1.494146,2.392024,-0.437829,0.226867,0.381188,0.072214,-0.997064,0.025473,0.041525,0.067315,0.026865,-16.796114,-35.434513,-13.211379
960,1.8206,1.505033,2.483052,-0.471801,0.00823,0.440745,0.063676,-0.997838,0.016246,-0.05449,0.085256,0.018605,-16.796114,-35.434513,-13.211379
980,1.705192,1.515051,2.597622,-0.431467,-0.069815,0.371537,0.055215,-0.998447,0.007466,-0.21003,-0.001675,-0.00713,-17.244373,-34.97298,-13.848365
1000,1.542506,1.520496,2.760056,-0.438112,0.034678,0.187214,0.050259,-0.998735,-0.001422,-0.138531,0.039842,0.075427,-17.583319,-34.660839,-14.202396
1020,1.362196,1.522241,2.943517,-0.442641,0.199148,0.108396,0.047484,-0.998821,-0.010051,-0.132567,0.00726,0.078884,-17.583319,-34.660839,-14.202396
1040,1.191772,1.520591,3.118977,-0.433651,0.27532,0.02745,0.046622,-0.99874,-0.018569,-0.074821,-0.081048,0.100478,-17.70693,-34.384415,-14.711599
1060,1.043057,1.517078,-3.010582,-0.4531,0.203107,0.030595,0.046388,-0.998558,-0.027039,0.099944,-0.003624,0.092483,-17.631536,-34.170467,-15.289308
1080,0.887915,1.512762,-2.852602,-0.482591,0.043996,0.09124,0.044995,-0.998316,-0.036601,0.116733,0.021311,-0.029165,-17.631536,-34.170467,-15.289308
1100,0.750514,1.509069,-2.717056,-0.382379,-0.161181,0.176608,0.042072,-0.998095,-0.045115,0.077114,-0.001554,-0.011571,-17.616405,-33.920502,-15.852965
1120,0.611258,1.507074,-2.581758,-0.325497,-0.250133,0.306681,0.036545,-0.99797,-0.052148,0.161972,-0.059387,0.031717,-17.855278,-33.635868,-16.188646
1140,0.455468,1.505748,-2.429955,-0.289365,-0.18373,0.451673,0.028594,-0.997885,-0.058376,0.13994,-0.07316,0.022686,-17.855278,-33.635868,-16.188646
1160,0.277178,1.504566,-2.255324,-0.246062,-0.221744,0.548703,0.01811,-0.997808,-0.063656,0.111834,0.010747,-0.033329,-18.322149,-33.288898,-16.383007
1180,0.080598,1.502051,-2.064558,-0.230868,-0.37129,0.645657,0.00553,-0.997638,-0.068468,0.10917,0.016223,-0.052885,-18.966532,-32.863365,-16.508324
1200,-0.119943,1.497563,-1.873171,-0.190061,-0.536017,0.693637,-0.008755,-0.99732,-0.072643,0.061856,0.010824,-0.062352,-18.966532,-32.863365,-16.508324
1220,-0.301758,1.490986,-1.701666,-0.190007,-0.511493,0.710692,-0.023694,-0.996817,-0.076123,-0.00014,-0.016153,0.032529,-19.83494,-32.367901,-16.466599
1240,-0.44996,1.482336,-1.561329,-0.184124,-0.370164,0.699016,-0.038424,-0.99609,-0.079552,-0.016843,-0.039021,0.027062,-20.769537,-31.8452,-16.332924
1260,-0.571278,1.472377,-1.446909,-0.170517,-0.411521,0.735257,-0.05313,-0.995161,-0.082658,0.069884,-0.039172,-0.01329,-20.769537,-31.8452,-16.332924
1280,-0.691523,1.459364,-1.337346,-0.196342,-0.653038,0.921622,-0.070915,-0.993798,-0.085656,0.187888,-0.022849,-0.025657,-21.621912,-31.309511,-16.262297
1300,-0.805547,1.442032,-1.237933,-0.266469,-0.797775,1.079163,-0.09261,-0.991721,-0.088951,0.05666,0.009177,-0.007317,-22.75248,-30.621737,-16.027746
1320,-0.88914,1.420591,-1.167877,-0.383155,-0.632285,1.148258,-0.1162,-0.98874,-0.094286,0.080251,0.006196,-0.001982,-22.75248,-30.621737,-16.027746
1340,-0.943064,1.39639,-1.121711,-0.482186,-0.304204,1.215294,-0.140443,-0.98483,-0.101912,0.069353,0.039319,-0.006776,-24.105148,-29.695356,-15.791844
1360,-0.972534,1.369045,-1.094174,-0.627102,0.009176,1.28775,-0.165582,-0.979717,-0.112859,0.036721,0.008144,-0.158275,-24.387554,-29.166962,-15.323836
1380,-0.990698,1.341585,-1.070997,-0.446178,0.247674,1.270011,-0.19004,-0.973846,-0.124535,-0.049294,0.079437,-0.1063,-24.387554,-29.166962,-15.323836
1400,-1.024822,1.315656,-1.04226,-0.40069,-0.65489,1.318885,-0.21569,-0.967628,-0.131049,0.106941,-0.207604,0.16439,-25.419643,-27.940063,-15.921025
1420,-1.06832,1.287206,-1.014032,-0.377035,-0.799001,1.451017,-0.245219,-0.960057,-0.134753,-0.127554,-0.279216,0.370074,-26.727261,-26.719557,-15.874617
1440,-1.101154,1.258494,-0.989125,-0.322697,-0.239003,1.429939,-0.273984,-0.951629,-0.139051,-0.084399,-0.313676,0.338652,-26.727261,-26.719557,-15.874617
1460,-1.124539,1.230479,-0.965856,-0.258963,-0.010726,1.411992,-0.301098,-0.942649,-0.144059,0.089153,-0.32084,0.162538,-28.126265,-25.362883,-15.681898
1480,-1.145886,1.201837,-0.942292,-0.234479,0.058804,1.532457,-0.328575,-0.932703,-0.148672,0.319206,-0.331198,0.061544,-29.198734,-24.010254,-15.850111
1500,-1.164666,1.170288,-0.919337,-0.248367,0.132811,1.674167,-0.358172,-0.920863,-0.154027,0.449114,-0.361013,0.054861,-29.198734,-24.010254,-15.850111
1520,-1.182495,1.135167,-0.897229,-0.260677,0.096502,1.876588,-0.390566,-0.906605,-0.159769,0.639513,-0.446759,0.121546,-30.253777,-22.485424,-16.105873
1540,-1.204011,1.094673,-0.875729,-0.341428,-0.247527,2.161925,-0.427851,-0.888779,-0.164367,0.824777,-0.476883,0.219756,-31.419144,-20.635185,-16.349644
1560,-1.229041,1.048318,-0.857577,-0.440037,-0.555555,2.398226,-0.470169,-0.866585,-0.167246,0.947159,-0.510063,0.288202,-31.419144,-20.635185,-16.349644
1580,-1.259416,0.997049,-0.842185,-0.453974,-1.001002,2.639969,-0.516682,-0.839873,-0.166294,1.176853,-0.609606,0.472416,-32.91959,-18.271931,-16.208689
1600,-1.289598,0.938442,-0.831585,-0.699027,-1.000084,3.155258,-0.567831,-0.806638,-0.164019,1.008459,-1.042956,0.361971,-34.082367,-16.416912,-15.784861
1620,-1.313363,0.860692,-0.827074,-0.943436,-1.143047,4.088203,-0.63043,-0.758294,-0.165976,0.92404,-1.141364,0.22927,-35.922844,-12.835509,-15.002781
1640,-1.342026,0.768219,-0.817018,-0.66845,-0.853326,4.945445,-0.700413,-0.694856,-0.163088,0.835041,-1.138641,0.108325,-35.922844,-12.835509,-15.002781
1660,-1.356427,0.653106,-0.79563,-0.381963,0.4361,6.144986,-0.776021,-0.607656,-0.168951,0.551214,-0.480585,0.155554,-37.738777,-7.620638,-14.07107
1680,-1.351792,0.556208,-0.779159,-0.196738,0.52742,3.51453,-0.828978,-0.52797,-0.184509,0.683836,-0.199951,0.166046,-38.367092,-0.813814,-14.407931
1700,-1.348437,0.507928,-0.767198,0.063213,0.375639,2.284257,-0.852242,-0.486367,-0.19269,-0.191581,0.057321,-0.405088,-38.367092,-0.813814,-14.407931
1720,-1.356245,0.487887,-0.749912,0.693901,0.195837,0.017861,-0.863073,-0.46876,-0.188068,0.713658,0.075358,0.086399,-37.712284,0.892557,-15.18235
1740,-1.345028,0.521239,-0.736686,1.063087,1.120303,-2.04414,-0.845195,-0.497955,-0.194128,0.920467,0.097824,-0.023294,-37.588364,1.058781,-15.476139
1760,-1.336792,0.574458,-0.717162,1.655003,0.73963,-2.572767,-0.816607,-0.54338,-0.194656,1.074557,0.745666,0.05931,-37.588364,1.058781,-15.476139
1780,-1.345921,0.639127,-0.688511,1.997019,0.184472,-3.088022,-0.782408,-0.596495,-0.178972,1.107268,0.746199,0.103868,-37.085709,-2.071348,-16.549215
1800,-1.368216,0.719433,-0.654227,2.227786,-0.175314,-4.004065,-0.736798,-0.658958,-0.151337,1.052365,0.65638,0.059311,-36.673576,-5.599152,-16.649773
1820,-1.406082,0.814373,-0.614137,2.298679,-0.654356,-4.594363,-0.677035,-0.727295,-0.112537,0.748889,0.365906,0.01424,-35.785431,-11.097631,-15.803862
1840,-1.457326,0.918041,-0.566467,2.182226,-0.782672,-5.115644,-0.603472,-0.794413,-0.068771,0.493456,0.282618,-0.012497,-35.785431,-11.097631,-15.803862
1860,-1.517896,1.029621,-0.509987,1.959545,-0.543754,-5.618908,-0.514423,-0.857104,-0.027239,0.29459,0.129763,-0.048414,-33.591194,-18.315634,-13.772654
1880,-1.588637,1.150327,-0.436755,1.679011,-0.170016,-6.217072,-0.408124,-0.912897,0.007282,0.094602,-0.151983,-0.054813,-30.703236,-23.590454,-12.422503
1900,-1.701996,1.278896,-0.324734,1.336597,-0.627104,-6.735633,-0.285299,-0.957699,0.037648,0.085058,-0.253727,-0.153263,-30.703236,-23.590454,-12.422503
1920,-1.971684,1.406344,-0.066244,1.089401,-1.003031,-6.839515,-0.150732,-0.986508,0.063886,0.005652,-0.470767,-0.241453,-27.17033,-28.581656,-10.794487
1940,-2.896846,1.480624,0.843834,1.100197,-1.071065,-6.07659,-0.02182,-0.995937,0.087366,-0.301865,-0.763935,-0.134516,-21.170467,-33.787445,-9.048697
1960,2.41788,1.432142,1.789122,0.642437,-1.692416,-5.313555,0.091519,-0.990403,0.103568,-0.618832,-1.009292,-0.088248,-21.170467,-33.787445,-9.048697
1980,2.054438,1.351494,2.121335,-0.125998,-1.723044,-4.647884,0.192597,-0.97605,0.101161,-0.897218,-1.130762,-0.077266,-15.561222,-37.079315,-7.39131
2000,1.879888,1.277693,2.27019,-0.36106,-1.441337,-3.845881,0.275233,-0.957352,0.087889,-1.235301,-0.988953,-0.095,-10.739752,-38.845661,-6.879766
2020,1.784537,1.212447,2.342685,-0.192512,-1.238086,-3.160398,0.342748,-0.936477,0.074395,-1.527745,-0.711915,-0.155252,-10.739752,-38.845661,-6.879766
2040,1.7422,1.166198,2.368132,0.022513,-0.74198,-1.819458,0.387881,-0.91926,0.067143,-1.663913,-0.593252,-0.23026,-6.977721,-39.701073,-6.840689
2060,1.718295,1.148527,2.382173,-0.277914,-0.475483,-0.396366,0.405382,-0.912161,0.060231,-1.779008,-0.510462,-0.281605,-5.165083,-39.990894,-6.76085
2080,1.691114,1.157308,2.405406,-0.617874,-0.074636,0.835959,0.398901,-0.915725,0.048228,-1.754706,-0.389131,-0.190486,-5.165083,-39.990894,-6.76085
2100,1.698667,1.193659,2.413306,-0.163821,1.238017,2.38636,0.365254,-0.929723,0.046962,-1.855443,-0.078181,0.215688,-5.671496,-39.824768,-7.31306
2120,1.753949,1.231264,2.388045,0.004363,1.657963,0.771408,0.327475,-0.942911,0.060658,0.149942,-0.207037,0.54475,-7.940972,-39.373959,-7.634857
2140,1.792073,1.218174,2.404979,-0.269588,2.873399,-0.396601,0.33694,-0.93847,0.075798,-0.212932,-1.896582,0.210213,-7.940972,-39.373959,-7.634857
2160,1.796386,1.24881,2.428661,-1.249962,1.274847,1.899649,0.308433,-0.948609,0.070784,0.377739,-1.359771,0.688768,-7.080147,-39.38966,-8.365702
2180,1.692205,1.298199,2.569569,-3.144681,1.395136,2.123319,0.267252,-0.963075,0.032607,0.149664,0.188676,-0.461562,-8.236534,-38.928738,-9.400618
2200,1.555503,1.348046,2.730328,-0.669509,0.456369,2.414053,0.220887,-0.975293,-0.003378,-0.176256,0.645887,-1.764154,-10.35855,-37.429501,-12.782473
2220,1.612808,1.389218,2.656469,0.962955,-0.978903,2.0042,0.180422,-0.98356,0.007584,-0.051898,-0.033408,0.252517,-10.35855,-37.429501,-12.782473
2240,1.709778,1.431324,2.546474,0.276071,-0.557804,2.209814,0.13768,-0.99029,0.019259,-0.222244,-0.344885,0.705152,-13.802708,-36.677826,-11.656797
2260,1.622229,1.470182,2.630989,-1.173618,0.15381,1.599029,0.100312,-0.994943,0.005164,-0.354859,-0.214774,0.432809,-15.367913,-36.007282,-11.788198
2280,1.301009,1.489506,2.963449,-1.30807,0.499934,0.877511,0.078264,-0.996698,-0.021642,-0.175142,0.192071,-0.371012,-15.367913,-36.007282,-11.788198
2300,1.125111,1.502888,-3.139566,0.146686,-0.104946,0.839421,0.061228,-0.997695,-0.029251,0.035284,0.244689,-0.75386,-16.309385,-35.108433,-13.155245
2320,1.036225,1.51865,-3.057999,-0.014166,-0.369975,0.884893,0.044851,-0.998641,-0.026555,0.105265,-0.129167,0.293157,-17.341793,-34.559414,-13.28789
2340,0.580835,1.529763,-2.605539,-0.517631,-0.109634,1.189883,0.02251,-0.999158,-0.034294,0.101102,-0.094027,0.072335,-17.341793,-34.559414,-13.28789
2360,-0.034468,1.529542,-1.994547,-0.187248,-0.331937,1.185249,-0.001421,-0.999149,-0.041218,0.002413,0.000355,-0.204311,-18.326599,-33.98035,-13.458475
2380,-0.53435,1.519862,-1.501973,-0.1791,-0.405142,1.227867,-0.025929,-0.998703,-0.043815,0.157597,-0.155731,0.011863,-19.643566,-33.193123,-13.564866
2400,-0.830901,1.499415,-1.213839,-0.210567,-0.46175,1.390824,-0.052673,-0.997453,-0.048085,0.177216,-0.162718,0.002828,-19.643566,-33.193123,-13.564866
2420,-1.023778,1.47323,-1.030329,-0.154676,-0.505871,1.562462,-0.083197,-0.995244,-0.050668,0.121878,-0.154704,0.07139,-21.08346,-32.3232,-13.503967
2440,-1.141483,1.442583,-0.922434,-0.202928,-0.522215,1.679583,-0.116259,-0.991792,-0.053222,0.103426,-0.139205,0.139953,-21.08346,-32.3232,-13.503967
2460,-1.215025,1.407943,-0.857872,-0.235032,-0.462925,1.845764,-0.151981,-0.986769,-0.056474,0.138477,-0.121996,0.143098,-23.640207,-30.618402,-13.240575
2480,-1.270945,1.369112,-0.810161,-0.208825,-0.445098,2.059987,-0.191381,-0.979731,-0.05917,0.195227,-0.145086,0.147518,-24.864178,-29.672169,-13.152711
2500,-1.315464,1.325066,-0.771684,-0.177997,-0.282355,2.355233,-0.235378,-0.96996,-0.061441,0.215923,-0.142116,0.243966,-26.840286,-27.962997,-13.012635
2520,-1.34834,1.274821,-0.739774,-0.195624,0.006958,2.623788,-0.284485,-0.956518,-0.064351,0.286316,-0.284861,0.155781,-26.840286,-27.962997,-13.012635
2540,-1.368916,1.221121,-0.716738,-0.188288,0.048915,2.746347,-0.335635,-0.939484,-0.068694,0.442751,-0.384124,0.017852,-28.923222,-25.772341,-13.072581
2560,-1.392664,1.164391,-0.692677,-0.050999,-0.135677,2.953256,-0.389054,-0.918548,-0.070046,0.657746,-0.389451,0.01339,-30.96146,-23.212257,-13.19992
2580,-1.419973,1.104252,-0.670522,-0.008209,-0.571148,3.087482,-0.444697,-0.893128,-0.067584,0.87858,-0.549057,-0.083036,-30.96146,-23.212257,-13.19992
2600,-1.457561,1.044722,-0.650628,0.092429,-1.126304,2.874416,-0.498926,-0.864785,-0.056739,1.322397,-0.625144,0.139884,-33.832779,-19.278112,-12.464193
2620,-1.49081,0.982571,-0.633065,0.126468,-0.720557,3.566106,-0.553112,-0.831927,-0.044336,1.395931,-1.370283,0.193017,-35.162663,-17.269285,-11.705458
2640,-1.511445,0.875354,-0.619599,0.232962,-0.415372,6.42626,-0.639597,-0.76777,-0.038005,1.033792,-2.040839,0.105205,-35.162663,-17.269285,-11.705458
2660,-1.527043,0.735984,-0.601878,-0.007026,0.223339,7.174,-0.740461,-0.671317,-0.032418,0.787031,-1.408746,-0.35459,-37.200363,-12.740555,-11.201337
2680,-1.519015,0.602907,-0.592377,0.310497,0.871437,5.833207,-0.822587,-0.567039,-0.042633,0.839966,-0.619759,-0.328522,-39.019653,-4.710302,-11.266693
2700,-1.514232,0.532897,-0.574867,0.617387,0.507749,2.806474,-0.859962,-0.50803,-0.048695,0.560065,-0.420955,-0.001827,-39.019653,-4.710302,-11.266693
2720,-1.506097,0.481406,-0.566475,0.117332,0.68871,1.944691,-0.88449,-0.463026,-0.057306,0.439788,0.013075,0.05134,-39.045135,0.328712,-12.125514
2740,-1.489845,0.48463,-0.565088,0.15591,0.848591,-1.185741,-0.88195,-0.465881,-0.071551,0.663017,0.059646,-0.045606,-36.853828,1.186821,-13.843699
2760,-1.475238,0.531112,-0.563555,0.266574,0.629294,-2.917093,-0.858311,-0.506493,-0.082269,0.950718,0.472481,0.072244,-36.853828,1.186821,-13.843699
2780,-1.467962,0.603831,-0.570108,0.00894,0.049708,-3.922484,-0.818818,-0.5678,-0.0845,1.115586,0.659978,0.109921,-36.519424,-0.929949,-14.721694
2800,-1.460505,0.685506,-0.579279,0.148224,0.097968,-4.209922,-0.769395,-0.633065,-0.085204,1.11609,0.684365,0.099806,-36.109467,-5.073933,-14.886997
2820,-1.457674,0.778211,-0.585879,0.32752,-0.230997,-4.9204,-0.707619,-0.702006,-0.080391,0.724205,0.492335,0.2714,-36.109467,-5.073933,-14.886997
2840,-1.460203,0.886844,-0.594354,0.282314,-0.58099,-5.761271,-0.628001,-0.775081,-0.069737,0.715907,0.386272,0.261052,-35.106926,-9.962545,-14.815955
2860,-1.464961,1.012313,-0.612195,0.09648,-1.203558,-6.564095,-0.526935,-0.84806,-0.055978,0.587848,0.149024,0.193353,-33.152138,-15.887139,-14.134918
2880,-1.467947,1.146883,-0.639744,0.06751,-1.405408,-6.803939,-0.409157,-0.911486,-0.042231,0.399422,0.054858,0.167109,-33.152138,-15.887139,-14.134918
2900,-1.469623,1.283312,-0.670363,0.214909,-1.607085,-6.857008,-0.282091,-0.95896,-0.028638,0.060945,-0.165842,0.155377,-29.847675,-22.239534,-12.875582
2920,-1.454574,1.41983,-0.720664,0.164282,-1.724673,-6.799586,-0.149379,-0.988626,-0.01744,-0.17423,-0.363302,0.280364,-25.246841,-27.98436,-11.433894
2940,-0.979981,1.549669,-1.228551,0.169615,-1.561964,-6.533154,-0.017545,-0.999777,-0.011768,-0.34981,-0.441156,0.27602,-25.246841,-27.98436,-11.433894
2960,1.491174,1.46131,2.549017,0.253458,-1.752422,-6.249622,0.108921,-0.994012,-0.008691,-0.665303,-0.969992,0.244256,-19.674997,-32.569576,-10.167521
2980,1.52924,1.346079,2.478805,0.210205,-1.380585,-5.344969,0.222638,-0.974857,-0.009257,-1.177197,-1.518139,0.331798,-13.734619,-35.779488,-9.08019
3000,1.528686,1.262245,2.462324,-0.147211,-0.431643,-3.490268,0.30341,-0.952774,-0.012784,-1.508701,-1.722259,0.378125,-13.734619,-35.779488,-9.08019
3020,1.497262,1.213715,2.497928,-1.080448,0.284056,-1.708025,0.348597,-0.936921,-0.02568,-2.859537,-1.038009,0.280258,-8.909594,-37.385872,-8.612592
3040,1.460033,1.191236,2.547502,-0.668177,0.82951,-0.851546,0.368242,-0.928827,-0.040955,-3.313234,-0.074896,-0.382278,-6.627888,-37.611137,-9.629889
3060,1.497442,1.187057,2.546194,0.212601,2.116815,0.339446,0.373384,-0.927271,-0.027439,-2.940767,0.07522,-0.355587,-6.627888,-37.611137,-9.629889
3080,1.527673,1.209002,2.556121,-0.240913,1.761003,1.549012,0.353624,-0.935263,-0.015259,-1.566804,-0.310052,-0.092972,-5.707766,-37.614395,-10.190188
3100,1.567355,1.199529,2.533672,0.623505,0.401568,-2.421051,0.362794,-0.931868,-0.001248,0.335463,-0.572923,0.467679,-6.276345,-37.432388,-10.520698
3120,1.605274,1.153224,2.510346,0.137968,0.699253,-0.565668,0.405301,-0.914076,0.013979,-0.056958,-2.24286,0.656782,-4.270115,-37.822845,-10.122234
3140,1.537203,1.187678,2.586251,-2.537902,0.332999,2.359774,0.373603,-0.927504,-0.012555,1.136864,-0.783541,1.160276,-4.270115,-37.822845,-10.122234
3160,1.363244,1.245127,2.782997,-2.91437,0.716334,3.694322,0.313076,-0.947437,-0.065929,-0.41238,-0.013073,-0.934025,-5.969825,-36.935307,-12.3047
3180,1.247984,1.299046,2.917745,-0.20516,0.253288,2.540719,0.254553,-0.963303,-0.085151,-0.471915,0.346054,-1.226586,-8.340461,-35.764023,-14.234913
3200,1.234398,1.338761,2.924348,0.919897,-0.467859,1.637875,0.21707,-0.9732,-0.075907,-0.432356,0.511622,-0.369955,-8.340461,-35.764023,-14.234913
3220,1.260131,1.367532,2.884911,0.691467,-0.706848,0.999162,0.192204,-0.979413,-0.061709,-0.18871,-0.004672,0.252414,-10.701145,-35.233337,-13.977074
3240,1.227644,1.385084,2.90831,-0.372054,-0.121184,0.840808,0.173882,-0.982805,-0.062126,-0.235131,-0.376692,0.599769,-10.701145,-35.233337,-13.977074
3260,1.11256,1.388727,3.03263,-1.220669,0.570278,0.487865,0.162385,-0.983471,-0.080097,0.012724,0.099316,0.079258,-12.499573,-34.990639,-13.064344
3280,0.997084,1.388748,-3.122915,-0.549623,0.465897,0.746874,0.152058,-0.983475,-0.098263,0.452022,0.135697,-0.871235,-12.828178,-34.573734,-13.833152
3300,0.933186,1.408583,-3.064838,0.323576,-0.663995,1.273435,0.129771,-0.986872,-0.096139,0.538702,0.095851,-0.626044,-12.828178,-34.573734,-13.833152
3320,0.773211,1.435817,-2.914925,-0.172918,-0.541016,2.034452,0.093989,-0.990904,-0.096308,0.157186,-0.110613,0.233286,-13.921274,-33.888695,-14.457373
3340,0.461999,1.454656,-2.61065,-0.34942,-0.451004,2.055476,0.051652,-0.993263,-0.103731,-0.088624,-0.015755,0.01288,-15.268103,-33.393742,-14.247958
3360,0.106882,1.461482,-2.263583,-0.161992,-0.529781,1.930214,0.011638,-0.994031,-0.108475,-0.088634,-0.089969,0.040466,-17.492287,-32.24889,-14.327953
3380,-0.237576,1.453944,-1.926197,-0.337102,-0.378292,1.908634,-0.027438,-0.993181,-0.113311,0.050372,-0.062468,0.11029,-17.492287,-32.24889,-14.327953
3400,-0.509456,1.43363,-1.658273,-0.222005,-0.306034,1.995161,-0.066687,-0.990607,-0.119372,0.08634,-0.037347,-0.017804,-19.52529,-31.086327,-14.271108
3420,-0.729808,1.407293,-1.442839,-0.152225,-0.375981,2.105016,-0.108527,-0.986663,-0.121317,0.061408,-0.201386,0.167063,-21.468342,-29.759901,-14.308039
3440,-0.879557,1.372249,-1.296247,-0.324313,-0.194196,2.210247,-0.151969,-0.980354,-0.125742,0.075232,-0.184898,0.262583,-21.468342,-29.759901,-14.308039
3460,-0.979558,1.331377,-1.195053,-0.314327,-0.016184,2.328582,-0.196884,-0.971476,-0.132179,0.130768,-0.244466,0.136314,-23.46904,-28.218105,-14.289993
3480,-1.060386,1.287853,-1.112636,-0.191321,-0.074496,2.468369,-0.2436,-0.960238,-0.136391,0.259118,-0.350965,0.140892,-25.392658,-26.382198,-14.507027
3500,-1.126453,1.239385,-1.04467,-0.217359,-0.040313,2.73578,-0.293782,-0.945584,-0.139869,0.441502,-0.443546,0.172248,-25.392658,-26.382198,-14.507027
3520,-1.184147,1.183516,-0.985978,-0.128493,-0.243067,3.132265,-0.349791,-0.92594,-0.142415,0.652541,-0.526941,0.089024,-27.371094,-24.263187,-14.607607
3540,-1.248308,1.120209,-0.928628,0.051601,-0.837461,3.509634,-0.413044,-0.900192,-0.13802,0.796894,-0.573273,0.089696,-29.587669,-21.57645,-14.501307
3560,-1.316818,1.054385,-0.881602,0.080331,-1.523015,3.324115,-0.477923,-0.869597,-0.124061,1.191027,-0.685701,0.177787,-29.587669,-21.57645,-14.501307
3580,-1.37786,0.987962,-0.847702,0.19548,-1.819436,3.71636,-0.540181,-0.834906,-0.105533,1.626713,-1.131067,0.47443,-32.146526,-18.402554,-13.386864
3600,-1.435287,0.900775,-0.822952,-0.238038,-1.610353,5.028389,-0.61531,-0.783808,-0.083894,1.885269,-1.454397,0.550676,-34.18309,-15.508164,-11.927885
3620,-1.46182,0.764646,-0.808086,-0.304559,-0.22909,7.535811,-0.717347,-0.692281,-0.078485,0.985612,-1.118128,-0.30001,-34.18309,-15.508164,-11.927885
3640,-1.458309,0.617973,-0.790342,0.120274,1.114118,6.991329,-0.809904,-0.579384,-0.09149,0.701597,-0.641457,-0.310106,-37.090332,-8.08423,-10.498268
3660,-1.450906,0.514946,-0.769504,0.148274,0.611954,3.671052,-0.864072,-0.492488,-0.104093,1.067609,0.149516,-0.125719,-37.674408,-0.247131,-11.482119
3680,-1.455861,0.479907,-0.758392,0.156869,-0.163123,1.411947,-0.881185,-0.461697,-0.101727,0.322393,0.123333,-0.247455,-37.497307,2.359067,-11.817271
3700,-1.466746,0.47296,-0.748834,0.527901,-0.225695,-0.751518,-0.885409,-0.455524,-0.092461,0.595828,0.370593,-0.081734,-37.497307,2.359067,-11.817271
3720,-1.473639,0.527786,-0.741596,0.617523,-0.455843,-3.554837,-0.85985,-0.503622,-0.083804,0.91707,0.414083,-0.056836,-37.565777,2.470096,-11.574636
3740,-1.486322,0.616542,-0.737817,0.550882,-0.500098,-4.769673,-0.812974,-0.578217,-0.06884,1.077607,0.600312,0.053047,-37.730148,-1.86408,-11.145504
3760,-1.50191,0.714856,-0.731868,0.691234,-0.614721,-4.857894,-0.753397,-0.655508,-0.051981,1.180246,0.768774,-0.050833,-37.730148,-1.86408,-11.145504
3780,-1.524608,0.815417,-0.716591,0.899499,-0.663675,-5.198512,-0.684834,-0.728012,-0.031654,1.045948,0.718475,-0.041222,-37.231487,-7.540686,-10.402678
3800,-1.557702,0.929735,-0.694525,0.828127,-0.845274,-5.962669,-0.597995,-0.801461,-0.007831,0.631381,0.38009,0.050189,-35.746819,-13.635164,-9.354599
3820,-1.5934,1.060018,-0.672741,0.344286,-0.896222,-6.844726,-0.488732,-0.872364,0.011049,0.466622,0.1357,0.164427,-35.746819,-13.635164,-9.354599
3840,-1.627354,1.204282,-0.656331,-0.022269,-0.982232,-7.373893,-0.357791,-0.933582,0.020257,0.279101,-0.060696,0.038367,-32.632107,-20.479961,-8.184005
3860,-1.692731,1.350868,-0.61219,0.007581,-1.211651,-7.297178,-0.21654,-0.975913,0.026536,0.041049,-0.110131,-0.057236,-27.618462,-27.129892,-7.242294
3880,-1.961815,1.490511,-0.36199,0.063509,-0.955919,-7.114812,-0.074146,-0.996779,0.030566,-0.227063,-0.336885,0.018857,-27.618462,-27.129892,-7.242294
3900,2.033862,1.495682,1.910393,0.210327,-0.903683,-6.96004,0.067141,-0.99718,0.033522,-0.466295,-0.65582,0.032946,-21.390148,-32.442867,-6.417417
3920,1.736054,1.366007,2.185073,0.078427,-1.425343,-6.486236,0.200591,-0.979104,0.033454,-0.889495,-1.460532,0.093835,-14.450401,-36.196293,-5.68115
3940,1.652339,1.251829,2.247119,-0.181389,-0.911794,-5.185548,0.312544,-0.94956,0.025542,-1.233656,-1.737528,0.172303,-14.450401,-36.196293,-5.68115
3960,1.62023,1.175032,2.274889,-0.285459,0.141421,-3.10129,0.385042,-0.922702,0.019049,-1.596071,-1.888073,0.243631,-11.034639,-37.878502,-5.469223
3980,1.600237,1.142241,2.311041,-0.973655,0.935186,-0.758127,0.415377,-0.909567,0.012233,-2.50339,-0.776194,0.213582,-7.808741,-38.597511,-5.97599
4000,1.562827,1.14234,2.376693,-1.379436,1.010248,0.310977,0.415454,-0.909608,-0.003311,-2.513278,-0.377913,-0.034088,-7.808741,-38.597511,-5.97599
4020,1.555858,1.162116,2.408349,-0.190429,1.275816,1.493735,0.397354,-0.917646,-0.005936,-2.736939,0.140073,-0.561904,-7.55194,-38.3489,-7.667239
4040,1.600333,1.194887,2.394108,0.544622,1.487131,1.290492,0.366958,-0.930174,0.010842,-1.053207,0.114073,0.390174,-8.307943,-38.095566,-8.134031
4060,1.637379,1.148907,2.375475,0.575002,0.793234,-3.868939,0.408578,-0.912317,0.027245,0.072013,-0.959616,0.505257,-8.621309,-38.042946,-8.053814
4080,1.653725,1.141983,2.364171,-0.912271,-0.376148,1.938527,0.414363,-0.90946,0.034442,0.893849,-2.352076,1.479352,-8.621309,-38.042946,-8.053814
4100,1.507714,1.2021,2.532459,-4.001023,1.162206,3.640478,0.359683,-0.932798,-0.02272,0.286695,-0.260683,0.229415,-6.8634,-38.45369,-7.788702
4120,1.370756,1.272589,2.720463,-0.614957,2.356851,3.104342,0.287948,-0.955865,-0.058382,-0.603271,0.782464,-2.524321,-10.438744,-36.54261,-11.921694
4140,1.373284,1.32497,2.715726,0.761685,-0.332473,2.591445,0.238627,-0.969937,-0.047754,-0.007029,0.509869,0.030283,-10.438744,-36.54261,-11.921694
4160,1.372024,1.376529,2.712983,0.315014,-0.44572,2.592766,0.189247,-0.981189,-0.03812,-0.073494,-0.176648,0.342549,-13.261889,-35.507542,-12.239008
4180,1.280817,1.425989,2.801218,-0.412452,0.007986,2.431772,0.138277,-0.989534,-0.041261,-0.313006,-0.412032,0.509217,-16.047081,-34.517345,-11.726062
4200,1.058994,1.454544,3.029229,-0.97607,0.239925,1.504893,0.101128,-0.99325,-0.056806,-0.446999,0.073985,0.234114,-16.047081,-34.517345,-11.726062
4220,0.85186,1.462322,-3.042754,-0.397037,0.018087,0.815387,0.081468,-0.994122,-0.0713,-0.200776,0.137875,-0.434987,-18.619604,-32.755745,-12.916197
4240,0.765733,1.473932,-2.963281,0.206192,-0.497977,0.709764,0.067029,-0.995312,-0.069718,0.080417,0.089612,-0.167129,-18.619604,-32.755745,-12.916197
4260,0.584729,1.484211,-2.787693,-0.322776,-0.186262,1.074392,0.047733,-0.996254,-0.07211,0.087673,-0.075264,0.301526,-19.457991,-32.34375,-12.717113
4280,0.308797,1.486858,-2.512905,-0.307504,-0.081001,1.089362,0.02548,-0.996479,-0.079874,-0.065687,0.062443,-0.13442,-20.541418,-31.598381,-12.885999
4300,0.04571,1.487705,-2.251758,-0.107706,-0.202962,1.074764,0.003792,-0.99655,-0.082909,0.029457,-0.00136,-0.01693,-21.070251,-31.216209,-12.963378
4320,-0.206056,1.482106,-2.004786,-0.251924,-0.318327,1.07768,-0.018122,-0.99607,-0.0867,0.084055,-0.083703,-0.007569,-21.070251,-31.216209,-12.963378
4340,-0.436579,1.470441,-1.779989,-0.172632,-0.358191,1.269605,-0.042363,-0.994969,-0.09079,0.127034,-0.114513,0.004685,-22.161911,-30.454842,-12.954106
4360,-0.653701,1.453071,-1.569208,-0.154036,-0.362488,1.518061,-0.071427,-0.993078,-0.093239,0.138138,-0.113855,0.107567,-22.161911,-30.454842,-12.954106
4380,-0.819934,1.426925,-1.407032,-0.31888,-0.173907,1.727729,-0.104822,-0.989668,-0.09782,0.101907,-0.087358,0.195492,-24.156855,-28.954851,-12.826514
4400,-0.932037,1.394447,-1.294884,-0.331417,-0.021214,1.873722,-0.140847,-0.984491,-0.104595,0.118859,-0.131964,0.024304,-25.182413,-28.038031,-12.890743
4420,-1.024766,1.358801,-1.201056,-0.20621,-0.040052,2.047619,-0.179816,-0.977613,-0.109266,0.159384,-0.220797,0.0744,-26.480259,-26.72278,-13.082249
4440,-1.099428,1.318945,-1.125139,-0.223746,-0.058328,2.236183,-0.222022,-0.968453,-0.113162,0.219382,-0.322075,0.148975,-26.480259,-26.72278,-13.082249
4460,-1.160119,1.27435,-1.063715,-0.177439,-0.067082,2.466418,-0.267834,-0.956381,-0.116625,0.317394,-0.405833,0.22426,-28.137087,-24.903223,-13.213262
4480,-1.211619,1.223887,-1.010435,-0.157796,-0.038199,2.775464,-0.318297,-0.940428,-0.119509,0.431059,-0.436632,0.245196,-29.905519,-22.704472,-13.289973
4500,-1.258622,1.168507,-0.963099,-0.067321,-0.244124,2.926878,-0.372603,-0.920167,-0.120249,0.509306,-0.418578,0.109308,-29.905519,-22.704472,-13.289973
4520,-1.301436,1.111632,-0.926656,-0.102851,-0.597802,2.980006,-0.427218,-0.896423,-0.117942,0.892809,-0.587509,-0.081399,-31.774406,-20.024654,-13.261103
4540,-1.350312,1.050942,-0.890583,0.222682,-1.12317,3.208472,-0.484728,-0.867891,-0.108641,1.349032,-0.701857,-0.12613,-33.656506,-17.062984,-12.749532
4560,-1.414399,0.990443,-0.857527,0.271517,-2.076355,3.106034,-0.541627,-0.836269,-0.085407,1.767717,-1.251744,0.063846,-33.656506,-17.062984,-12.749532
4580,-1.473175,0.906961,-0.838727,-0.048499,-2.223752,5.437891,-0.613208,-0.787635,-0.060053,1.846683,-2.473183,0.138712,-35.669495,-13.868389,-11.036822
4600,-1.523862,0.774321,-0.8144,0.449682,-1.318182,7.049006,-0.714109,-0.699231,-0.033541,1.483075,-1.127597,0.053423,-37.935867,-8.426784,-8.735884
4620,-1.542088,0.635969,-0.801957,0.21119,0.14052,6.616337,-0.804165,-0.593957,-0.023093,1.023007,-0.53176,-0.094446,-37.935867,-8.426784,-8.735884
4640,-1.533489,0.540489,-0.798409,-0.298683,0.355947,3.093908,-0.85686,-0.514556,-0.031982,0.976886,0.113036,-0.280411,-39.065235,-0.447628,-7.756521
4660,-1.532288,0.507766,-0.798695,0.03039,0.171059,1.384257,-0.873185,-0.486226,-0.033642,0.31804,0.110936,-0.172504,-38.778595,3.998678,-8.166253
4680,-1.537781,0.503381,-0.786014,0.724238,0.058947,-0.912912,-0.875479,-0.48239,-0.028915,0.462119,0.339736,0.054244,-38.778595,3.998678,-8.166253
4700,-1.542688,0.573127,-0.773585,0.507647,-0.068031,-4.710885,-0.839878,-0.542262,-0.023614,0.926792,0.330119,0.06588,-38.681675,4.652837,-8.278626
4720,-1.54534,0.680853,-0.773432,-0.010098,-0.039962,-5.539704,-0.776784,-0.629456,-0.019779,0.965947,0.558808,0.116443,-38.952629,-0.213232,-8.312876
4740,-1.542317,0.79157,-0.773848,0.337888,0.176806,-5.529452,-0.702444,-0.711458,-0.02001,1.120932,0.752076,-0.141,-38.690113,-4.514206,-8.315873
4760,-1.550783,0.905536,-0.757006,0.833041,0.252431,-5.838637,-0.61714,-0.786756,-0.012353,0.929228,0.658933,0.112908,-38.690113,-4.514206,-8.315873
4780,-1.564066,1.029697,-0.731647,0.7254,0.457717,-6.405639,-0.515067,-0.857143,-0.003467,0.571707,0.278209,0.236667,-36.551918,-13.397736,-8.421081
4800,-1.576808,1.165927,-0.708168,0.447402,0.340042,-7.058262,-0.393891,-0.919154,0.002368,0.395432,0.086284,0.107129,-34.427387,-18.126953,-8.522025
4820,-1.60409,1.3137,-0.676508,0.346068,-0.008345,-7.566784,-0.254132,-0.967132,0.008464,0.217481,-0.104798,-0.099635,-34.427387,-18.126953,-8.522025
4840,-1.735845,1.467487,-0.54998,0.402985,-0.597505,-7.8119,-0.101724,-0.994668,0.016944,0.06817,-0.30033,-0.199317,-29.633286,-25.230068,-8.471628
4860,1.991447,1.510539,1.987805,0.320861,-1.189346,-7.801533,0.054971,-0.998185,0.024591,-0.083367,-0.634276,-0.115869,-23.110069,-31.500751,-7.751378
4880,1.694962,1.360563,2.256731,0.246162,-1.608776,-7.491697,0.207081,-0.977982,0.025845,-0.31258,-1.036086,-0.09541,-23.110069,-31.500751,-7.751378
4900,1.632394,1.223896,2.284181,0.265694,-1.903428,-6.259977,0.339339,-0.940431,0.020929,-0.763045,-1.712782,-0.11738,-15.56292,-36.049202,-6.686325
4920,1.598671,1.131254,2.286982,0.078088,-1.116978,-3.472677,0.42536,-0.904947,0.01186,-1.483664,-2.334876,0.098202,-8.78289,-38.41967,-5.765944
4940,1.586517,1.105996,2.298282,-0.529247,0.61149,-0.013531,0.448189,-0.893911,0.007047,-2.289773,-1.70405,0.562533,-8.78289,-38.41967,-5.765944
4960,1.553644,1.13364,2.367735,-2.085103,1.723819,1.773047,0.423303,-0.905959,-0.007261,-2.941659,-0.372376,0.555464,-6.385712,-38.888226,-5.777977
4980,1.505441,1.167417,2.44835,-0.625917,1.28469,1.464359,0.39169,-0.91974,-0.025636,-3.56268,0.500169,-0.864349,-6.385712,-38.888226,-5.777977
5000,1.581166,1.204499,2.416447,1.170274,2.356775,2.049548,0.358142,-0.93366,0.003714,-1.322329,0.160924,0.525903,-8.406584,-37.981808,-8.553845
5020,1.690862,1.182791,2.346213,1.006681,2.126628,-3.218794,0.375619,-0.925666,0.045317,0.063422,-0.450204,0.646288,-9.405395,-37.765171,-8.472717
5040,1.728433,1.155324,2.339406,-0.318672,1.220523,1.128173,0.398618,-0.914926,0.063363,0.328967,-2.703925,1.22245,-7.002857,-38.440762,-7.728147
5060,1.641872,1.207841,2.458205,-3.583603,1.908896,2.560028,0.354142,-0.934852,0.025213,0.632736,-0.175362,0.461145,-7.002857,-38.440762,-7.728147
5080,1.482404,1.272549,2.679133,-2.533916,2.40063,3.560392,0.292698,-0.955853,-0.02594,-0.083073,0.596326,-1.674225,-8.589841,-37.60218,-9.937168
5100,1.451892,1.32969,2.712408,0.644989,-1.058134,2.598676,0.237091,-0.971074,-0.028325,-0.250641,0.560216,-0.563503,-11.409041,-35.717491,-13.436927
5120,1.487906,1.383959,2.663418,0.658518,-0.528404,2.676613,0.185114,-0.982597,-0.015379,-0.259119,-0.21647,0.429122,-11.409041,-35.717491,-13.436927
5140,1.44194,1.429516,2.700593,-0.563971,-0.372063,1.929702,0.139643,-0.990037,-0.018094,-0.441157,-0.285614,0.621732,-14.481598,-34.957733,-12.437703
5160,1.225474,1.449499,2.919512,-1.341135,0.251649,0.952464,0.113857,-0.992652,-0.040959,-0.438564,0.047172,0.28812,-16.72699,-33.859413,-12.657197
5180,1.046353,1.451871,3.108068,-0.568358,0.415941,0.472236,0.102699,-0.992937,-0.059409,-0.115822,0.154131,-0.388192,-16.72699,-33.859413,-12.657197
5200,0.990593,1.45875,-3.118649,-0.012616,-0.20263,0.473058,0.093514,-0.993729,-0.061294,0.161934,0.059953,-0.197922,-19.946203,-37.158367,-12.378363
5220,0.87412,1.46844,-3.007798,-0.277209,-0.347628,0.909429,0.078368,-0.994766,-0.065564,0.201234,-0.125076,0.030546,-20.553324,-36.804928,-12.440967
5240,0.683336,1.479532,-2.823723,-0.194472,-0.360138,1.036369,0.057543,-0.995838,-0.070675,-0.006579,0.028416,-0.006138,-20.553324,-36.804928,-12.440967
5260,0.460569,1.486986,-2.60544,-0.221515,-0.216722,0.988407,0.037206,-0.99649,-0.074989,-0.046224,-0.029236,0.052528,-21.744942,-36.102875,-12.472338
5280,0.193293,1.488997,-2.341891,-0.270945,-0.239274,1.144949,0.015695,-0.996656,-0.080186,0.127356,-0.104067,0.066011,-22.916618,-35.347939,-12.53679
5300,-0.131166,1.483193,-2.021088,-0.36964,-0.246146,1.448451,-0.011443,-0.996165,-0.086739,0.202666,-0.098515,0.004617,-22.916618,-35.347939,-12.53679
5320,-0.451529,1.468419,-1.704979,-0.197958,-0.2944,1.743893,-0.044594,-0.994764,-0.091956,0.196556,-0.0544,-0.054879,-24.328749,-34.335495,-12.688774
5340,-0.71037,1.444342,-1.45008,-0.214284,-0.281902,1.919681,-0.082243,-0.992015,-0.095613,0.135451,-0.153844,0.057801,-25.831347,-33.20546,-12.72628
5360,-0.887217,1.411857,-1.27797,-0.268135,-0.343692,2.087009,-0.12271,-0.987396,-0.099959,0.131453,-0.194794,0.148665,-27.827574,-31.558788,-12.707802
5380,-1.013776,1.372247,-1.155402,-0.251242,-0.22677,2.345991,-0.16743,-0.980354,-0.104277,0.134639,-0.175652,0.273954,-27.827574,-31.558788,-12.707802
5400,-1.104856,1.326131,-1.063617,-0.248731,0.010193,2.570881,-0.21641,-0.970218,-0.108826,0.151987,-0.244671,0.269669,-29.992992,-29.510244,-12.703745
5420,-1.166862,1.275972,-0.996595,-0.25046,0.189319,2.691327,-0.267187,-0.956853,-0.114206,0.318777,-0.395701,0.146936,-29.992992,-29.510244,-12.703745
5440,-1.213904,1.222478,-0.944905,-0.204713,0.001745,2.871437,-0.31981,-0.939948,-0.119244,0.579545,-0.48504,-0.021793,-33.210575,-25.623789,-13.126242
5460,-1.264904,1.162702,-0.896869,-0.103265,-0.539148,3.264664,-0.378438,-0.917879,-0.119512,0.802052,-0.518538,-0.074335,-34.287842,-24.12571,-13.195206
5480,-1.327362,1.096328,-0.852238,0.100405,-1.447741,3.526921,-0.443395,-0.889536,-0.110122,1.019567,-0.557455,-0.047105,-36.76458,-20.58567,-12.506594
5500,-1.39455,1.027556,-0.811089,0.435403,-1.510115,3.636177,-0.508905,-0.856038,-0.090633,1.442712,-0.599055,0.170253,-36.76458,-20.58567,-12.506594
5520,-1.474029,0.953401,-0.764768,0.898772,-2.419314,3.970279,-0.576205,-0.815389,-0.055933,1.624759,-1.214274,0.122385,-39.30645,-16.581093,-10.57779
5540,-1.554094,0.850835,-0.723033,1.30782,-2.460125,6.21713,-0.659264,-0.751831,-0.011012,1.336418,-2.277054,0.343425,-41.760025,-11.4937,-7.470906
5560,-1.594266,0.690584,-0.697663,0.273353,0.16679,8.842501,-0.770662,-0.636988,0.018091,0.769334,-1.366064,-0.014886,-41.760025,-11.4937,-7.470906
5580,-1.560159,0.522425,-0.707021,-0.58693,1.402643,7.491264,-0.866563,-0.498983,-0.009218,0.575074,-1.137934,0.09833,-43.510628,-1.527658,-6.025831
5600,-1.540656,0.442344,-0.718934,-0.352928,0.203222,1.873886,-0.90334,-0.428059,-0.027236,0.457738,0.436451,-0.338624,-46.884892,3.440388,-5.999211
5620,-1.543948,0.42056,-0.713233,0.508437,0.221229,1.066659,-0.912531,-0.408272,-0.024506,0.045374,-0.030235,-0.32344,-46.884892,3.440388,-5.999211
5640,-1.543105,0.431908,-0.701461,0.367905,0.15819,-1.880869,-0.907821,-0.418604,-0.025145,0.804565,0.148035,0.1006,-46.727249,5.031639,-6.104642
5660,-1.544112,0.499847,-0.706115,-0.371222,-0.273484,-4.004812,-0.877343,-0.479292,-0.023417,1.103326,0.412962,0.206568,-46.933014,2.057695,-6.25122
5680,-1.536214,0.587136,-0.723373,-0.641249,0.149737,-4.458034,-0.832033,-0.553979,-0.028785,1.253389,0.56672,-0.021767,-46.933014,2.057695,-6.25122
5700,-1.523094,0.672407,-0.734946,-0.024713,0.297658,-4.164962,-0.781435,-0.622871,-0.037305,1.254549,0.746253,-0.129611,-46.817432,-3.931227,-6.220387
5720,-1.522406,0.762755,-0.735483,0.244693,-0.117566,-4.834812,-0.722089,-0.690916,-0.03497,0.815793,0.595762,0.135845,-45.880482,-9.944773,-6.488647
5740,-1.524738,0.868877,-0.740041,-0.025907,-0.345441,-5.645147,-0.645,-0.763604,-0.029729,0.672816,0.454705,0.163579,-45.880482,-9.944773,-6.488647
5760,-1.521141,0.993509,-0.754372,-0.14248,-0.463761,-6.567067,-0.54508,-0.837946,-0.027088,0.69158,0.414057,0.069126,-44.418938,-18.194759,-5.937008
5780,-1.519521,1.134248,-0.772448,-0.02958,-0.910648,-7.311786,-0.422259,-0.906216,-0.02167,0.601671,0.221707,0.034167,-40.015404,-26.636402,-5.348733
5800,-1.530217,1.286403,-0.791261,0.050452,-1.694159,-7.740182,-0.280344,-0.959832,-0.011382,0.519907,-0.025016,0.011794,-40.015404,-26.636402,-5.348733
5820,-1.554972,1.44202,-0.80673,0.068122,-2.099321,-7.74984,-0.128405,-0.99172,-0.002032,0.316927,-0.344904,0.109179,-33.156403,-35.008167,-3.797464
5840,1.601961,1.546525,2.277756,-0.00547,-2.032479,-7.592253,0.024257,-0.999705,0.000756,-0.105327,-0.808461,0.226417,-28.954081,-38.640747,-2.809473
5860,1.548838,1.398439,2.296181,-0.070546,-1.539396,-7.195868,0.171463,-0.985183,-0.003766,-0.611863,-1.457169,0.230069,-28.954081,-38.640747,-2.809473
5880,1.538302,1.270028,2.282782,-0.016776,-0.869382,-5.843448,0.296098,-0.955109,-0.009625,-1.349702,-2.320114,0.361508,-14.745964,-46.053802,-0.971168
5900,1.531663,1.181431,2.292451,-0.656167,0.79221,-3.389173,0.379311,-0.92515,-0.014851,-2.219124,-1.977148,0.82285,-6.987854,-47.850494,-0.916147
5920,1.509497,1.149999,2.355935,-1.713629,2.364172,-0.354935,0.407721,-0.912764,-0.025024,-2.881934,-1.234804,0.33612,-5.070148,-48.070343,-1.695605
5940,1.468405,1.175111,2.456136,-1.704963,2.369623,1.940241,0.383422,-0.922733,-0.039397,-3.627013,-0.015454,-0.111818,-5.070148,-48.070343,-1.695605
5960,1.485894,1.215062,2.485257,0.423014,2.656401,2.383038,0.347024,-0.937391,-0.029534,-3.35357,0.183561,-0.359367,-5.829727,-47.78933,-4.64047
5980,1.589853,1.201237,2.422787,1.289097,2.057884,-3.409965,0.361139,-0.932487,0.006883,0.079947,0.174201,-0.015321,-5.829727,-47.78933,-4.64047
6000,1.657962,1.139176,2.36623,1.080417,0.094212,-0.583948,0.416755,-0.908289,0.036419,-0.332404,-1.78684,0.673817,-5.532671,-47.856972,-4.294055
6020,1.587834,1.192043,2.445579,-3.410704,1.204751,3.11545,0.369709,-0.929126,0.0063,1.11723,-0.428112,0.542666,-3.659441,-48.106125,-3.42758
6040,1.397244,1.264804,2.692958,-2.960408,2.828169,4.489042,0.296715,-0.953548,-0.052019,0.227638,0.315578,-0.923399,-7.66995,-47.214996,-7.159299
6060,1.356991,1.349757,2.744374,1.096588,-1.241213,4.165905,0.214252,-0.97567,-0.046519,-0.17937,0.476998,-0.224248,-7.66995,-47.214996,-7.159299
6080,1.370617,1.426758,2.725583,0.846041,-0.025942,3.479558,0.140674,-0.989644,-0.028542,-0.462436,0.097753,0.380929,-13.376445,-45.601246,-8.996465
6100,1.27764,1.480108,2.813323,-0.333201,-0.317579,2.174274,0.0867,-0.995891,-0.026171,-0.691848,-0.175588,0.651018,-18.165009,-44.140392,-7.810101
6120,0.915729,1.493077,-3.108097,-1.347354,0.142195,0.700042,0.06157,-0.996981,-0.0473,-0.545823,0.042269,0.378507,-18.165009,-44.140392,-7.810101
6140,0.682301,1.475861,-2.865953,-1.122829,0.512623,-0.010185,0.059774,-0.995497,-0.073571,-0.031164,0.071486,-0.361869,-20.330561,-43.014168,-8.705709
6160,0.607399,1.475179,-2.788581,0.136396,-0.209354,0.506497,0.054489,-0.995432,-0.078395,0.364685,-0.027105,-0.400166,-20.44799,-42.599121,-10.321535
6180,0.431487,1.484837,-2.620915,-0.127044,-0.525963,1.089871,0.035906,-0.996308,-0.077985,0.187666,-0.116958,0.126233,-20.44799,-42.599121,-10.321535
6200,0.154908,1.485769,-2.354124,-0.29945,-0.514886,1.052278,0.013103,-0.996387,-0.083908,-0.055538,0.055149,0.042572,-21.418297,-42.185493,-10.048887
6220,-0.089402,1.481507,-2.118293,-0.217017,-0.444246,0.981049,-0.007961,-0.996016,-0.088814,-0.044727,0.008162,-0.020088,-20.721773,-44.305519,-13.323979
6240,-0.302576,1.47308,-1.912582,-0.223489,-0.408738,1.075878,-0.029071,-0.99523,-0.093129,-0.023618,0.007376,-0.015773,-20.721773,-44.305519,-13.323979
6260,-0.515114,1.459327,-1.707236,-0.209351,-0.431956,1.378509,-0.0548,-0.993794,-0.096804,0.186926,-0.112789,0.02904,-22.22784,-43.563343,-13.343826
6280,-0.720817,1.436361,-1.509036,-0.230676,-0.440534,1.845173,-0.08846,-0.990977,-0.100693,0.243703,-0.064916,0.074158,-24.135532,-42.5439,-13.318861
6300,-0.895739,1.402424,-1.339321,-0.242691,-0.292173,2.223453,-0.130823,-0.985859,-0.104727,0.198237,-0.029614,0.101248,-24.135532,-42.5439,-13.318861
6320,-1.021431,1.360425,-1.214993,-0.244637,-0.092296,2.473899,-0.178096,-0.977953,-0.109036,0.165019,-0.114164,0.097104,-26.789295,-40.923027,-13.324379
6340,-1.11058,1.312425,-1.12365,-0.220173,0.029735,2.690275,-0.228922,-0.966808,-0.113481,0.149973,-0.219487,0.144166,-29.764935,-38.749874,-13.505377
6360,-1.174037,1.259449,-1.055833,-0.253291,0.095434,2.852336,-0.282544,-0.951922,-0.11838,0.202832,-0.340315,0.174044,-29.764935,-38.749874,-13.505377
6380,-1.220977,1.203247,-1.006848,-0.256631,-0.159235,2.964149,-0.337567,-0.933211,-0.123152,0.42854,-0.506761,0.101897,-32.836555,-36.064434,-13.820881
6400,-1.267416,1.142069,-0.964533,-0.17339,-0.483463,3.291335,-0.396729,-0.909495,-0.124194,0.674698,-0.554799,0.129016,-35.958584,-32.896317,-13.953928
6420,-1.313966,1.073908,-0.928063,-0.123227,-0.827797,3.61313,-0.461057,-0.87907,-0.121088,0.991132,-0.720097,0.006341,-35.958584,-32.896317,-13.953928
6440,-1.378124,1.001774,-0.883503,0.656826,-1.714194,3.819928,-0.528839,-0.842428,-0.103172,1.360626,-0.781672,0.179726,-39.381958,-28.965488,-13.41497
6460,-1.494864,0.929461,-0.81834,1.693733,-4.123954,3.767879,-0.596542,-0.801297,-0.045384,1.845093,-1.627383,0.395893,-43.049248,-24.466761,-10.864584
6480,-1.605658,0.838051,-0.767349,1.236591,-2.33999,5.897516,-0.668506,-0.743341,0.023314,2.061832,-2.538153,0.667848,-43.049248,-24.466761,-10.864584
6500,-1.593391,0.678625,-0.763319,-0.046875,1.970241,8.400324,-0.778238,-0.627723,0.017587,1.099878,-1.081353,-0.165506,-46.747276,-18.97999,-4.934719
6520,-1.554825,0.530992,-0.764821,0.203717,1.771088,6.521112,-0.862195,-0.506389,-0.013771,0.583204,-0.479222,-0.902153,-49.090729,-11.370613,-5.541563
6540,-1.523504,0.448882,-0.754213,0.513036,1.975891,2.424727,-0.899925,-0.433959,-0.042591,0.718422,0.347564,-0.349392,-49.999935,-1.438583,-8.236297
6560,-1.505217,0.430026,-0.736135,0.915761,1.177735,0.564815,-0.907001,-0.416895,-0.059566,0.207614,0.267801,-0.070653,-49.999935,-1.438583,-8.236297
6580,-1.503288,0.449385,-0.720855,0.49716,-0.048495,-2.387746,-0.898663,-0.434411,-0.060759,0.748257,0.444086,0.080138,-49.127674,-3.473215,-10.84109
6600,-1.521583,0.541554,-0.726683,-0.223455,-1.29592,-5.574193,-0.855871,-0.515468,-0.042154,1.233145,0.584087,-0.03182,-48.835812,-6.469097,-10.785865
6620,-1.533437,0.656356,-0.73657,0.064379,-0.615175,-5.508524,-0.791668,-0.610234,-0.02959,1.233944,0.64362,-0.245373,-48.835812,-6.469097,-10.785865
6640,-1.55262,0.756845,-0.726098,0.707193,-0.656335,-4.905383,-0.726886,-0.686631,-0.013214,1.439121,0.694886,-0.216935,-47.369995,-14.542109,-9.366533
6660,-1.579937,0.861293,-0.709836,0.432943,-0.845866,-5.451463,-0.65143,-0.758686,0.005955,0.947328,0.520481,0.119396,-44.806816,-21.660875,-8.141028
6680,-1.605777,0.979643,-0.700362,0.026435,-0.950912,-6.240695,-0.556978,-0.830298,0.019491,0.646288,0.292899,0.097208,-44.806816,-21.660875,-8.141028
6700,-1.633416,1.115283,-0.691585,-0.175322,-1.019713,-7.088165,-0.439061,-0.898035,0.02753,0.582967,0.171671,0.08894,-40.621773,-29.09771,-6.805582
6720,-1.672329,1.263329,-0.673367,-0.325964,-1.132714,-7.53598,-0.301087,-0.953103,0.030676,0.269334,-0.053657,0.058588,-33.903076,-36.877277,-5.811062
6740,-1.752497,1.415264,-0.612998,-0.397394,-0.935184,-7.645807,-0.152356,-0.987929,0.027992,-0.094943,-0.34662,0.174126,-33.903076,-36.877277,-5.811062
6760,3.000871,1.547718,0.904435,-0.238045,-0.623153,-7.890524,0.003237,-0.999734,0.022849,-0.272493,-0.435004,0.195093,-24.902645,-43.531944,-5.286665
6780,1.698049,1.40757,2.194539,0.066772,-0.820717,-7.846352,0.161188,-0.986708,0.020623,-0.510035,-0.845186,0.19303,-14.178132,-48.112972,-5.219491
6800,1.634495,1.261231,2.241695,0.148726,-0.816892,-6.876572,0.304027,-0.952466,0.019392,-1.101131,-1.955356,0.146242,-14.178132,-48.112972,-5.219491
6820,1.609748,1.150487,2.258036,-0.169402,-0.215033,-4.605264,0.407733,-0.912963,0.01589,-1.525684,-2.263322,0.096064,-0.125986,-50.201118,-4.790885
6840,1.586432,1.092413,2.289335,-0.855277,0.543968,-1.933921,0.460288,-0.88774,0.007197,-2.097831,-1.748536,0.151601,-0.125986,-50.201118,-4.790885
6860,1.560159,1.088411,2.336507,-1.188388,0.719485,1.072474,0.463867,-0.885891,-0.004934,-2.796402,-0.735843,0.126867,5.282181,-49.857269,-5.428815
6880,1.533103,1.143417,2.386226,-0.820863,0.96159,3.312929,0.414193,-0.910055,-0.01562,-2.920388,-0.236445,-0.007757,5.576345,-49.706066,-6.429024
6900,1.55479,1.203868,2.40116,0.050874,2.322312,2.504982,0.358704,-0.933434,-0.005742,-1.988556,0.073143,-0.125804,1.40485,-49.841103,-7.550597
6920,1.576931,1.193506,2.40687,0.229681,0.652439,-3.034822,0.368396,-0.929666,0.00226,0.083448,0.076197,0.421629,1.40485,-49.841103,-7.550597
6940,1.631148,1.116606,2.387992,0.024619,2.321836,-1.890391,0.437936,-0.898617,0.026462,0.143653,-1.386585,1.175763,0.903625,-49.842495,-7.617749
6960,1.559804,1.17248,2.485871,-3.12917,0.60195,3.8405,0.387844,-0.921715,-0.004263,1.973515,-3.238853,0.244849,4.197963,-49.678211,-7.587705
6980,1.430122,1.274071,2.667466,-1.884392,2.626245,5.887934,0.289502,-0.956299,-0.040996,-0.35394,0.311676,-0.902943,4.197963,-49.678211,-7.587705
7000,1.345745,1.376226,2.764183,0.133857,-0.644529,4.673831,0.188469,-0.981131,-0.043146,-0.206398,0.658316,-0.90946,-2.371921,-49.002079,-11.674376
7020,1.235263,1.456596,2.870104,0.294596,-0.39508,3.711996,0.107598,-0.993486,-0.037522,-0.50248,0.389391,0.140137,-9.478535,-48.111336,-11.771893
7040,0.92686,1.50734,-3.112456,-0.208898,-0.420156,2.145839,0.050715,-0.997987,-0.038071,-0.740519,0.190782,0.403015,-9.478535,-48.111336,-11.771893
7060,0.528284,1.514384,-2.716003,-0.672921,0.082617,0.486113,0.02842,-0.998409,-0.048696,-0.642296,-0.075611,0.254629,-14.14942,-47.028713,-11.454905
7080,0.494797,1.495458,-2.678314,-0.946364,0.272993,-0.725832,0.035741,-0.997163,-0.06624,-0.39533,0.114763,0.16974,-15.235711,-46.526005,-12.09647
7100,0.564245,1.479444,-2.745113,-0.22429,-0.131316,-0.452955,0.048785,-0.99583,-0.077085,0.462933,-0.126087,-0.430682,-14.30078,-46.493332,-13.303318
7120,0.512588,1.48007,-2.705037,-0.126481,-0.674706,0.601962,0.044434,-0.995887,-0.078957,0.54692,-0.244927,0.149133,-14.30078,-46.493332,-13.303318
7140,0.21961,1.481932,-2.423837,-0.445596,-0.624258,1.453843,0.019333,-0.996054,-0.086616,0.487945,-0.208765,0.121513,-14.770529,-46.362175,-13.247678
7160,-0.145845,1.476092,-2.068082,-0.264668,-0.547572,1.636385,-0.013743,-0.995519,-0.093559,-0.031408,0.055577,-0.09742,-17.019375,-45.511036,-13.498431
7180,-0.456325,1.462705,-1.764676,-0.177911,-0.390345,1.680262,-0.047538,-0.994164,-0.096842,-0.00184,-0.063697,0.024165,-17.019375,-45.511036,-13.498431
7200,-0.689205,1.438909,-1.538474,-0.291359,-0.433863,1.853734,-0.083627,-0.991315,-0.101489,0.146982,-0.117052,0.032611,-19.444498,-44.520668,-13.525632
7220,-0.873839,1.405282,-1.361662,-0.241488,-0.524833,2.25444,-0.126338,-0.986334,-0.105757,0.228236,-0.074015,0.068297,-22.165775,-43.203773,-13.610038
7240,-1.014854,1.363696,-1.227771,-0.211744,-0.403807,2.48894,-0.174657,-0.978631,-0.108516,0.068501,-0.064856,0.181408,-22.165775,-43.203773,-13.610038
7260,-1.109014,1.316489,-1.1355,-0.220377,-0.077943,2.609409,-0.225225,-0.967838,-0.112088,0.085714,-0.081952,0.220792,-25.402344,-41.399059,-13.563172
7280,-1.170376,1.265725,-1.068637,-0.223667,0.255363,2.734152,-0.276602,-0.953825,-0.117083,0.197027,-0.314592,0.221911,-28.597075,-39.173519,-13.811728
7300,-1.214066,1.211935,-1.017868,-0.229647,0.158116,2.861982,-0.329098,-0.936297,-0.122646,0.475567,-0.516782,0.22871,-28.597075,-39.173519,-13.811728
7320,-1.251138,1.152452,-0.976885,-0.268461,-0.047629,3.199638,-0.385669,-0.913763,-0.12766,0.658374,-0.577601,0.206243,-31.707432,-36.531483,-14.255192
7340,-1.293028,1.085659,-0.937769,-0.063628,-0.570833,3.587723,-0.448455,-0.884611,-0.127872,0.908996,-0.677431,0.110172,-35.158806,-33.17067,-14.376579
7360,-1.357417,1.014743,-0.892871,0.386427,-1.780819,3.668269,-0.515867,-0.849345,-0.111777,1.436949,-0.615865,0.33248,-37.10759,-31.187874,-13.909143
7380,-1.456811,0.945183,-0.844835,0.914909,-3.667386,3.726273,-0.581794,-0.810604,-0.066605,1.694907,-0.887394,0.428421,-37.10759,-31.187874,-13.909143
7400,-1.549111,0.855888,-0.808191,0.470071,-2.188781,5.559638,-0.655394,-0.755153,-0.014215,2.183776,-1.818928,1.015176,-43.337723,-24.577032,-7.805902
7420,-1.554259,0.702098,-0.801653,0.066372,0.90233,8.36204,-0.763385,-0.645821,-0.012625,1.267703,-2.053337,0.282324,-43.337723,-24.577032,-7.805902
7440,-1.53651,0.545772,-0.785074,0.811139,1.773436,7.315071,-0.854224,-0.519078,-0.0293,0.680274,-0.998149,-0.633725,-47.750229,-14.406754,-7.44862
7460,-1.51016,0.437448,-0.759881,0.608051,1.78303,3.894354,-0.904171,-0.423629,-0.054893,0.282512,-0.818131,-0.740151,-49.261284,-4.61251,-9.75558
7480,-1.498597,0.404719,-0.744568,0.662582,0.661698,0.99912,-0.916818,-0.39376,-0.066309,0.31962,-0.011589,-0.411673,-49.261284,-4.61251,-9.75558
7500,-1.493784,0.40694,-0.724074,1.020123,0.383165,-1.209173,-0.915614,-0.395801,-0.070654,0.029384,-0.029919,-0.293345,-49.123009,-2.003149,-11.226676
7520,-1.50867,0.471803,-0.71099,0.738907,-1.08137,-4.085899,-0.889032,-0.454493,-0.055303,1.110086,0.469828,-0.142924,-48.905823,-4.681727,-11.376421
7540,-1.53732,0.57046,-0.700582,0.713838,-1.049822,-5.190894,-0.841181,-0.540019,-0.02817,1.184443,0.64471,-0.072248,-48.905823,-4.681727,-11.376421
7560,-1.567086,0.674274,-0.681099,0.975266,-0.8686,-5.110477,-0.781155,-0.62433,-0.002898,1.180325,0.70923,-0.107255,-48.055962,-11.934346,-9.555981
7580,-1.602485,0.777336,-0.65405,0.860824,-0.811471,-5.271559,-0.712427,-0.701383,0.022583,1.11329,0.624814,0.017807,-45.863075,-19.443434,-7.851897
7600,-1.640456,0.889823,-0.625156,0.594644,-0.890838,-5.906036,-0.628023,-0.77696,0.043819,0.744279,0.393339,-0.128673,-45.863075,-19.443434,-7.851897
7620,-1.691142,1.016594,-0.587909,0.395557,-1.098917,-6.75247,-0.522459,-0.85032,0.063181,0.652418,0.414255,-0.164225,-42.073112,-27.088356,-6.260592
7640,-1.767598,1.158696,-0.531594,0.012271,-1.474668,-7.428782,-0.392803,-0.916282,0.078318,0.474331,0.174308,-0.133707,-35.854065,-35.163307,-4.598772
7660,-1.892294,1.307159,-0.429852,-0.416066,-1.362365,-7.624496,-0.247242,-0.965449,0.082344,0.185428,-0.110006,-0.007805,-31.761169,-38.974327,-3.917995
7680,-2.22453,1.446912,-0.114157,-0.613566,-0.821957,-7.459553,-0.09809,-0.992336,0.075148,-0.105478,-0.158558,0.030306,-31.761169,-38.974327,-3.917995
7700,2.457007,1.487062,1.484483,-0.450027,-0.200248,-7.6296,0.052888,-0.996496,0.064792,-0.585588,-0.613581,-0.027316,-20.63706,-45.868828,-3.644626
7720,1.844916,1.355972,2.098113,-0.330684,-0.195432,-7.64857,0.205216,-0.977014,0.057707,-1.038102,-1.332877,-0.106718,-11.602024,-48.908207,-4.062186
7740,1.70881,1.217293,2.237731,-0.590931,-0.027968,-6.73156,0.342895,-0.938166,0.047627,-1.5186,-2.08077,-0.049809,-11.602024,-48.908207,-4.062186
7760,1.650239,1.111808,2.301093,-0.764316,0.049735,-4.346115,0.441644,-0.896501,0.035159,-1.908868,-1.754561,0.142041,-0.658225,-50.206238,-4.692688
7780,1.60939,1.068513,2.352929,-1.205671,0.311495,-0.897691,0.48107,-0.876486,0.018575,-2.264425,-1.328745,-0.021276,6.289412,-49.694229,-5.835041
7800,1.575519,1.09879,2.392313,-0.767716,-0.126521,2.974054,0.454669,-0.890658,0.002147,-2.765262,-0.753568,-0.171901,6.289412,-49.694229,-5.835041
7820,1.550285,1.174761,2.42036,-0.188178,0.116165,3.772147,0.385682,-0.922598,-0.007912,-2.176988,0.556753,0.455544,5.50442,-49.587662,-7.340736
7840,1.640969,1.171987,2.343815,1.636445,1.568038,-3.332479,0.387366,-0.921524,0.027227,-0.265387,0.569229,0.856928,0.770033,-49.891232,-7.307035
7860,1.701396,1.146317,2.310909,0.291805,0.873949,2.358144,0.408339,-0.911253,0.053634,-0.10562,-4.657899,1.05011,0.770033,-49.891232,-7.307035
7880,1.640141,1.219935,2.399553,-3.215125,1.75742,4.219032,0.342881,-0.939077,0.023815,0.375778,-0.425288,0.939411,3.361887,-50.014122,-5.514199
7900,1.417643,1.313966,2.680207,-3.542404,2.500356,4.652313,0.251042,-0.9672,-0.038751,0.222468,0.494712,-0.063116,-2.222116,-49.469498,-9.536876
7920,1.346874,1.382048,2.771824,0.811798,-0.595082,3.09498,0.182945,-0.98224,-0.041664,-0.605568,0.965959,-1.243752,-2.222116,-49.469498,-9.536876
7940,1.391891,1.430681,2.720713,0.821479,-0.00696,2.14788,0.137428,-0.9902,-0.024852,-0.446815,-0.209309,0.455288,-7.547647,-48.392265,-12.014269
7960,1.382667,1.467213,2.723586,-0.115364,-0.39729,1.336339,0.101574,-0.99464,-0.019338,-0.364254,-0.455342,0.702031,-10.874537,-48.045574,-10.792954
7980,1.106337,1.480361,2.998409,-1.525762,0.09692,0.8854,0.080745,-0.995914,-0.040454,-0.214671,-0.175137,0.622913,-12.207594,-47.670502,-11.028097
8000,0.757742,1.476368,-2.925105,-1.012431,0.677836,0.912013,0.064803,-0.995545,-0.06849,0.085054,0.173707,-0.4318,-12.207594,-47.670502,-11.028097
8020,0.569072,1.489731,-2.73721,0.272272,-0.563488,1.07379,0.043634,-0.996716,-0.068215,0.27471,0.084439,-0.537422,-13.312851,-46.821323,-13.17772
8040,0.257743,1.499577,-2.436673,-0.230194,-0.639354,1.320096,0.018138,-0.997465,-0.068809,0.053349,-0.05707,0.137748,-13.312851,-46.821323,-13.17772
8060,-0.119273,1.495528,-2.070783,-0.243599,-0.529857,1.307312,-0.008948,-0.997169,-0.074663,-0.062906,0.056007,0.0412,-15.619701,-46.159969,-12.97702
8080,-0.412967,1.484404,-1.783252,-0.263683,-0.263338,1.21251,-0.034629,-0.996271,-0.079031,-0.102258,0.049234,0.08135,-17.626423,-45.405144,-13.06915
8100,-0.611471,1.467621,-1.588696,-0.25096,-0.263275,1.238105,-0.059125,-0.994682,-0.084331,-0.015155,-0.127495,-0.029927,-17.626423,-45.405144,-13.06915
8120,-0.782074,1.447186,-1.423645,-0.170898,-0.350766,1.481165,-0.086893,-0.99237,-0.087472,0.212381,-0.163819,0.007089,-19.372034,-44.623993,-13.287002
8140,-0.931198,1.417778,-1.279927,-0.234725,-0.332611,1.948827,-0.122294,-0.988316,-0.090977,0.271311,-0.206692,0.139759,-21.433792,-43.657978,-13.330204
8160,-1.053565,1.37738,-1.161139,-0.248006,-0.194575,2.398493,-0.16707,-0.981353,-0.095045,0.253114,-0.150681,0.228635,-21.433792,-43.657978,-13.330204
8180,-1.140017,1.329284,-1.073873,-0.269072,0.011699,2.637186,-0.217321,-0.970977,-0.099873,0.140401,-0.261139,0.174366,-24.285696,-42.102623,-13.442285
8200,-1.199806,1.276994,-1.010691,-0.234984,0.107927,2.793903,-0.269892,-0.95715,-0.104989,0.219355,-0.358631,0.226815,-27.511127,-39.968594,-13.739363
8220,-1.241193,1.220159,-0.962794,-0.280691,0.266382,3.017623,-0.325006,-0.939154,-0.111179,0.433222,-0.453546,0.236316,-29.685532,-38.286152,-14.002171
8240,-1.272819,1.157975,-0.923769,-0.241481,0.087675,3.277639,-0.383515,-0.915993,-0.117786,0.693193,-0.61277,0.023547,-29.685532,-38.286152,-14.002171
8260,-1.313757,1.090278,-0.885413,-0.053846,-0.506908,3.616662,-0.447053,-0.886755,-0.11751,0.896394,-0.713876,0.001924,-33.024086,-35.237038,-14.521769
8280,-1.368741,1.015998,-0.846844,0.172256,-1.638542,3.949229,-0.516055,-0.850007,-0.105714,1.493579,-0.752639,0.0273,-33.024086,-35.237038,-14.521769
8300,-1.466016,0.938642,-0.803158,0.941754,-3.790088,3.895709,-0.587644,-0.806756,-0.0618,1.909131,-0.843345,0.397768,-38.194912,-30.010794,-13.550709
8320,-1.571885,0.861442,-0.757947,1.134567,-2.828047,4.531339,-0.651343,-0.758783,0.000709,2.344321,-1.613196,0.968194,-41.223892,-26.97435,-10.774779
8340,-1.617335,0.716423,-0.736739,0.983347,-0.267408,8.303689,-0.753343,-0.656691,0.035085,1.23816,-1.682298,0.22996,-45.434776,-21.05994,-5.93976
8360,-1.595645,0.548934,-0.724598,0.834062,1.821393,8.100553,-0.852818,-0.521778,0.021196,0.489613,-1.006527,-0.73044,-45.434776,-21.05994,-5.93976
8380,-1.584379,0.423694,-0.706319,0.906557,1.107521,4.533098,-0.911492,-0.411131,0.012381,0.009759,-0.128634,-0.550116,-49.101692,-9.424116,-6.582623
8400,-1.560532,0.393138,-0.694617,0.496234,1.19437,0.105107,-0.923663,-0.383089,-0.009481,-0.195508,0.118853,-0.22027,-49.710472,-2.148812,-8.208064
8420,-1.542272,0.406761,-0.680199,0.824076,1.203593,-1.209185,-0.918033,-0.395637,-0.026193,-0.226101,-0.452248,-0.282614,-49.710472,-2.148812,-8.208064
8440,-1.53519,0.475887,-0.668274,0.396118,0.001723,-4.692392,-0.888323,-0.458127,-0.031643,1.011798,0.366559,-0.271107,-49.356339,-2.730721,-9.980781
8460,-1.535492,0.58893,-0.670697,0.017675,-0.009776,-5.962108,-0.831017,-0.555472,-0.02935,1.151269,0.742407,-0.008827,-48.526718,-8.895554,-10.447392
8480,-1.537036,0.703988,-0.670044,0.417586,-0.168773,-5.51925,-0.761832,-0.647263,-0.025729,1.314262,0.858964,-0.316403,-48.526718,-8.895554,-10.447392
8500,-1.55556,0.813449,-0.655827,0.72928,-0.561206,-5.543307,-0.686917,-0.726661,-0.010467,1.480404,0.758567,-0.169968,-40.152031,-10.954069,-9.497362
8520,-1.591582,0.93103,-0.6356,0.541153,-1.344194,-6.070202,-0.596879,-0.802235,0.012408,1.174669,0.529118,0.025708,-37.914787,-17.653925,-8.554824
8540,-1.642857,1.060018,-0.613636,0.131211,-1.744417,-6.773204,-0.487588,-0.872364,0.035197,0.730431,0.172016,0.10462,-37.914787,-17.653925,-8.554824
8560,-1.706703,1.203791,-0.581958,-0.14956,-1.764377,-7.450315,-0.355513,-0.933406,0.048616,0.607588,0.091075,0.044294,-34.239918,-24.604204,-6.681181
8580,-1.831586,1.356966,-0.493186,-0.335179,-2.113257,-7.893987,-0.205029,-0.977225,0.054716,0.32504,-0.186135,-0.146924,-28.331238,-31.524101,-5.094029
8600,-2.396341,1.505139,0.033075,-0.74973,-1.997677,-8.057712,-0.044494,-0.997845,0.048218,-0.147691,-0.653552,0.076569,-28.331238,-31.524101,-5.094029
8620,1.828457,1.447739,2.061016,-0.734212,-1.53514,-8.028802,0.118695,-0.992438,0.031278,-0.392254,-0.864602,0.061205,-20.367048,-37.294655,-4.082788
8640,1.632688,1.301974,2.231749,-0.336473,-1.323596,-6.95293,0.265088,-0.964084,0.016428,-0.867047,-1.436154,0.144812,-12.66533,-40.557026,-4.134498
8660,1.581918,1.189895,2.266887,-0.499129,-0.403053,-4.614144,0.371735,-0.92833,0.004134,-1.989777,-2.458481,0.505768,-4.56331,-42.227783,-4.285777
8680,1.545174,1.138634,2.322003,-1.56597,1.382688,-1.316684,0.418698,-0.908062,-0.01073,-2.89581,-1.809223,0.754322,-4.56331,-42.227783,-4.285777
8700,1.494248,1.145385,2.423005,-2.182621,2.15644,1.380356,0.411487,-0.910869,-0.03156,-3.497546,-0.33791,0.30393,-1.14966,-42.218929,-6.214293
8720,1.48033,1.177794,2.483146,-0.273586,2.482755,1.689587,0.381397,-0.923764,-0.034598,-3.661197,0.465985,-0.629174,-1.14966,-42.218929,-6.214293
8740,1.555315,1.217879,2.46112,0.970706,2.741348,1.022674,0.345596,-0.938368,-0.005351,-1.430541,0.162001,0.208018,-2.606755,-41.824768,-8.140702
8760,1.694087,1.1693,2.379434,1.958866,2.819689,-3.001163,0.38783,-0.920477,0.04806,0.097201,-0.38566,0.595388,-3.573732,-41.841679,-7.673312
8780,1.738564,1.194752,2.356171,-2.057653,0.603772,2.876206,0.362088,-0.930125,0.061323,0.706744,-3.583517,2.268572,-1.776867,-42.217346,-6.07579
8800,1.53204,1.270956,2.611524,-5.255381,2.173272,4.31159,0.295146,-0.955384,-0.011445,0.485845,-0.337646,0.230484,-1.776867,-42.217346,-6.07579
8820,1.386096,1.355391,2.797149,0.475762,-0.545765,3.90434,0.210108,-0.97689,-0.039255,-0.692835,0.890983,-2.972983,-5.821511,-40.733799,-11.368589
8840,1.389657,1.428452,2.772144,1.025373,-0.226354,3.466381,0.139543,-0.989886,-0.025557,-0.063097,0.57175,0.411253,-10.596647,-39.746376,-11.415504
8860,1.30027,1.494884,2.858117,-0.284802,-0.28973,2.981384,0.073081,-0.99712,-0.020267,-0.440971,-0.111034,0.637531,-10.596647,-39.746376,-11.415504
8880,0.70299,1.517849,-2.830862,-1.238632,-0.021098,1.359102,0.034215,-0.998599,-0.040375,-0.80283,-0.063199,0.196641,-14.470654,-38.617668,-11.02964
8900,0.383948,1.504661,-2.50752,-0.759595,0.295081,0.100557,0.024755,-0.997814,-0.061275,-0.238805,0.193737,-0.330754,-15.820374,-37.687649,-12.318041
8920,0.37935,1.501386,-2.501149,0.102014,-0.082855,-0.061053,0.025683,-0.997592,-0.064424,0.03581,0.215518,-0.418059,-15.820374,-37.687649,-12.318041
8940,0.287945,1.503,-2.414293,-0.202719,-0.298063,0.583009,0.019238,-0.997703,-0.064955,0.293872,-0.273599,0.144499,-15.786491,-37.609943,-12.595862
8960,-0.008923,1.499219,-2.125614,-0.280449,-0.54006,1.114515,-0.000638,-0.997439,-0.071514,0.176709,-0.030927,-0.138829,-16.650309,-37.213131,-12.662049
8980,-0.318524,1.491991,-1.826708,-0.162485,-0.584967,1.152004,-0.024653,-0.996897,-0.074763,0.050502,0.013147,-0.121816,-16.650309,-37.213131,-12.662049
9000,-0.566189,1.479047,-1.590428,-0.112754,-0.616651,1.242654,-0.049147,-0.995794,-0.077323,0.068632,-0.114039,-0.03724,-18.140205,-36.540874,-12.572779
9020,-0.780733,1.459875,-1.386747,-0.130325,-0.601671,1.501552,-0.077907,-0.993855,-0.078637,0.189204,-0.142071,0.084969,-19.75539,-35.76825,-12.358569
9040,-0.949631,1.430921,-1.228974,-0.215393,-0.621027,1.880728,-0.113376,-0.990233,-0.08114,0.196735,-0.12378,0.081003,-21.069681,-35.057022,-12.225005
9060,-1.075519,1.392952,-1.113878,-0.21815,-0.585573,2.216375,-0.15565,-0.984227,-0.08408,0.222377,-0.114329,0.088444,-21.069681,-35.057022,-12.225005
9080,-1.174955,1.347087,-1.021792,-0.128702,-0.351385,2.610836,-0.204693,-0.975081,-0.085541,0.191845,-0.113832,0.219452,-23.443302,-33.578293,-12.05351
9100,-1.244277,1.293927,-0.952868,-0.167436,-0.024887,2.855921,-0.258903,-0.961916,-0.087675,0.158256,-0.248915,0.286619,-23.443302,-33.578293,-12.05351
9120,-1.28785,1.237479,-0.907257,-0.184515,0.008438,2.928355,-0.31417,-0.944962,-0.091344,0.232948,-0.40834,0.194997,-27.023497,-30.78157,-12.025091
9140,-1.323517,1.17839,-0.870305,-0.11064,-0.065496,3.10428,-0.370781,-0.923991,-0.093602,0.476082,-0.47556,0.194585,-29.645386,-28.20982,-12.154598
9160,-1.357678,1.113957,-0.836906,-0.045177,-0.333531,3.380302,-0.431134,-0.897451,-0.093299,0.753766,-0.57728,0.08509,-29.645386,-28.20982,-12.154598
9180,-1.398924,1.045628,-0.807471,0.115853,-1.024418,3.550901,-0.493972,-0.86524,-0.085746,1.181258,-0.85171,-0.229241,-32.352074,-25.131008,-12.006382
9200,-1.465458,0.973133,-0.770767,0.735121,-2.391312,3.88623,-0.559593,-0.826653,-0.059165,1.699883,-1.050468,-0.177422,-35.279488,-21.558926,-10.627682
9220,-1.539201,0.891079,-0.734963,0.798318,-1.479863,4.768825,-0.62826,-0.77775,-0.019856,2.08549,-1.896322,0.09168,-35.279488,-21.558926,-10.627682
9240,-1.602718,0.750432,-0.701849,1.085158,-1.612024,7.685661,-0.731022,-0.681954,0.023343,1.698078,-2.807197,-0.019559,-38.431717,-16.891762,-7.749099
9260,-1.600635,0.597389,-0.705467,-0.261875,0.872157,7.481457,-0.826439,-0.562485,0.024667,0.823677,-0.935272,-0.366647,-41.506248,-7.925131,-6.06637
9280,-1.577736,0.484431,-0.710362,0.110416,0.317907,3.946532,-0.884919,-0.465705,0.006141,0.865769,-0.449044,-0.540733,-41.506248,-7.925131,-6.06637
9300,-1.594837,0.434829,-0.700962,0.836558,-0.561036,2.106347,-0.90668,-0.421255,0.021801,0.297335,0.142905,-0.012966,-42.095879,-0.988918,-7.023945
9320,-1.621288,0.415602,-0.681191,0.68858,-1.099848,-0.224366,-0.913708,-0.40374,0.046174,0.413967,0.173882,0.344313,-42.244194,1.152232,-6.039662
9340,-1.638646,0.464813,-0.681365,-0.61719,-0.762144,-3.398665,-0.891849,-0.448256,0.060604,0.614306,0.192488,0.29903,-42.343521,0.334688,-5.412141
9360,-1.631094,0.544893,-0.696404,-0.924393,0.64777,-4.125425,-0.853629,-0.518326,0.051535,0.817053,0.496339,0.111551,-42.343521,0.334688,-5.412141
9380,-1.603174,0.631193,-0.702008,-0.085651,1.436428,-4.480718,-0.806901,-0.590108,0.026135,0.947114,0.985769,-0.184124,-42.168137,-4.229369,-5.132066
9400,-1.575625,0.736356,-0.697182,0.0697,1.484727,-5.748419,-0.740912,-0.671592,0.003578,0.783408,0.621391,0.089638,-40.639801,-10.932997,-7.159129
9420,-1.549536,0.866077,-0.702612,-0.243442,0.748185,-6.958528,-0.647674,-0.761793,-0.013772,0.776702,0.599593,0.051171,-40.639801,-10.932997,-7.159129
9440,-1.532534,1.020771,-0.723928,-0.448775,-0.483043,-8.155783,-0.522326,-0.852511,-0.019995,0.852679,0.633609,-0.036508,-38.177177,-17.172745,-8.365233
9460,-1.516097,1.187613,-0.762376,-0.429155,-1.029203,-8.319974,-0.373316,-0.927479,-0.020441,0.749826,0.41306,-0.034735,-33.115673,-25.609596,-8.359301
9480,-1.498669,1.345812,-0.805885,0.059116,-1.370593,-7.693734,-0.222511,-0.974798,-0.016077,0.531197,0.04392,-0.099356,-33.115673,-25.609596,-8.359301
9500,-1.481931,1.496837,-0.859053,0.227813,-2.012656,-7.535896,-0.0736,-0.997266,-0.006558,-0.031304,-0.148287,0.042553,-26.280214,-32.780598,-7.560418
9520,1.48708,1.489399,2.411097,-0.166152,-2.200946,-7.888258,0.081023,-0.996689,-0.006799,-0.489119,-0.686599,0.148706,-26.280214,-32.780598,-7.560418
9540,1.491774,1.336527,2.368559,-0.29403,-1.578152,-7.291631,0.231407,-0.972684,-0.018325,-1.039238,-1.443514,0.211608,-14.181232,-39.867294,-5.645237
9560,1.497227,1.216669,2.34646,-0.11821,-0.191348,-5.032053,0.345834,-0.93795,-0.025489,-1.739083,-2.44497,0.348654,-9.728358,-41.19928,-5.509565
9580,1.495079,1.153814,2.371734,-1.271602,1.661752,-1.967015,0.403843,-0.914315,-0.030637,-2.627918,-2.277289,0.840817,-3.147849,-42.191051,-5.690652
9600,1.455275,1.142004,2.46555,-2.156557,2.585258,0.472799,0.413002,-0.909469,-0.047924,-3.031303,-0.918977,0.463329,-3.147849,-42.191051,-5.690652
9620,1.442735,1.160433,2.532447,-0.48534,2.556213,1.273803,0.395676,-0.916976,-0.05095,-3.199081,-0.050477,-0.502334,-1.416077,-41.924446,-7.919121
9640,1.504434,1.19175,2.525659,0.721154,2.889934,0.491765,0.369221,-0.929018,-0.024538,-2.502613,0.006136,-0.079633,-2.477433,-41.635349,-9.095998
9660,1.610186,1.131844,2.470799,1.550683,1.841839,-3.545411,0.424662,-0.905197,0.016736,-0.223521,-1.155151,0.348559,-2.477433,-41.635349,-9.095998
9680,1.651766,1.151183,2.426633,-1.057854,-0.502503,3.046168,0.406073,-0.913246,0.032952,1.457956,-1.245003,1.333107,0.290435,-41.909283,-8.118171
9700,1.453551,1.230593,2.659656,-5.320126,1.383577,4.79836,0.331388,-0.942687,-0.039033,0.236513,-0.212266,-0.365249,-1.997034,-41.717812,-8.832499
9720,1.315615,1.320347,2.841422,0.723244,-0.142557,4.411128,0.239813,-0.968801,-0.06256,-0.968695,0.889089,-2.762926,-1.997034,-41.717812,-8.832499
9740,1.305681,1.404945,2.832187,1.290227,0.154753,3.789921,0.159324,-0.986278,-0.043257,-0.479637,0.247417,0.579634,-7.275658,-40.131996,-12.604155
9760,1.260031,1.472816,2.877418,0.103144,-0.261532,2.918265,0.093138,-0.995204,-0.029913,-0.68994,-0.064336,0.74552,-12.139956,-39.393532,-11.097222
9780,0.896534,1.496221,-3.045808,-1.169926,-0.019039,1.135588,0.058202,-0.997221,-0.046516,-0.685964,-0.116534,0.24047,-12.139956,-39.393532,-11.097222
9800,0.643824,1.480402,-2.788442,-1.271192,0.301084,-0.174053,0.054186,-0.995917,-0.072199,-0.09804,0.190802,-0.267934,-14.790095,-38.355679,-11.509654
9820,0.607401,1.469085,-2.746068,-0.036953,0.084812,-0.012114,0.05795,-0.994832,-0.083375,0.341891,-0.109096,-0.051421,-14.763514,-37.896946,-12.970631
9840,0.558635,1.477227,-2.706506,0.180337,-0.62533,0.678559,0.049522,-0.995626,-0.079229,0.266747,-0.217448,0.205954,-14.826632,-37.882214,-12.941633
9860,0.32265,1.483278,-2.482314,-0.339504,-0.653393,1.151805,0.027715,-0.996173,-0.082897,0.012629,-0.065351,0.120494,-14.826632,-37.882214,-12.941633
9880,0.037189,1.47948,-2.207149,-0.370973,-0.542838,1.123007,0.00339,-0.995834,-0.091126,-0.059131,0.066741,-0.174239,-16.066536,-37.460644,-12.686361
9900,-0.211262,1.474216,-1.968669,-0.065458,-0.537221,1.196,-0.020221,-0.99534,-0.094287,0.069736,-0.079199,-0.03668,-17.559938,-36.748409,-12.789854
9920,-0.461607,1.463568,-1.728353,-0.141718,-0.574283,1.418554,-0.047667,-0.994257,-0.095822,0.162398,-0.123679,0.093823,-17.559938,-36.748409,-12.789854
9940,-0.692783,1.442075,-1.506703,-0.192465,-0.509631,1.830842,-0.081985,-0.991727,-0.098774,0.191024,-0.04642,0.098255,-19.161989,-36.01112,-12.585493
9960,-0.880981,1.410404,-1.325254,-0.18104,-0.399915,2.140959,-0.123191,-0.987165,-0.101636,0.145835,-0.067981,0.064603,-21.240892,-34.866367,-12.471501
9980,-1.02029,1.370971,-1.191049,-0.155811,-0.334067,2.396748,-0.169172,-0.980101,-0.103838,0.132612,-0.090135,0.11513,-21.240892,-34.866367,-12.471501
10000,-1.119292,1.324518,-1.092614,-0.165743,0.009373,2.649345,-0.219366,-0.969826,-0.106373,0.16297,-0.15937,0.243992,-23.668579,-33.295147,-12.393895
10020,-1.184772,1.271931,-1.020244,-0.176903,0.288883,2.867829,-0.272769,-0.955671,-0.110857,0.204883,-0.344927,0.212573,-23.668579,-33.295147,-12.393895
10040,-1.232536,1.215758,-0.964938,-0.158511,0.147885,2.977576,-0.327928,-0.937633,-0.115359,0.482926,-0.542103,0.159441,-27.070736,-30.488981,-12.648103
10060,-1.27451,1.15553,-0.920597,-0.150698,-0.175358,3.223649,-0.385855,-0.915009,-0.117791,0.677207,-0.613449,0.142907,-29.615166,-27.895195,-12.929703
10080,-1.315149,1.08856,-0.884502,-0.13147,-0.501289,3.597606,-0.44869,-0.88596,-0.117272,1.078267,-0.782009,0.007974,-31.428726,-25.863729,-12.871673
10100,-1.370541,1.015154,-0.846152,0.25104,-1.743472,3.81321,-0.516948,-0.849562,-0.104928,1.675075,-1.015902,0.008081,-31.428726,-25.863729,-12.871673
10120,-1.468787,0.94239,-0.802123,0.84666,-3.514589,3.574077,-0.5848,-0.808965,-0.059863,2.004112,-1.226588,0.181537,-34.436111,-22.205971,-11.976074
10140,-1.540196,0.848883,-0.769375,0.646158,-2.104475,6.506419,-0.660513,-0.750543,-0.020218,1.97315,-2.954581,0.220215,-37.612495,-18.358377,-8.405191
10160,-1.574975,0.681447,-0.743484,0.805131,-0.121339,8.729884,-0.776655,-0.629917,0.003246,0.893706,-0.731762,-0.349544,-37.612495,-18.358377,-8.405191
10180,-1.572007,0.521035,-0.730789,0.346103,0.904797,7.143816,-0.867304,-0.497778,0.00105,0.662531,-0.213281,-0.45976,-41.06023,-9.613213,-6.634829
10200,-1.560353,0.440024,-0.732407,-0.184446,0.098627,2.12083,-0.904692,-0.425961,-0.009448,0.25981,0.251675,-0.493573,-42.050541,-0.742586,-7.319686
10220,-1.565497,0.423561,-0.731838,0.257858,-0.278014,0.413461,-0.911618,-0.41101,-0.004831,-0.333789,0.232802,-0.354575,-42.050541,-0.742586,-7.319686
10240,-1.576712,0.443101,-0.728707,-0.072844,-0.439898,-2.434263,-0.90341,-0.428743,0.005345,0.710448,0.306978,0.060619,-42.056107,1.095982,-7.242924
10260,-1.590857,0.532094,-0.734009,-0.404118,-1.035531,-5.278899,-0.861573,-0.507339,0.017286,1.021806,0.549911,-0.00836,-42.162746,-1.345047,-6.547559
10280,-1.598976,0.645238,-0.74197,-0.440823,-0.255553,-5.647448,-0.798639,-0.601389,0.022511,1.059671,0.706766,-0.009068,-42.162746,-1.345047,-6.547559
10300,-1.593058,0.752661,-0.744935,-0.14968,0.388431,-5.222698,-0.729691,-0.683584,0.016247,1.126847,0.831121,0.033146,-41.523186,-8.12977,-5.666486
10320,-1.582732,0.861484,-0.746314,-0.173721,0.501284,-5.706465,-0.651266,-0.75881,0.007774,0.942495,0.596273,0.143197,-39.650513,-14.605747,-6.073375
10340,-1.571968,0.983675,-0.753724,-0.299618,0.058892,-6.340786,-0.553967,-0.832539,0.000649,0.728222,0.367908,0.015907,-39.650513,-14.605747,-6.073375
10360,-1.563921,1.122558,-0.770202,-0.439222,-0.566668,-7.324547,-0.433368,-0.901212,-0.00298,0.64632,0.364042,-0.005092,-36.375999,-21.352545,-6.575157
10380,-1.552327,1.278108,-0.804362,-0.542747,-1.280168,-7.941847,-0.288478,-0.957472,-0.005329,0.453547,0.098417,-0.024548,-32.127281,-27.353008,-6.482905
10400,-1.507136,1.436117,-0.881194,-0.407548,-1.53335,-7.866019,-0.134001,-0.990944,-0.008542,0.150724,-0.292472,0.001248,-32.127281,-27.353008,-6.482905
10420,1.123024,1.547812,2.73826,-0.021078,-1.778716,-7.744997,0.020716,-0.999736,-0.00995,-0.165583,-0.546651,-0.004805,-23.742634,-35.010105,-5.740804
10440,1.492513,1.398137,2.328216,-0.025,-2.040854,-7.389179,0.171277,-0.985131,-0.013436,-0.682462,-1.421485,0.191796,-16.772009,-38.936909,-4.999405
10460,1.483766,1.265221,2.302812,-0.421477,-1.305488,-6.040729,0.299703,-0.953674,-0.026149,-1.898245,-2.480057,0.53712,-8.302884,-41.643234,-4.390911
10480,1.452401,1.174474,2.327832,-1.206784,0.163782,-3.431188,0.383326,-0.922487,-0.045597,-2.369502,-2.188521,0.723072,-8.302884,-41.643234,-4.390911
10500,1.415839,1.136328,2.389855,-1.604052,1.552685,-0.649436,0.415884,-0.907094,-0.064965,-2.921393,-1.148341,0.658837,-2.75083,-42.252388,-5.435599
10520,1.37737,1.147726,2.478441,-1.702376,1.943004,1.559339,0.402906,-0.911833,-0.078919,-3.525174,0.066831,-0.419829,-1.962502,-41.960487,-7.605474
10540,1.369752,1.188379,2.533299,0.209751,2.805914,2.804245,0.365648,-0.927765,-0.074518,-1.969057,0.352692,0.122507,-1.962502,-41.960487,-7.605474
10560,1.497017,1.188396,2.463645,1.660578,3.052543,-3.019493,0.372134,-0.927772,-0.027506,0.238981,-0.093591,0.446085,-4.058677,-41.627735,-8.546095
10580,1.631566,1.135908,2.361229,1.871071,1.057177,-0.049968,0.420531,-0.906917,0.025587,0.247392,-3.183003,2.248339,-0.57902,-42.178295,-6.559977
10600,1.560684,1.193158,2.452326,-3.941356,1.397301,3.143996,0.368708,-0.929538,-0.003729,1.016622,-0.862729,0.411688,-0.57902,-42.178295,-6.559977
10620,1.317101,1.265986,2.751751,-3.007996,2.518524,4.825185,0.290506,-0.953904,-0.075323,-0.679437,0.629929,-2.547785,-3.462566,-41.630295,-8.792398
10640,1.265153,1.347538,2.801379,1.15789,-1.520546,3.968413,0.211147,-0.975181,-0.066623,-0.207287,0.671531,0.015171,-8.401198,-40.244026,-11.498486
10660,1.261976,1.422403,2.798871,0.907129,-0.11844,3.216049,0.140855,-0.98901,-0.044936,-0.443803,0.106182,0.498702,-8.401198,-40.244026,-11.498486
10680,1.096969,1.470605,2.955196,-0.541025,-0.493786,2.005106,0.089004,-0.994985,-0.045641,-0.74324,-0.350642,0.620058,-12.815403,-39.453304,-10.07866
10700,0.782351,1.475304,-3.014048,-1.295928,0.091631,0.539883,0.067215,-0.995444,-0.067626,-0.349396,0.146262,0.037398,-15.087334,-38.493729,-10.629324
10720,0.635338,1.456267,-2.8614,-0.976053,0.34168,-0.148896,0.067819,-0.993449,-0.09198,0.254904,0.166834,-0.760773,-15.171548,-38.150002,-11.695252
10740,0.618946,1.456756,-2.845626,0.355838,-0.39172,0.241112,0.06602,-0.993504,-0.092684,0.348088,0.041951,-0.415297,-15.171548,-38.150002,-11.695252
10760,0.529675,1.467305,-2.766773,0.009777,-0.542931,0.900034,0.052196,-0.99465,-0.08915,0.146977,-0.164271,0.16433,-15.301866,-38.062496,-11.810018
10780,0.304679,1.470729,-2.552582,-0.364697,-0.588558,1.112474,0.029969,-0.994997,-0.095299,-0.023911,0.093111,-0.120002,-16.512419,-37.620365,-11.594197
10800,0.064023,1.470338,-2.32277,-0.119998,-0.634981,1.148054,0.006416,-0.994958,-0.100084,0.019325,0.005304,-0.058073,-16.512419,-37.620365,-11.594197
10820,-0.198572,1.468026,-2.070992,-0.017933,-0.554708,1.359228,-0.020238,-0.994724,-0.100574,0.074834,-0.095166,0.109118,-17.99161,-36.955425,-11.531504
10840,-0.463354,1.456389,-1.815142,-0.140727,-0.499072,1.591313,-0.051023,-0.993463,-0.102121,0.115232,-0.080573,0.090509,-19.701942,-36.155132,-11.270186
10860,-0.696083,1.434169,-1.589576,-0.14221,-0.426544,1.896071,-0.087336,-0.990681,-0.104517,0.15069,-0.067928,0.044839,-19.701942,-36.155132,-11.270186
10880,-0.88371,1.403037,-1.40733,-0.092428,-0.333054,2.172154,-0.129087,-0.985961,-0.105909,0.148771,-0.084885,0.090651,-21.75543,-34.997143,-11.148022
10900,-1.02293,1.364037,-1.270714,-0.085983,-0.179002,2.403423,-0.175243,-0.978701,-0.106928,0.110835,-0.167676,0.164805,-21.75543,-34.997143,-11.148022
10920,-1.122267,1.318718,-1.170068,-0.064476,-0.003876,2.602759,-0.224746,-0.968396,-0.108158,0.145263,-0.302081,0.221546,-24.943653,-32.843342,-11.022978
10940,-1.193993,1.268379,-1.093682,-0.043135,0.121242,2.792491,-0.276935,-0.954619,-0.109586,0.254459,-0.404451,0.2599,-27.448254,-30.75388,-11.098173
10960,-1.246927,1.212581,-1.033634,-0.045477,0.219081,3.048239,-0.332376,-0.936524,-0.111575,0.481958,-0.485748,0.171801,-27.448254,-30.75388,-11.098173
10980,-1.294649,1.150173,-0.980677,0.115307,-0.129663,3.424569,-0.392859,-0.912835,-0.111331,0.745917,-0.562477,0.00632,-30.002079,-28.190765,-11.293058
11000,-1.355366,1.081765,-0.92815,0.395701,-1.026829,3.686963,-0.458912,-0.882788,-0.100422,1.139912,-0.773004,-0.036694,-32.843277,-24.992607,-10.911732
11020,-1.440873,1.012087,-0.872133,1.104487,-2.552607,3.73365,-0.525625,-0.84794,-0.068678,1.454046,-0.854804,0.181532,-32.843277,-24.992607,-10.911732
11040,-1.571111,0.938404,-0.801511,1.910815,-3.632232,3.774223,-0.591076,-0.806615,0.000186,1.755963,-1.110743,0.375073,-35.97377,-21.416561,-8.342423
11060,-1.611496,0.828153,-0.773068,0.441401,0.878864,7.360403,-0.675677,-0.736684,0.027515,1.296985,-2.930842,0.420483,-38.978149,-16.812971,-4.517207
11080,-1.565276,0.643182,-0.776387,-0.099662,2.420612,9.463195,-0.800179,-0.599745,-0.004417,0.432427,-1.649034,-0.975411,-38.978149,-16.812971,-4.517207
11100,-1.527877,0.498325,-0.772772,0.031474,1.387349,5.337426,-0.877576,-0.477955,-0.037688,0.616269,-0.170742,-0.849488,-41.463341,-7.865273,-6.426988
11120,-1.533082,0.445358,-0.764311,0.1582,-0.97299,1.896463,-0.901815,-0.430781,-0.034028,0.442113,-0.109731,-0.372726,-41.8769,-1.003328,-8.227736
11140,-1.558442,0.432771,-0.758124,0.282644,-0.862041,-0.668032,-0.907738,-0.419388,-0.011215,1.074348,0.144105,-0.038056,-42.05899,1.020712,-7.237187
11160,-1.581628,0.479374,-0.76009,-0.360638,-1.433231,-3.020931,-0.887232,-0.461224,0.00961,1.122888,0.333462,-0.053327,-42.05899,1.020712,-7.237187
11180,-1.59838,0.551673,-0.771753,-0.62417,-0.883757,-3.780984,-0.851325,-0.524113,0.023488,1.163321,0.50092,-0.132711,-42.26181,-1.77589,-5.758699
11200,-1.604687,0.628344,-0.779465,-0.27454,-0.277154,-3.849483,-0.808537,-0.587806,0.027413,1.009801,0.712898,-0.123268,-41.930653,-6.433634,-4.775555
11220,-1.603435,0.716691,-0.778237,-0.078397,0.2609,-4.916674,-0.753582,-0.656893,0.024605,0.816036,0.805147,-0.022118,-41.930653,-6.433634,-4.775555
11240,-1.597924,0.831446,-0.77769,-0.174511,0.30175,-6.143261,-0.67356,-0.738906,0.018276,0.798316,0.488403,0.011158,-39.916809,-14.272273,-5.03267
11260,-1.591565,0.965251,-0.778556,-0.216533,0.242053,-6.968073,-0.569087,-0.822192,0.011821,0.744365,0.384387,0.054906,-38.349167,-18.003666,-5.252301
11280,-1.583792,1.111531,-0.784953,-0.305474,0.066866,-7.488252,-0.443252,-0.896378,0.005761,0.514083,0.214265,0.040946,-38.349167,-18.003666,-5.252301
11300,-1.573857,1.264348,-0.791544,-0.072119,0.264031,-7.682788,-0.301673,-0.953411,0.000923,0.290518,0.049618,-0.059166,-33.601585,-25.727907,-5.602293
11320,-1.582377,1.419392,-0.779513,0.135215,0.103344,-7.797542,-0.150816,-0.98856,0.001747,0.020186,-0.158641,0.009148,-29.274376,-30.519619,-5.825887
11340,2.165683,1.561768,1.75822,0.213474,0.084971,-8.054203,0.007477,-0.999959,0.005059,-0.274445,-0.540843,-0.085962,-29.274376,-30.519619,-5.825887
11360,1.637099,1.400312,2.282782,0.405372,-0.471887,-8.10716,0.169287,-0.985503,0.011241,-0.619116,-1.081728,-0.097361,-18.384035,-38.0919,-5.780286
11380,1.615927,1.244353,2.288419,0.304434,-0.872814,-7.467049,0.32035,-0.947189,0.014467,-0.999061,-1.856064,0.013471,-8.759809,-41.454487,-5.212326
11400,1.590134,1.118737,2.297339,-0.194304,-0.806759,-5.340035,0.436737,-0.899549,0.008446,-1.607743,-2.403002,-0.078622,-8.759809,-41.454487,-5.212326
11420,1.556924,1.049131,2.32624,-0.903413,-0.124197,-2.411958,0.498277,-0.86699,-0.006913,-2.016847,-1.597502,0.078431,-0.405308,-42.401566,-4.931514
11440,1.526655,1.040517,2.367315,-1.101269,0.519937,0.902729,0.505282,-0.862666,-0.022318,-2.485873,-0.881383,0.346507,3.037025,-42.166306,-5.929257
11460,1.487701,1.103113,2.43254,-1.476741,1.223131,4.208594,0.449264,-0.892615,-0.037418,-2.985717,-0.329492,0.20914,3.037025,-42.166306,-5.929257
11480,1.511022,1.17457,2.454607,0.874514,2.931016,2.003211,0.385251,-0.922524,-0.023056,-0.002957,0.11718,0.315826,0.288509,-42.027027,-7.484843
11500,1.6581,1.142883,2.379,1.987505,2.824069,-1.48662,0.413393,-0.909833,0.036183,-1.294024,-3.99428,0.168514,-1.644935,-42.038063,-7.243793
11520,1.728789,1.186228,2.334678,-0.729784,1.440733,2.990984,0.370486,-0.926961,0.059026,-0.014087,-4.122051,1.444514,-1.644935,-42.038063,-7.243793
11540,1.590715,1.263649,2.542651,-4.9764,2.634766,3.266205,0.302281,-0.9532,0.006022,0.13084,0.807143,-0.7866,-2.251432,-42.197372,-6.057228
11560,1.433964,1.31516,2.721688,0.430765,0.137966,2.850983,0.250498,-0.967502,-0.034492,-0.209193,1.288181,-0.979317,-5.742193,-40.769745,-11.279718
11580,1.479134,1.360639,2.660541,0.869785,-0.093017,1.894846,0.207738,-0.977998,-0.019095,-0.244603,0.295701,0.72161,-5.742193,-40.769745,-11.279718
11600,1.445265,1.392105,2.691793,-0.684823,-0.147944,1.194185,0.176343,-0.984077,-0.022254,-0.645398,-0.56057,0.484442,-8.728205,-40.424053,-10.58733
11620,1.307356,1.396729,2.830274,-1.246486,-0.059152,0.107444,0.167214,-0.984889,-0.045099,-0.190911,0.185145,-0.135,-10.341231,-39.910484,-11.07201
11640,1.245536,1.392326,2.892509,-0.069907,-0.18594,0.013576,0.168216,-0.984116,-0.056729,0.139126,0.289201,-0.578495,-10.341231,-39.910484,-11.07201
11660,1.233725,1.397947,2.894643,-0.021205,-0.545583,0.48454,0.162312,-0.985099,-0.056881,0.182872,-0.224984,0.074322,-10.398326,-39.620216,-12.02042
11680,1.16274,1.412709,2.954258,-0.24324,-0.632833,1.036076,0.144503,-0.98753,-0.062472,-0.03313,0.071682,-0.002317,-11.090281,-39.483189,-11.85161
11700,1.060832,1.430388,3.045891,-0.16615,-0.483982,1.10231,0.122141,-0.990159,-0.068315,-0.072855,0.090821,0.009355,-11.806501,-39.264694,-11.885596
11720,0.954069,1.448754,-3.134723,-0.057368,-0.12691,1.157996,0.099312,-0.992562,-0.07041,-0.069069,-0.005241,0.092368,-11.806501,-39.264694,-11.885596
11740,0.805758,1.465104,-2.986563,-0.160386,-0.045718,1.165294,0.0761,-0.99442,-0.073063,0.027751,-0.058711,-0.035565,-13.490282,-38.713272,-11.902603
11760,0.601832,1.479202,-2.783989,-0.071538,-0.156226,1.252796,0.051784,-0.995808,-0.075396,0.059926,-0.077419,-0.023207,-14.865235,-38.167915,-12.025476
11780,0.320579,1.489886,-2.506161,-0.051859,-0.264456,1.318867,0.025468,-0.996729,-0.076704,0.051116,-0.130469,0.032881,-14.865235,-38.167915,-12.025476
11800,-0.029319,1.492996,-2.161467,-0.054348,-0.322658,1.38065,-0.002278,-0.996975,-0.077688,0.054784,-0.233768,0.110754,-16.392509,-37.542877,-12.008141
11820,-0.373788,1.486322,-1.823133,-0.03339,-0.384186,1.429686,-0.030809,-0.996434,-0.078548,0.090425,-0.268153,0.13441,-17.763657,-36.943192,-11.917641
11840,-0.665886,1.469889,-1.537016,-0.074172,-0.340628,1.639535,-0.06223,-0.994913,-0.079216,0.282521,-0.28536,0.128364,-19.499008,-36.108967,-11.760459
11860,-0.892371,1.442124,-1.314824,-0.06406,-0.242217,2.040217,-0.099903,-0.991733,-0.080528,0.429097,-0.25346,0.134819,-19.499008,-36.108967,-11.760459
11880,-1.073462,1.402916,-1.135193,0.057748,-0.127894,2.525277,-0.146851,-0.985941,-0.079717,0.479797,-0.296392,0.151449,-21.607182,-34.919353,-11.668136
11900,-1.199822,1.354458,-1.00947,0.078334,-0.163024,2.782098,-0.200053,-0.97669,-0.077818,0.545848,-0.388026,0.104551,-24.259914,-33.185204,-11.514158
11920,-1.288095,1.300721,-0.922694,0.152352,-0.223309,2.917536,-0.256213,-0.963751,-0.074425,0.709689,-0.353632,0.034661,-24.259914,-33.185204,-11.514158
11940,-1.356197,1.244848,-0.858592,0.281523,-0.412911,2.939026,-0.312863,-0.947347,-0.06819,0.864727,-0.335062,-0.004671,-27.097103,-31.015339,-11.232675
11960,-1.41738,1.188616,-0.806417,0.436643,-0.810112,2.914694,-0.368564,-0.927854,-0.056991,1.239551,-0.201327,-0.07045,-29.872814,-28.602514,-10.577727
11980,-1.495044,1.130242,-0.758163,0.795282,-2.164874,3.137688,-0.425218,-0.904516,-0.032273,1.339601,-0.362651,-0.017791,-29.872814,-28.602514,-10.577727
12000,-1.572351,1.04885,-0.716379,0.643188,-1.946836,5.289853,-0.498568,-0.86685,0.000775,0.530565,-2.105501,-0.292752,-32.825584,-25.924023,-8.532478
12020,-1.616935,0.903509,-0.697562,0.793848,-1.050263,7.500252,-0.618199,-0.785503,0.028543,0.663334,-1.176517,0.014761,-32.825584,-25.924023,-8.532478
12040,-1.624821,0.761273,-0.695566,0.167639,0.082278,6.548976,-0.722902,-0.689844,0.039092,0.141085,-0.619788,0.08368,-37.959179,-18.619507,-5.89847
12060,-1.610506,0.672616,-0.714239,-0.79551,0.100302,2.983083,-0.781578,-0.623034,0.031053,0.484459,-0.21478,-0.106172,-40.894871,-10.895071,-5.593231
12080,-1.609807,0.634778,-0.732035,-0.441085,-0.65977,2.291987,-0.804591,-0.592999,0.031404,-0.018514,-0.471408,-0.354966,-40.894871,-10.895071,-5.593231
12100,-1.607615,0.600386,-0.734443,0.125546,0.345521,0.650171,-0.824558,-0.564961,0.030373,0.447972,0.141163,0.070808,-41.631172,-7.752241,-5.396794
12120,-1.603004,0.628756,-0.730922,0.052897,0.168203,-2.364395,-0.80834,-0.588139,0.026044,0.719671,0.128591,0.098986,-41.7957,-6.631499,-5.614232
12140,-1.596913,0.69198,-0.732622,-0.31992,0.350981,-3.444389,-0.769722,-0.638063,0.020107,0.814399,0.419343,0.183872,-41.7957,-6.631499,-5.614232
12160,-1.583249,0.766063,-0.741693,-0.36586,0.360115,-3.835518,-0.72059,-0.693304,0.008974,0.974481,0.784521,0.006743,-41.049755,-10.102619,-5.935652
12180,-1.573478,0.847107,-0.744151,0.02087,0.484979,-4.155536,-0.662152,-0.749368,0.001775,0.829068,0.822869,0.030573,-39.871315,-13.833694,-6.425292
12200,-1.562352,0.936444,-0.741918,0.066938,0.764017,-4.753151,-0.592635,-0.805456,-0.005005,0.521697,0.661275,0.172561,-37.69669,-18.76582,-7.012911
12220,-1.538586,1.044534,-0.745969,-0.022125,1.083042,-5.81024,-0.502044,-0.864691,-0.016177,0.540237,0.577734,0.154833,-35.433403,-22.53241,-7.690353
12240,-1.511595,1.169871,-0.756361,0.14726,0.709758,-6.45042,-0.389587,-0.9207,-0.023091,0.51712,0.629395,0.054951,-35.433403,-22.53241,-7.690353
12260,-1.500757,1.299391,-0.760701,0.463303,0.102874,-6.398869,-0.267429,-0.963395,-0.018761,0.545047,0.323243,-0.119453,-28.462662,-30.662485,-8.489166
12280,-1.513598,1.429015,-0.754821,0.436376,-0.651558,-6.577044,-0.141076,-0.989966,-0.008078,0.280892,-0.024423,-0.150735,-24.324638,-34.135506,-8.090507
12300,-1.353486,1.566763,-0.937751,0.192879,-1.392613,-7.039028,-0.003938,-0.999992,-0.000869,0.067079,-0.182442,-0.177811,-24.324638,-34.135506,-8.090507
12320,1.565293,1.432357,2.393136,0.119013,-1.797559,-7.073352,0.137996,-0.990433,-0.000759,-0.243876,-0.685898,-0.127582,-17.065248,-38.48069,-7.098637
12340,1.549864,1.299659,2.372139,0.094026,-1.734577,-6.28169,0.267769,-0.963467,-0.005606,-0.508735,-0.919666,-0.057169,-17.065248,-38.48069,-7.098637
12360,1.522398,1.187923,2.369533,-0.334255,-1.367676,-5.120802,0.373149,-0.927595,-0.018074,-0.896175,-1.433046,0.106728,-6.644863,-41.725464,-6.099881
12380,1.490641,1.103935,2.381505,-0.559308,-0.788217,-3.541934,0.44864,-0.892985,-0.036038,-1.628145,-1.492207,0.615429,-0.687744,-42.200146,-6.407175
12400,1.469305,1.057166,2.406192,-1.08161,0.637532,-1.450858,0.488814,-0.870966,-0.049782,-2.224791,-0.801504,0.789116,-0.687744,-42.200146,-6.407175
12420,1.443344,1.051408,2.469354,-1.70153,1.8476,0.592045,0.492323,-0.868123,-0.06309,-2.558226,-0.505641,0.025736,2.173605,-41.975441,-7.464249
12440,1.438264,1.074552,2.51431,-0.301931,1.617096,1.545962,0.471951,-0.879377,-0.062917,-2.740796,0.423444,-0.284724,1.745522,-41.667213,-9.119972
12460,1.470784,1.107317,2.512955,0.363128,1.601914,1.775147,0.444829,-0.894502,-0.044637,-1.836354,-0.205473,0.157827,1.745522,-41.667213,-9.119972
12480,1.52496,1.105126,2.481059,0.745407,0.815603,-2.322419,0.44855,-0.893521,-0.020574,-0.832248,0.10809,0.243032,0.17124,-41.764023,-8.838222
12500,1.565042,1.029757,2.460478,0.28661,1.290306,-2.574572,0.515019,-0.857174,-0.002964,0.345333,-2.969059,0.811542,1.624014,-41.856323,-8.233339
12520,1.549211,1.060444,2.494669,-1.776339,0.610514,2.884641,0.488371,-0.872572,-0.010543,1.501543,-2.268938,0.987609,1.624014,-41.856323,-8.233339
12540,1.452719,1.123261,2.620464,-2.936527,0.715852,3.699899,0.429731,-0.901517,-0.050978,0.335863,0.182599,-0.126054,2.357838,-41.64571,-9.08035
12560,1.360612,1.196067,2.737773,-0.574025,0.333013,3.874429,0.357966,-0.930607,-0.076367,-0.561854,0.283069,-1.324222,-1.979012,-40.886089,-12.115622
12580,1.335986,1.262362,2.751435,0.854299,-0.503274,2.896435,0.295237,-0.95281,-0.070628,-0.291651,0.353078,0.03123,-4.948012,-40.679623,-11.960875
12600,1.347658,1.312931,2.732499,0.690368,-0.318424,2.227038,0.248694,-0.966937,-0.056433,-0.3301,0.166781,0.288885,-4.948012,-40.679623,-11.960875
12620,1.325566,1.351301,2.751203,-0.125134,-0.07387,1.559711,0.211223,-0.976007,-0.052862,-0.527873,-0.226339,0.536932,-8.051724,-40.472851,-10.931385
12640,1.240171,1.364274,2.841955,-1.045757,0.312996,0.519297,0.193951,-0.97875,-0.066569,-0.324216,0.030233,0.266428,-9.777702,-40.007175,-11.233857
12660,1.138106,1.358361,2.955436,-1.130121,0.568811,0.103654,0.19141,-0.97752,-0.088409,-0.141789,0.094143,0.02452,-9.777702,-40.007175,-11.233857
12680,1.103207,1.364508,2.997036,0.24437,-0.039469,0.701546,0.182842,-0.978798,-0.092324,0.317738,0.082909,-0.314735,-9.89613,-39.538002,-12.696074
12700,1.076936,1.384031,3.019433,0.098957,-0.216816,1.129592,0.163494,-0.98261,-0.088018,0.05965,-0.073985,0.226126,-10.761999,-39.358829,-12.547469
12720,0.984885,1.401332,3.107953,-0.324001,-0.247166,1.143762,0.140524,-0.985675,-0.093259,-0.020056,-0.066723,0.155515,-10.761999,-39.358829,-12.547469
12740,0.872564,1.418628,-3.066966,-0.074176,-0.300728,1.255002,0.116109,-0.988445,-0.097447,0.033153,-0.020863,-0.034496,-12.19865,-38.894886,-12.679026
12760,0.730971,1.436844,-2.9299,-0.103157,-0.286282,1.378556,0.089158,-0.991042,-0.099433,0.050581,-0.045808,0.045905,-13.781322,-38.361881,-12.681419
12780,0.525257,1.451913,-2.727959,-0.139719,-0.295125,1.51914,0.059472,-0.992942,-0.102615,0.08277,-0.04432,0.004913,-13.781322,-38.361881,-12.681419
12800,0.249242,1.462817,-2.457376,-0.044647,-0.404271,1.682307,0.026583,-0.994176,-0.10444,0.085324,-0.055827,-0.016761,-15.56142,-37.666168,-12.707448
12820,-0.087081,1.464857,-2.127323,-0.061892,-0.399542,1.780307,-0.009196,-0.994394,-0.10534,0.036113,-0.08216,0.084161,-17.602095,-36.80481,-12.567785
12840,-0.407058,1.453692,-1.81292,-0.118279,-0.341637,1.850548,-0.046257,-0.993151,-0.10729,0.028541,-0.105909,0.099615,-17.602095,-36.80481,-12.567785
12860,-0.658466,1.431945,-1.564512,-0.133913,-0.179482,1.968834,-0.084691,-0.990376,-0.10947,0.009649,-0.079998,0.255466,-19.725006,-35.744995,-12.473834
12880,-0.841819,1.400774,-1.37843,-0.197053,0.150146,2.17978,-0.126202,-0.985581,-0.112709,0.05679,-0.155746,0.099571,-21.879135,-34.442711,-12.545128
12900,-0.963305,1.362522,-1.250075,-0.239678,0.202806,2.277747,-0.169777,-0.978389,-0.118027,0.142891,-0.253407,-0.035949,-21.879135,-34.442711,-12.545128
12920,-1.056934,1.319943,-1.153358,-0.175168,-0.079354,2.481308,-0.216172,-0.968701,-0.122016,0.334855,-0.325229,-0.074318,-24.067442,-32.80817,-12.91353
12940,-1.140965,1.269881,-1.07276,-0.158355,-0.473264,2.86803,-0.269434,-0.955065,-0.123513,0.39773,-0.316556,-0.015098,-26.552286,-30.806528,-12.973472
12960,-1.212264,1.213755,-1.012203,-0.195167,-0.843659,2.989346,-0.32728,-0.936935,-0.122641,0.473993,-0.38176,-0.065851,-26.552286,-30.806528,-12.973472
12980,-1.274727,1.154548,-0.970374,-0.175096,-1.382239,3.10859,-0.38674,-0.914612,-0.117969,0.745871,-0.534835,-0.160031,-29.444393,-28.253765,-12.535136
13000,-1.349031,1.091647,-0.927868,0.259372,-2.133538,3.298832,-0.449734,-0.887388,-0.101403,1.035061,-0.57088,0.132806,-32.516327,-25.273987,-11.237941
13020,-1.441362,1.030601,-0.886061,0.565883,-3.150694,3.115849,-0.510001,-0.857608,-0.066383,1.153571,-0.710553,0.240394,-32.516327,-25.273987,-11.237941
13040,-1.529915,0.965361,-0.856603,0.462395,-2.843773,3.704983,-0.568644,-0.822255,-0.02326,0.632609,-1.075725,0.107214,-35.591076,-22.14509,-8.077587
13060,-1.580987,0.860616,-0.841933,0.378857,-1.507459,6.128187,-0.651937,-0.758244,0.006644,0.464925,-0.823787,-0.109199,-38.594124,-17.576292,-4.893342
13080,-1.601226,0.729526,-0.837426,0.270601,-0.393879,6.398914,-0.745145,-0.666516,0.022681,0.232969,-0.31734,-0.15499,-38.594124,-17.576292,-4.893342
13100,-1.60547,0.627128,-0.838605,-0.040535,-0.361849,4.168215,-0.80923,-0.586821,0.02807,-0.009343,0.095183,-0.145273,-41.029018,-11.158587,-3.805638
13120,-1.606902,0.585499,-0.851021,-0.677692,-0.504824,0.762683,-0.832893,-0.552615,0.030085,-0.014809,0.460269,-0.115382,-42.175034,-5.650955,-3.422072
13140,-1.619748,0.598902,-0.861919,-0.323678,-0.751801,-0.776453,-0.824966,-0.563736,0.040415,0.163558,0.364822,-0.291087,-42.262161,-5.292876,-2.876137
13160,-1.623391,0.623586,-0.858644,0.224059,0.274315,-2.03577,-0.810667,-0.58395,0.042676,0.714552,0.55476,-0.072751,-42.262161,-5.292876,-2.876137
13180,-1.627358,0.69306,-0.850512,0.02713,-0.105936,-4.120392,-0.768064,-0.638894,0.043489,0.839857,0.786126,0.218077,-41.866096,-7.961102,-2.495543
13200,-1.627617,0.786246,-0.847163,-0.201638,0.317793,-4.920905,-0.705367,-0.707706,0.040122,0.870116,0.839435,0.193352,-41.866096,-7.961102,-2.495543
13220,-1.615946,0.889536,-0.845069,-0.191819,0.771552,-5.211668,-0.62913,-0.77678,0.028425,0.947703,0.770554,0.124896,-40.441574,-13.42481,-2.575021
13240,-1.597767,0.992428,-0.841177,0.015124,1.200746,-5.115303,-0.54646,-0.837356,0.014742,0.824704,0.451232,0.05554,-38.805649,-17.50769,-3.15902
13260,-1.581724,1.101588,-0.837657,-0.106402,0.795604,-5.736821,-0.452153,-0.891927,0.004941,0.372136,0.370152,0.145312,-38.805649,-17.50769,-3.15902
13280,-1.549118,1.227723,-0.857616,-0.495868,0.613405,-6.654973,-0.336304,-0.941725,-0.007292,0.200821,0.266676,0.025831,-34.093849,-25.261154,-4.675521
13300,-1.489197,1.364966,-0.9178,-0.288751,-0.242009,-6.88604,-0.2037,-0.978892,-0.016659,0.118007,0.048472,-0.347401,-30.575329,-29.310196,-5.332818
13320,-1.438909,1.494672,-0.980968,0.520921,-0.599083,-6.182522,-0.075391,-0.997104,-0.010001,-0.216449,-0.238217,-0.373178,-24.005371,-34.868073,-5.507869
13340,1.575755,1.533829,2.268039,0.338051,-1.108134,-5.284721,0.036959,-0.999317,0.000183,-0.582994,-0.770077,-0.04541,-24.005371,-34.868073,-5.507869
13360,1.544954,1.43848,2.276982,-0.326237,-1.103221,-4.441868,0.131886,-0.991259,-0.003409,-1.200078,-1.589903,0.201132,-15.777757,-39.43959,-4.237718
13380,1.475659,1.362193,2.322297,-0.74807,-1.306467,-3.330239,0.206157,-0.978321,-0.019673,-1.34753,-1.318508,0.433018,-15.777757,-39.43959,-4.237718
13400,1.412654,1.314563,2.365599,-0.78943,-0.768368,-1.575246,0.250276,-0.967351,-0.039912,-1.796175,-0.674098,0.664974,-11.045727,-41.003838,-4.365125
13420,1.348491,1.306992,2.43387,-0.95295,0.686336,0.620887,0.254339,-0.965405,-0.057491,-2.183156,-0.341999,0.464458,-8.947445,-41.421108,-5.158712
13440,1.276899,1.325578,2.527312,-0.701275,0.806746,1.144534,0.232359,-0.970084,-0.070326,-2.335493,0.030311,0.269164,-8.947445,-41.421108,-5.158712
13460,1.292623,1.343022,2.541602,0.313237,2.278062,0.962333,0.21713,-0.974171,-0.062007,-1.793317,0.244862,0.41621,-9.939138,-41.001278,-6.518139
13480,1.357878,1.3188,2.512852,-0.01429,0.446615,-3.235826,0.243707,-0.968417,-0.052688,0.004492,-0.311872,-0.160904,-10.285809,-40.840675,-6.972697
13500,1.435522,1.240883,2.451896,0.299585,1.500163,-3.233953,0.321001,-0.94607,-0.04369,-0.010378,-0.383138,0.233723,-10.285809,-40.840675,-6.972697
13520,1.477512,1.213376,2.421818,-0.002774,0.285547,-0.594386,0.348338,-0.936802,-0.032589,0.5864,-0.376033,0.566418,-5.738901,-41.705891,-7.075357
13540,1.422897,1.217377,2.485601,-1.605533,0.49206,0.648466,0.342329,-0.938195,-0.051003,0.92589,-0.031608,0.507927,-4.473534,-41.848022,-7.14895
13560,1.347776,1.227748,2.573652,-0.883281,0.153797,0.95226,0.328029,-0.941734,-0.074395,0.188207,0.134788,-0.64437,-4.473534,-41.848022,-7.14895
13580,1.335255,1.250243,2.58259,0.486007,-0.320729,1.247564,0.306392,-0.949061,-0.073533,-0.135615,-0.018285,0.093751,-5.282063,-41.401634,-8.96559
13600,1.344112,1.274196,2.569781,0.315946,-0.118279,0.962818,0.284793,-0.956336,-0.065687,-0.256351,-0.001931,0.241148,-6.773963,-41.259964,-8.608467
13620,1.327327,1.286651,2.58425,-0.265466,-0.123751,0.445015,0.27207,-0.959901,-0.067581,-0.317877,0.014543,0.248886,-7.386612,-41.197037,-8.403533
13640,1.293929,1.28587,2.619783,-0.586086,0.081173,-0.133016,0.270382,-0.959682,-0.076833,-0.332287,-0.007282,0.153539,-7.386612,-41.197037,-8.403533
13660,1.268585,1.275412,2.648621,-0.423264,0.135572,-0.457706,0.277915,-0.95669,-0.086643,-0.040183,0.05897,-0.196713,-7.836884,-41.014145,-8.876946
13680,1.273175,1.267702,2.645423,0.100964,0.004651,-0.310841,0.285353,-0.954418,-0.087527,0.088,0.069133,-0.20239,-7.836884,-41.014145,-8.876946
13700,1.280241,1.26693,2.636246,0.084711,-0.10411,0.101465,0.28667,-0.954187,-0.08572,0.213192,-0.06092,0.018383,-7.101204,-41.049995,-9.319223
13720,1.273847,1.274824,2.639677,0.089709,-0.210712,0.539382,0.278905,-0.956519,-0.085344,0.202082,-0.052606,-0.018965,-7.101204,-41.049995,-9.319223
13740,1.26407,1.288712,2.643462,0.168674,-0.348461,0.713169,0.265366,-0.960477,-0.084047,0.040008,-0.011996,-0.012846,-7.769258,-40.968571,-9.142868
13760,1.250202,1.302424,2.65099,0.06677,-0.298416,0.64694,0.251652,-0.964204,-0.083561,-0.12981,0.016435,0.083408,-8.563302,-40.858379,-8.924109
13780,1.234068,1.313135,2.662888,0.026959,-0.20637,0.508373,0.240509,-0.966989,-0.084193,-0.118515,0.022622,-0.004003,-8.563302,-40.858379,-8.924109
13800,1.222517,1.322138,2.670223,0.084559,-0.233508,0.42429,0.231328,-0.969243,-0.083991,-0.0985,0.022619,-0.026025,-9.416861,-40.698532,-8.793712
13820,1.21473,1.330632,2.67342,0.113362,-0.230487,0.408358,0.222942,-0.971299,-0.082916,-0.060848,0.007676,0.017609,-9.896059,-40.617908,-8.638903
13840,1.205834,1.339633,2.679224,0.080629,-0.115272,0.474392,0.21402,-0.973401,-0.081772,-0.037079,-0.000797,0.061509,-9.896059,-40.617908,-8.638903
13860,1.194001,1.350297,2.69014,0.083811,-0.048876,0.590557,0.203374,-0.975788,-0.080475,-0.026677,-0.004787,0.056153,-10.590132,-40.481293,-8.455236
13880,1.176899,1.36353,2.705982,0.094981,-0.107846,0.733344,0.190026,-0.978597,-0.078978,0.00695,-0.040415,0.041869,-11.233195,-40.329666,-8.349298
13900,1.151313,1.378691,2.731437,0.062429,0.07127,0.826032,0.174373,-0.981604,-0.077762,0.117863,-0.041955,0.048832,-11.233195,-40.329666,-8.349298
13920,1.11975,1.398502,2.765428,0.205485,0.071053,1.143811,0.154297,-0.985194,-0.074733,0.146286,-0.085622,-0.021687,-12.400496,-40.009472,-8.236927
13940,1.076514,1.424326,2.808208,0.310558,-0.150397,1.407128,0.128479,-0.989292,-0.069237,0.272904,-0.278118,0.02311,-12.400496,-40.009472,-8.236927
13960,0.984549,1.454527,2.894011,0.271551,-0.449997,1.674436,0.096637,-0.993248,-0.06418,0.268414,-0.407936,0.250078,-13.882158,-39.58168,-7.934322
13980,0.757796,1.484382,3.111937,-0.005063,-0.485032,1.95844,0.059321,-0.996269,-0.062689,0.25678,-0.433465,0.266333,-15.909058,-38.907051,-7.451201
14000,0.276088,1.503404,-2.694596,-0.132208,-0.226718,2.0968,0.018357,-0.99773,-0.064791,0.36882,-0.554715,0.25313,-15.909058,-38.907051,-7.451201
14020,-0.348118,1.496666,-2.073781,-0.281764,-0.269232,2.226523,-0.025265,-0.997254,-0.06962,0.606808,-0.626449,0.184702,-18.292553,-37.871433,-7.315338
14040,-0.753883,1.465053,-1.675245,-0.436461,-0.558464,2.335931,-0.072244,-0.994414,-0.076947,0.641931,-0.63263,0.003537,-20.828045,-36.509018,-7.46065
14060,-0.960628,1.422791,-1.483397,-0.504257,-0.986382,2.404968,-0.120856,-0.989067,-0.084499,0.366644,-0.685127,-0.229375,-23.069622,-35.12965,-7.488472
14080,-1.052169,1.376454,-1.420089,-0.927393,-1.786481,2.16109,-0.167726,-0.981175,-0.095728,0.336,-0.613857,-0.320822,-23.069622,-35.12965,-7.488472
14100,-1.101972,1.331108,-1.410134,-0.964384,-2.035418,2.09277,-0.211785,-0.971412,-0.107266,0.265801,-0.627465,-0.395587,-25.699997,-33.317055,-7.201478
14120,-1.159454,1.280418,-1.394802,-0.828411,-2.026674,2.261365,-0.262432,-0.958136,-0.11448,-0.047474,-0.403421,-0.153937,-28.288101,-31.317936,-6.430181
14140,-1.180768,1.246864,-1.412062,-1.018585,-1.831614,0.969652,-0.294392,-0.947991,-0.121021,-0.064327,-0.299583,0.014301,-28.288101,-31.317936,-6.430181
14160,-1.153651,1.225571,-1.47755,-1.633409,-1.672271,0.43052,-0.30939,-0.940999,-0.137107,-0.038175,-0.293971,0.087241,-29.972687,-29.873682,-5.619454
14180,-1.103335,1.20435,-1.562321,-1.824384,-1.310946,0.238477,-0.31986,-0.933606,-0.161458,-0.141062,-0.252261,-0.017482,-30.62001,-29.21402,-5.597594
14200,-1.043273,1.184099,-1.65007,-1.980178,-0.924115,0.073141,-0.325863,-0.92616,-0.189846,-0.240666,-0.230823,0.084209,-30.62001,-29.21402,-5.597594
14220,-0.970063,1.161769,-1.746338,-2.278068,-0.693327,-0.153218,-0.328085,-0.917508,-0.224809,-0.273157,-0.196368,0.130311,-30.918911,-28.760555,-6.263267
14240,-0.883898,1.13793,-1.85208,-2.536201,-0.419442,-0.462608,-0.324345,-0.907767,-0.266006,-0.382031,-0.034494,0.163986,-30.887135,-28.459616,-7.642794
14260,-0.681633,1.086741,-2.079449,-2.678875,0.30102,-1.164868,-0.293214,-0.885115,-0.361383,-0.437881,0.093565,0.173959,-30.591751,-28.401352,-8.937851
14280,-0.786188,1.112707,-1.965345,-2.700238,-0.084499,-0.836816,-0.312954,-0.896899,-0.31246,-0.41814,0.10535,0.125036,-30.591751,-28.401352,-8.937851
14300,-0.577642,1.057615,-2.187764,-2.731166,0.507106,-1.246956,-0.268084,-0.871187,-0.411296,-0.336255,0.161714,0.222163,-29.247856,-28.574036,-12.266406
14320,-0.480664,1.021854,-2.286334,-2.831809,0.639221,-1.263083,-0.241257,-0.853077,-0.46266,-0.419113,0.210514,0.331465,-28.384922,-28.559446,-14.178552
14340,-0.39187,0.981502,-2.375235,-2.829042,0.754715,-1.352555,-0.21226,-0.831333,-0.513645,-0.424123,0.213795,0.414615,-28.384922,-28.559446,-14.178552
14360,-0.310155,0.93871,-2.454424,-2.758178,0.866875,-1.419532,-0.180325,-0.806797,-0.562638,-0.353321,0.254154,0.473008,-26.383301,-28.19982,-18.195293
14380,-0.238574,0.89421,-2.522454,-2.657157,0.871095,-1.343701,-0.147966,-0.779715,-0.608401,-0.296003,0.338156,0.496157,-26.383301,-28.19982,-18.195293
14400,-0.179955,0.849314,-2.575753,-2.465731,0.91928,-1.121615,-0.11822,-0.750827,-0.649832,-0.346426,0.355198,0.475638,-24.708784,-27.665615,-21.129763
14420,-0.131662,0.807773,-2.61434,-2.118711,1.023311,-0.871647,-0.09073,-0.72275,-0.685128,-0.506178,0.414278,0.487603,-23.183434,-26.823853,-23.777859
14440,-0.090515,0.771365,-2.642175,-1.808797,1.099315,-0.743222,-0.064807,-0.697115,-0.714025,-0.496289,0.417436,0.541753,-23.183434,-26.823853,-23.777859
14460,-0.053701,0.739181,-2.664091,-1.575944,1.074594,-0.61389,-0.039667,-0.673683,-0.737955,-0.212622,0.383354,0.519968,-21.766449,-25.915478,-26.018972
14480,-0.022867,0.711258,-2.677583,-1.303731,1.111918,-0.361939,-0.017321,-0.652787,-0.757343,-0.136518,0.47545,0.540806,-20.863518,-25.330122,-27.303402
14500,0.003459,0.689706,-2.685641,-0.936994,0.983449,-0.268626,0.002668,-0.63631,-0.771428,-0.107206,0.454548,0.544698,-19.672594,-24.493603,-28.903799
14520,0.020185,0.674555,-2.689401,-0.694941,0.356361,-0.02861,0.015763,-0.62455,-0.780826,0.002593,0.379769,0.563388,-19.672594,-24.493603,-28.903799
14540,0.012933,0.662196,-2.684567,-0.509165,-0.454066,0.302898,0.010199,-0.61485,-0.788578,-0.177817,0.440839,0.609058,-19.004534,-23.887821,-29.842537
14560,0.000777,0.660515,-2.673509,0.192375,-0.161397,0.453373,0.000613,-0.613523,-0.789676,-0.367603,0.220442,0.573749,-19.499838,-23.353516,-29.945732
14580,-0.001825,0.663748,-2.660766,0.072411,0.57734,0.569486,-0.001437,-0.616073,-0.787688,-0.418851,0.012573,0.653014,-19.499838,-23.353516,-29.945732
14600,0.009545,0.665961,-2.647703,0.206757,1.129314,0.477155,0.007505,-0.617815,-0.786288,-0.030409,0.159807,0.124255,-19.423531,-23.117725,-30.17738
14620,0.032463,0.675971,-2.641677,0.485497,1.073341,0.043957,0.02532,-0.625655,-0.779689,-0.203115,0.049041,0.025325,-18.770424,-23.240545,-30.494678
14640,0.050417,0.678814,-2.645555,0.105704,0.801809,-0.120867,0.039224,-0.62787,-0.777329,0.092887,-0.086043,-0.02037,-18.770424,-23.240545,-30.494678
14660,0.058379,0.684278,-2.640559,0.33055,0.342124,0.470786,0.045211,-0.632114,-0.773556,0.179307,-0.079602,-0.238087,-17.947653,-23.484856,-30.801308
14680,0.051499,0.69299,-2.622788,0.386888,0.19317,0.741494,0.039603,-0.63884,-0.76832,-0.086371,-0.089935,-0.071158,-17.947653,-23.484856,-30.801308
14700,0.048327,0.696852,-2.606869,-0.017241,0.495575,0.518164,0.037046,-0.641807,-0.765971,-0.110151,-0.119851,0.040324,-18.06917,-23.516497,-30.705971
14720,0.056228,0.691346,-2.595288,-0.439488,0.85053,0.387516,0.043294,-0.637575,-0.769171,0.085902,-0.096343,-0.143442,-18.055588,-23.342354,-30.846516
14740,0.064372,0.679927,-2.585907,-0.659842,0.53727,0.292221,0.050022,-0.628736,-0.776008,0.121121,-0.083956,-0.256905,-17.581604,-22.710194,-31.583403
14760,0.063623,0.66564,-2.577768,-0.758607,0.035742,0.275942,0.050007,-0.617562,-0.784931,0.087353,-0.080833,-0.17854,-17.581604,-22.710194,-31.583403
14780,0.055285,0.650443,-2.569037,-0.785154,-0.206418,0.309934,0.043974,-0.605539,-0.7946,-0.061156,-0.06478,0.059844,-17.555214,-21.867887,-32.186752
14800,0.047114,0.634895,-2.560371,-0.792056,-0.072532,0.287578,0.037919,-0.593093,-0.804241,-0.041413,-0.05185,0.128734,-17.924194,-20.937641,-32.599319
14820,0.045917,0.619483,-2.553868,-0.768257,0.249098,0.188604,0.037371,-0.580614,-0.813321,0.032148,-0.059553,0.1349,-17.924194,-20.937641,-32.599319
14840,0.05013,0.605391,-2.549415,-0.675037,0.363339,0.129125,0.041204,-0.569084,-0.821247,0.062953,-0.04847,0.041675,-17.940071,-20.047588,-33.145515
14860,0.054388,0.593383,-2.545982,-0.563582,0.245871,0.098391,0.045068,-0.559169,-0.827828,0.066809,-0.037542,0.030404,-17.673483,-19.316797,-33.717747
14880,0.054793,0.584138,-2.543305,-0.416343,0.022013,0.079415,0.045685,-0.55148,-0.832936,0.071213,-0.020511,0.049382,-17.673483,-19.316797,-33.717747
14900,0.052357,0.577927,-2.540857,-0.250696,-0.100765,0.094592,0.043834,-0.546289,-0.836449,-0.108745,0.018777,0.121377,-17.619221,-18.793907,-34.040112
14920,0.05051,0.57423,-2.538324,-0.141601,0.025385,0.099076,0.042391,-0.543188,-0.83854,-0.1225,0.003836,0.164208,-17.717354,-18.528744,-34.134415
14940,0.050273,0.573556,-2.535166,0.020483,0.113299,0.155855,0.042211,-0.542622,-0.838916,-0.111623,-0.018138,0.166415,-17.717354,-18.528744,-34.134415
14960,0.050023,0.576101,-2.529407,0.164034,0.143197,0.305288,0.041931,-0.544758,-0.837544,-0.119385,-0.066021,0.159215,-17.728693,-18.382587,-34.20747
14980,0.048051,0.580193,-2.521019,0.180855,0.126421,0.374573,0.040172,-0.548185,-0.835392,-0.089367,-0.106585,0.101078,-17.738779,-18.37612,-34.205719
15000,0.045885,0.583057,-2.512215,0.086106,0.139533,0.379738,0.03829,-0.550579,-0.833905,-0.057745,-0.102864,0.004834,-17.738779,-18.37612,-34.205719
15020,0.042832,0.583838,-2.502514,-0.01642,0.086898,0.417905,0.035726,-0.55123,-0.833588,-0.130743,-0.072061,-0.062332,-17.810455,-18.326345,-34.195175
15040,0.037117,0.582639,-2.492344,-0.106495,-0.076512,0.417707,0.030986,-0.55023,-0.834438,-0.028728,-0.006258,-0.065678,-17.943222,-18.100788,-34.245865
15060,0.028567,0.579801,-2.483174,-0.176107,-0.215798,0.356816,0.023895,-0.547858,-0.83623,-0.014542,-0.000726,-0.021665,-17.943222,-18.100788,-34.245865
15080,0.012181,0.58904,-2.470658,-0.224418,-0.08946,0.276868,0.010128,-0.555563,-0.831413,-0.02647,0.004919,0.09011,-18.292503,-17.748466,-34.245487
15100,0.009191,0.584712,-2.465293,-0.211009,0.026011,0.190612,0.007664,-0.55196,-0.833836,-0.030278,0.017597,0.087452,-18.856556,-17.737474,-33.943916
15120,0.006519,0.58086,-2.461422,-0.176125,-0.06998,0.146962,0.00545,-0.548743,-0.835973,0.032804,0.009086,0.018529,-18.856556,-17.737474,-33.943916
15140,0.010246,0.576811,-2.461637,-0.154798,-0.057255,0.15658,0.008588,-0.545354,-0.838162,-0.101087,0.010915,0.063473,-18.958389,-17.434605,-34.043957
15160,-0.004364,0.575544,-2.451186,-0.160914,0.010769,0.148084,-0.003661,-0.544291,-0.838888,-0.033754,0.021266,0.044455,-18.868341,-17.21903,-34.203331
15180,-0.006868,0.572525,-2.448033,-0.136709,-0.078706,0.127859,-0.005773,-0.541756,-0.840516,0.004247,0.028802,0.041932,-18.868341,-17.21903,-34.203331
15200,-0.010317,0.570359,-2.445063,-0.091997,-0.086323,0.123673,-0.008684,-0.539934,-0.841663,-0.065642,0.035433,0.104938,-19.438707,-16.841524,-34.071644
15220,-0.012889,0.569004,-2.442198,-0.052347,-0.020542,0.124824,-0.010858,-0.538793,-0.842368,-0.065665,0.017965,0.091743,-19.438707,-16.841524,-34.071644
15240,-0.030548,0.57132,-2.429929,-0.041333,0.081518,0.134489,-0.025693,-0.540743,-0.840795,-0.056568,0.020632,0.057913,-19.438707,-16.841524,-34.071644
15260,-0.030585,0.57003,-2.426632,-0.073338,0.075309,0.148283,-0.025745,-0.539657,-0.841491,-0.05235,0.006531,-0.041184,-20.085361,-16.603897,-33.812214
15280,-0.032004,0.56816,-2.423254,-0.093878,-0.016122,0.131177,-0.026971,-0.538082,-0.842461,-0.030097,0.022518,-0.040672,-20.072901,-16.506641,-33.867191
15300,-0.03346,0.560025,-2.421314,-0.086531,-0.067356,0.088553,-0.028343,-0.531208,-0.846768,0.004509,0.019504,0.000973,-20.116209,-16.125,-34.024986
15320,-0.035698,0.558862,-2.41942,-0.037453,-0.045211,0.086513,-0.030261,-0.530221,-0.847319,-0.045698,-0.003119,0.05168,-20.116209,-16.125,-34.024986
15340,-0.045816,0.565212,-2.412297,-0.039159,0.064293,0.086555,-0.038677,-0.535595,-0.843589,-0.040485,-0.022159,0.036338,-20.220524,-16.004448,-34.020069
15360,-0.04504,0.564317,-2.410588,-0.023034,0.086598,0.077099,-0.038044,-0.534839,-0.844097,0.014622,-0.040539,0.056179,-20.509888,-16.077456,-33.811787
15380,-0.048564,0.579041,-2.405219,-0.039655,0.204756,0.100552,-0.040631,-0.547221,-0.836001,-0.037783,-0.009679,0.020755,-20.509888,-16.077456,-33.811787
15400,-0.049818,0.573199,-2.400653,-0.066352,0.179273,0.085588,-0.041838,-0.542323,-0.839128,-0.03058,0.015803,-0.042601,-20.577101,-16.476416,-33.578083
15420,-0.04865,0.571802,-2.39888,-0.067774,0.078238,0.075971,-0.040895,-0.541148,-0.839932,-0.036192,0.001003,-0.022449,-20.572296,-16.163395,-33.732807
15440,-0.048587,0.569887,-2.397436,-0.108452,0.013461,0.059901,-0.040892,-0.539537,-0.840968,-0.029268,-0.003294,-0.040822,-20.572296,-16.163395,-33.732807
15460,-0.052144,0.565556,-2.395215,-0.152364,-0.060873,0.043827,-0.044004,-0.535886,-0.843143,-0.003221,-0.004993,-0.025799,-20.5487,-16.035746,-33.808033
15480,-0.05359,0.562031,-2.394536,-0.186359,-0.045925,0.030984,-0.045325,-0.532906,-0.84496,-0.001657,-0.004356,-0.011303,-20.688694,-15.784887,-33.840691
