timestamp(unix),attitude_roll(radians),attitude_pitch(radians),attitude_yaw(radians),rotation_rate_x(radians/s),rotation_rate_y(radians/s),rotation_rate_z(radians/s),gravity_x(G),gravity_y(G),gravity_z(G),user_acc_x(G),user_acc_y(G),user_acc_z(G),magnetic_field_x(microteslas),magnetic_field_y(microteslas),magnetic_field_z(microteslas),latitude(degree),longitude(degree),altitude(meter),speed(m/s),course(degree),timestamp(unix)
1478209376.71,0.901112,1.505264,-2.526594,0.026466,0.066202,-0.012377,0.051342,-0.997854,-0.040650,0.000584,0.002889,0.004807,5.679321,-36.925034,21.461121,,,,,,
,,,,,,,,,,,,,,,,37.322668,-122.017224,60.779205,0.420000,92.812500,1478209300.00
,,,,,,,,,,,,,,,,37.322668,-122.017224,60.779205,0.420000,92.812500,1478209292.00
,,,,,,,,,,,,,,,,37.322668,-122.017224,60.779205,0.420000,92.812500,1478209300.00
1478209376.73,0.914849,1.504854,-2.539735,0.024212,0.014133,-0.021893,0.052220,-0.997827,-0.040190,0.013607,-0.009391,-0.001131,5.754211,-36.849854,21.311646,,,,,,
1478209376.75,0.922812,1.504889,-2.547438,0.018895,0.020525,-0.019802,0.052510,-0.997829,-0.039751,-0.007954,-0.018971,0.001437,5.754211,-36.849854,21.311646,,,,,,
1478209376.77,0.930430,1.504749,-2.554773,0.009234,0.010972,-0.017710,0.052924,-0.997820,-0.039434,-0.002920,0.002245,0.002966,5.304993,-36.775055,21.608215,,,,,,
,,,,,,,,,,,,,,,,37.320252,-122.012089,60.779205,-1.000000,-1.000000,1478209376.77
,,,,,,,,,,,,,,,,37.318955,-122.009442,60.779205,-1.000000,-1.000000,1478209376.77
1478209376.79,0.941438,1.504451,-2.565882,-0.000423,-0.011320,-0.018796,0.053595,-0.997800,-0.039024,0.012354,-0.003634,0.011863,5.528870,-36.924622,21.234985,,,,,,
1478209376.81,0.947334,1.504222,-2.571813,-0.014192,0.008926,-0.019967,0.054009,-0.997785,-0.038840,-0.002068,-0.003466,0.012855,5.757538,-35.950653,21.836182,,,,,,
1478209376.83,0.948904,1.504016,-2.572716,-0.017277,0.041892,-0.018968,0.054237,-0.997771,-0.038876,-0.005470,-0.006089,0.004955,5.756592,-36.325653,21.836365,,,,,,
1478209376.85,0.948364,1.503426,-2.571548,-0.018453,0.021685,-0.012558,0.054695,-0.997731,-0.039248,0.007317,-0.008235,-0.000699,5.756592,-36.325653,21.836365,,,,,,
1478209376.87,0.948489,1.502787,-2.571460,-0.015316,0.008913,-0.010394,0.055218,-0.997688,-0.039613,0.007832,0.000893,-0.001342,5.979584,-36.775070,21.388245,,,,,,
1478209376.89,0.944702,1.502431,-2.567278,-0.005649,0.030146,-0.011437,0.055354,-0.997664,-0.040030,-0.005901,0.001433,-0.006494,5.753876,-36.924744,21.236694,,,,,,
1478209376.91,0.940854,1.501868,-2.562924,-0.006782,0.007828,-0.013538,0.055654,-0.997625,-0.040573,0.011546,-0.014307,-0.010757,5.979370,-36.925186,21.463379,,,,,,
1478209376.93,0.941043,1.501754,-2.563262,-0.000511,-0.011346,-0.009212,0.055754,-0.997617,-0.040630,-0.008711,0.005781,0.003307,5.754791,-36.624847,21.311523,,,,,,
1478209376.95,0.941237,1.501721,-2.563565,-0.004725,0.000364,-0.010317,0.055788,-0.997615,-0.040638,-0.002611,-0.007374,0.001683,5.754791,-36.624847,21.311523,,,,,,
1478209376.97,0.943571,1.501661,-2.565867,-0.012186,0.002511,-0.008232,0.055931,-0.997611,-0.040543,-0.000740,-0.008843,0.010026,5.754059,-36.849747,21.236633,,,,,,
1478209376.99,0.950341,1.502008,-2.572354,-0.044192,0.017469,0.008602,0.055923,-0.997635,-0.039962,0.002061,-0.000641,0.044845,5.903259,-37.074600,21.087830,,,,,,
1478209377.01,0.957632,1.501494,-2.579216,-0.093388,0.009075,0.036015,0.056632,-0.997600,-0.039849,0.043511,-0.006230,0.042351,5.829987,-36.549881,21.312073,,,,,,
1478209377.03,0.918230,1.501050,-2.540024,-0.139624,-0.033380,0.080535,0.055371,-0.997569,-0.042318,0.067920,-0.019414,0.027517,5.978149,-36.999390,20.938416,,,,,,
1478209377.05,0.875187,1.499870,-2.498175,-0.165676,-0.088661,0.127307,0.054402,-0.997486,-0.045415,0.075664,-0.019070,0.007405,5.978149,-36.999390,20.938416,,,,,,
1478209377.07,0.808189,1.499800,-2.433323,-0.179910,-0.132270,0.164553,0.051290,-0.997481,-0.049004,0.059550,-0.015443,0.006478,5.527527,-37.224167,20.935181,,,,,,
1478209377.09,0.738473,1.499234,-2.366509,-0.181267,-0.172738,0.184836,0.048131,-0.997441,-0.052875,0.030070,-0.012142,-0.004514,5.752228,-37.224060,20.786804,,,,,,
1478209377.11,0.663657,1.499125,-2.295403,-0.163313,-0.198330,0.195619,0.044112,-0.997433,-0.056411,-0.006011,0.007427,-0.022630,5.601593,-37.298630,20.560730,,,,,,
1478209377.13,0.592785,1.499099,-2.228130,-0.129176,-0.184620,0.195786,0.040021,-0.997431,-0.059414,-0.017774,0.005182,-0.024647,5.076263,-37.147812,20.181702,,,,,,
1478209377.15,0.526853,1.499550,-2.165569,-0.081287,-0.179479,0.206686,0.035793,-0.997463,-0.061533,0.013157,-0.002369,-0.052893,5.076263,-37.147812,20.181702,,,,,,
1478209377.17,0.466010,1.500747,-2.108103,-0.022683,-0.167982,0.211249,0.031449,-0.997548,-0.062528,0.010742,0.011387,-0.063998,5.526550,-37.148270,20.335083,,,,,,
1478209377.19,0.406845,1.502679,-2.052069,0.023073,-0.169207,0.218954,0.026934,-0.997681,-0.062509,0.004758,0.007218,-0.040244,5.374664,-37.597626,19.959106,,,,,,
1478209377.21,0.345626,1.505047,-1.994389,0.046359,-0.194816,0.228701,0.022259,-0.997839,-0.061816,0.020420,-0.006174,-0.022046,4.625153,-37.522476,20.103455,,,,,,
1478209377.23,0.279565,1.507585,-1.932118,0.063388,-0.191689,0.233048,0.017431,-0.998003,-0.060717,0.002772,0.007463,-0.011396,4.700500,-37.447617,20.179016,,,,,,
1478209377.25,0.207542,1.509860,-1.863454,0.054931,-0.166192,0.234037,0.012548,-0.998144,-0.059591,0.005350,-0.000300,0.012472,4.700500,-37.447617,20.179016,,,,,,
1478209377.27,0.131968,1.511434,-1.790743,0.031601,-0.141658,0.230678,0.007807,-0.998239,-0.058811,0.009680,-0.016990,0.021732,4.475891,-37.522964,20.477417,,,,,,
1478209377.29,0.056609,1.512567,-1.717895,-0.006732,-0.131971,0.233645,0.003293,-0.998305,-0.058103,0.014926,0.005645,0.031186,4.175507,-37.372238,20.100037,,,,,,
1478209377.31,-0.025999,1.512072,-1.637470,-0.047109,-0.096761,0.236563,-0.001526,-0.998276,-0.058671,0.019379,-0.010025,0.024919,4.401093,-37.372787,20.401794,,,,,,
1478209377.33,-0.101263,1.510978,-1.562967,-0.086157,-0.006254,0.228759,-0.006043,-0.998211,-0.059477,-0.001327,-0.014728,0.028654,4.400787,-37.447693,20.326782,,,,,,
1478209377.35,-0.160095,1.508085,-1.503273,-0.138170,0.035389,0.222020,-0.009990,-0.998034,-0.061869,0.019726,-0.014325,-0.001074,4.400787,-37.447693,20.326782,,,,,,
1478209377.37,-0.217133,1.504338,-1.445787,-0.149934,0.008862,0.214544,-0.014307,-0.997792,-0.064850,-0.008902,-0.001231,-0.022308,3.725159,-37.522018,20.096741,,,,,,
1478209377.39,-0.263150,1.500971,-1.398789,-0.100449,0.089557,0.182759,-0.018148,-0.997563,-0.067367,-0.079920,0.009419,-0.067124,4.323273,-37.971756,19.726440,,,,,,
1478209377.41,-0.290284,1.499411,-1.367208,-0.004406,0.291345,0.095706,-0.020415,-0.997453,-0.068341,-0.079149,0.016450,-0.103122,3.499542,-37.746887,20.095154,,,,,,
1478209377.43,-0.306167,1.500736,-1.344693,0.139899,0.329251,0.038958,-0.021099,-0.997547,-0.066747,-0.056858,0.044193,-0.131418,3.425110,-37.521866,20.094482,,,,,,
1478209377.45,-0.322423,1.504686,-1.322726,0.251725,0.258782,0.004551,-0.020933,-0.997815,-0.062658,-0.060473,0.032148,-0.091563,3.425110,-37.521866,20.094482,,,,,,
1478209377.47,-0.346977,1.509988,-1.293672,0.293126,0.202316,-0.003651,-0.020666,-0.998152,-0.057150,-0.016230,0.027571,-0.010340,3.123993,-37.971710,20.092468,,,,,,
1478209377.49,-0.375968,1.515493,-1.261172,0.284491,0.158766,-0.010019,-0.020295,-0.998471,-0.051414,0.028581,0.006940,0.024391,3.275391,-37.597122,20.318420,,,,,,
1478209377.51,-0.408420,1.520082,-1.225488,0.223748,0.179137,0.004519,-0.020133,-0.998714,-0.046523,0.010856,-0.031117,0.036986,3.351013,-37.522491,20.544006,,,,,,
1478209377.53,-0.433737,1.523268,-1.195961,0.147243,0.225111,-0.001294,-0.019967,-0.998871,-0.043111,0.026162,-0.043808,0.068822,2.978485,-37.073334,21.215942,,,,,,
1478209377.55,-0.451534,1.525109,-1.173920,0.084188,0.195519,0.014373,-0.019929,-0.998957,-0.041094,0.036408,-0.009894,0.047671,2.978485,-37.073334,21.215942,,,,,,
1478209377.57,-0.463293,1.525703,-1.158598,0.018002,0.164837,0.016209,-0.020145,-0.998983,-0.040327,0.030735,-0.002863,0.069547,3.277435,-37.373245,21.068298,,,,,,
1478209377.59,-0.463138,1.525107,-1.156006,-0.051426,0.123589,0.022277,-0.020405,-0.998956,-0.040862,0.016972,-0.021124,0.050185,3.051819,-37.372665,20.766663,,,,,,
1478209377.61,-0.450346,1.523220,-1.166564,-0.119606,0.115313,0.017657,-0.020701,-0.998868,-0.042817,0.005244,-0.010775,0.064378,2.826477,-37.522568,20.765015,,,,,,
1478209377.63,-0.427816,1.520382,-1.186772,-0.165388,0.118655,0.015272,-0.020907,-0.998729,-0.045851,0.007098,0.001446,0.040297,2.527283,-37.372726,20.987671,,,,,,
1478209377.65,-0.402078,1.516904,-1.210284,-0.193148,0.100671,0.015147,-0.021080,-0.998548,-0.049570,0.022590,-0.001940,0.023920,2.527283,-37.372726,20.987671,,,,,,
1478209377.67,-0.378093,1.513038,-1.232937,-0.213570,0.050768,0.016175,-0.021310,-0.998332,-0.053649,0.026543,-0.013844,0.013579,2.376129,-37.597214,20.686646,,,,,,
1478209377.69,-0.353680,1.509457,-1.257039,-0.232852,-0.003367,0.003376,-0.021232,-0.998119,-0.057506,0.002753,-0.004322,0.014690,2.452148,-37.372589,20.912170,,,,,,
1478209377.71,-0.328482,1.504990,-1.282899,-0.242514,-0.043716,-0.007260,-0.021214,-0.997836,-0.062242,-0.020900,-0.018095,-0.006651,2.524994,-37.746719,20.312866,,,,,,
1478209377.73,-0.303090,1.500624,-1.309449,-0.234961,-0.054335,-0.028492,-0.020927,-0.997539,-0.066919,0.006599,-0.004536,-0.003347,2.375244,-37.596542,20.236633,,,,,,
1478209377.75,-0.273670,1.496455,-1.339651,-0.230397,-0.017090,-0.056201,-0.020074,-0.997238,-0.071509,-0.013908,0.002395,-0.008478,2.375244,-37.596542,20.236633,,,,,,
1478209377.77,-0.245405,1.492506,-1.368389,-0.234500,-0.035088,-0.091322,-0.019001,-0.996937,-0.075867,-0.005916,-0.021984,0.014725,2.449066,-37.821136,19.937256,,,,,,
1478209377.79,-0.210840,1.488297,-1.404543,-0.243208,-0.095652,-0.095535,-0.017246,-0.996599,-0.080581,-0.008953,-0.009108,0.008880,2.449066,-37.821136,19.937256,,,,,,
1478209377.81,-0.181014,1.484273,-1.437303,-0.261515,-0.177430,-0.109349,-0.015557,-0.996259,-0.085003,0.022225,0.002119,-0.004352,3.048004,-37.820648,19.416809,,,,,,
1478209377.83,-0.162109,1.478574,-1.460286,-0.255018,-0.178482,-0.127402,-0.014864,-0.995751,-0.090884,-0.044051,-0.023750,-0.028180,3.123047,-38.046143,19.717468,,,,,,
1478209377.85,-0.124623,1.474563,-1.499752,-0.203098,-0.041418,-0.176292,-0.011943,-0.995373,-0.095340,-0.039982,0.000317,-0.066434,3.123047,-38.046143,19.717468,,,,,,
1478209377.87,-0.085685,1.468933,-1.539007,-0.109017,0.006170,-0.205650,-0.008702,-0.994816,-0.101314,-0.020793,0.020085,-0.092808,3.272156,-38.045547,19.268616,,,,,,
1478209377.89,-0.044840,1.468241,-1.580589,-0.009051,-0.063239,-0.216704,-0.004589,-0.994746,-0.102273,0.017055,0.037699,-0.094825,3.421387,-38.045059,18.894714,,,,,,
1478209377.91,-0.004210,1.469377,-1.624339,0.086463,-0.196412,-0.233008,-0.000426,-0.994861,-0.101245,0.017440,-0.001614,-0.090833,3.720520,-38.345093,18.822083,,,,,,
1478209377.93,0.040004,1.472040,-1.673092,0.165371,-0.210454,-0.252779,0.003943,-0.995128,-0.098517,-0.042472,0.002681,-0.078775,3.795227,-38.344910,18.672668,,,,,,
1478209377.95,0.095995,1.475827,-1.732366,0.229885,-0.106409,-0.289840,0.009089,-0.995494,-0.094390,-0.067667,0.026271,-0.053163,3.795227,-38.344910,18.672668,,,,,,
1478209377.97,0.167784,1.479874,-1.805157,0.252855,0.009454,-0.320761,0.015163,-0.995869,-0.089522,-0.028942,-0.008723,-0.012850,4.172028,-38.045883,19.200317,,,,,,
1478209377.99,0.250164,1.483400,-1.886495,0.244600,0.091337,-0.317737,0.021609,-0.996183,-0.084568,-0.001269,-0.009325,0.009037,4.846375,-38.196014,19.055481,,,,,,
1478209378.01,0.337884,1.486134,-1.972445,0.231822,0.114660,-0.309291,0.028031,-0.996418,-0.079780,0.008407,-0.005306,-0.002236,5.072327,-38.121674,19.432129,,,,,,
1478209378.03,0.420694,1.488015,-2.052787,0.197527,0.143390,-0.260556,0.033769,-0.996576,-0.075477,0.042723,0.020150,0.045936,4.923737,-37.897293,19.880859,,,,,,
1478209378.05,0.492719,1.488972,-2.123030,0.152249,0.060542,-0.221292,0.038662,-0.996654,-0.072011,0.102924,-0.015232,0.035131,4.923737,-37.897293,19.880859,,,,,,
1478209378.07,0.544784,1.489420,-2.175885,0.116171,-0.079799,-0.152084,0.042125,-0.996691,-0.069519,0.060429,-0.017347,0.013047,5.299683,-37.823044,20.258728,,,,,,
1478209378.09,0.579453,1.489744,-2.213418,0.083638,-0.165885,-0.108487,0.044333,-0.996717,-0.067747,0.070551,-0.001086,0.034819,5.074982,-37.597702,20.106873,,,,,,
1478209378.11,0.601723,1.489647,-2.239416,0.038657,-0.182800,-0.079967,0.045885,-0.996709,-0.066823,0.043760,-0.030253,0.028142,5.299683,-37.522476,19.883484,,,,,,
1478209378.13,0.616738,1.489271,-2.257678,0.024830,-0.151948,-0.066251,0.047100,-0.996679,-0.066432,0.002323,-0.017588,0.004695,5.299774,-37.672806,20.108582,,,,,,
1478209378.15,0.628114,1.488894,-2.271914,0.019524,-0.134932,-0.059919,0.048073,-0.996648,-0.066196,-0.012978,-0.002757,-0.004788,5.299774,-37.672806,20.108582,,,,,,
1478209378.17,0.641294,1.488607,-2.287209,0.030356,-0.081812,-0.058876,0.049113,-0.996624,-0.065786,-0.002803,0.008572,-0.014429,6.275574,-37.598755,20.415955,,,,,,
1478209378.19,0.658777,1.488523,-2.305534,0.050862,-0.019140,-0.066310,0.050307,-0.996617,-0.064983,-0.001936,0.009374,-0.014942,6.201019,-37.373611,20.340271,,,,,,
1478209378.21,0.677048,1.487168,-2.324088,0.083979,-0.007536,-0.075729,0.052332,-0.996505,-0.065106,0.012595,0.008209,-0.037784,5.975555,-37.373154,20.113525,,,,,,
1478209378.23,0.706706,1.487819,-2.353852,0.119185,0.007234,-0.075558,0.053818,-0.996559,-0.063032,-0.009796,0.008965,-0.028902,6.425537,-37.373383,20.116882,,,,,,
1478209378.25,0.724136,1.489179,-2.371235,0.134060,0.010361,-0.068023,0.054010,-0.996671,-0.061069,0.001608,0.003019,0.002094,6.425537,-37.373383,20.116882,,,,,,
1478209378.27,0.759032,1.490236,-2.406241,0.135055,-0.007717,-0.066926,0.055383,-0.996757,-0.058384,0.035010,-0.010247,0.000950,6.352051,-37.073929,20.491272,,,,,,
1478209378.29,0.804023,1.490527,-2.451573,0.133940,-0.010914,-0.060545,0.057744,-0.996780,-0.055632,0.014766,0.004242,-0.004319,6.052521,-36.998993,20.638916,,,,,,
1478209378.31,0.837390,1.491565,-2.485078,0.132867,0.003956,-0.050993,0.058799,-0.996863,-0.052982,-0.011405,-0.005182,-0.007473,6.052124,-36.923538,20.338928,,,,,,
1478209378.33,0.871242,1.493051,-2.518711,0.127613,0.024173,-0.051051,0.059425,-0.996979,-0.050008,0.004677,-0.005996,0.019094,6.577148,-36.923798,20.342834,,,,,,
1478209378.35,0.903804,1.493876,-2.550995,0.121142,0.009303,-0.046806,0.060376,-0.997043,-0.047538,0.033679,-0.000012,0.004569,6.577148,-36.923798,20.342834,,,,,,
1478209378.37,0.942210,1.493776,-2.589594,0.119953,-0.008784,-0.037209,0.062237,-0.997035,-0.045243,0.003238,-0.004979,-0.001021,6.652008,-37.149185,20.568542,,,,,,
1478209378.39,0.972156,1.494473,-2.619405,0.110505,0.025273,-0.040506,0.062990,-0.997089,-0.042968,-0.010027,0.000812,0.009399,6.578400,-36.774475,20.792786,,,,,,
1478209378.41,1.001329,1.495323,-2.647861,0.097787,0.043388,-0.040602,0.063502,-0.997153,-0.040655,-0.007579,-0.008737,0.008657,6.803558,-36.699600,20.794434,,,,,,
1478209378.43,1.034242,1.495596,-2.680078,0.088129,0.028530,-0.037440,0.064572,-0.997174,-0.038404,0.007618,-0.009693,0.009565,6.654266,-36.775208,21.243347,,,,,,
1478209378.45,1.065955,1.495441,-2.711527,0.083780,0.012588,-0.032120,0.065892,-0.997162,-0.036412,0.008830,-0.006134,0.004201,6.654266,-36.775208,21.243347,,,,,,
1478209378.47,1.093608,1.495293,-2.738823,0.079550,0.021107,-0.032159,0.067005,-0.997151,-0.034645,0.009029,0.003544,-0.001122,6.429260,-36.549622,20.941589,,,,,,
1478209378.49,1.119458,1.494941,-2.764351,0.081656,0.017907,-0.030016,0.068194,-0.997124,-0.033054,0.006345,-0.004722,-0.005917,7.180206,-36.400467,21.247131,,,,,,
1478209378.51,1.135734,1.495749,-2.780251,0.080653,0.028549,-0.034292,0.067992,-0.997185,-0.031600,-0.017883,-0.004920,0.004913,6.580658,-36.475601,21.542664,,,,,,
1478209378.53,1.155644,1.496704,-2.799359,0.079713,0.050891,-0.041777,0.067737,-0.997256,-0.029856,-0.019732,-0.005566,-0.000982,6.580658,-36.475601,21.542664,,,,,,
1478209378.55,1.183003,1.496942,-2.825560,0.075557,0.068989,-0.048212,0.068308,-0.997274,-0.027902,0.000692,-0.000788,0.001291,6.580658,-36.475601,21.542664,,,,,,
1478209378.57,1.211435,1.496437,-2.852643,0.069124,0.070060,-0.040799,0.069545,-0.997237,-0.026126,0.008687,0.003432,0.004215,6.805115,-36.625610,21.469421,,,,,,
1478209378.59,1.239597,1.495370,-2.879487,0.050914,0.063718,-0.028121,0.071260,-0.997157,-0.024504,0.019118,-0.001516,0.008177,6.881470,-36.326096,21.769775,,,,,,
1478209378.61,1.263739,1.494410,-2.902706,0.036883,0.031849,-0.016445,0.072743,-0.997084,-0.023066,0.021267,-0.008287,0.006739,6.356323,-36.325729,21.690918,,,,,,
1478209378.63,1.276666,1.494012,-2.915400,0.028235,0.005289,-0.011131,0.073415,-0.997054,-0.022239,0.003108,-0.014269,0.004569,6.806488,-36.250946,21.694275,,,,,,
1478209378.65,1.285234,1.494355,-2.923852,0.014421,0.012778,-0.012281,0.073275,-0.997080,-0.021512,-0.008822,-0.013495,0.005826,6.806488,-36.250946,21.694275,,,,,,
1478209378.67,1.290750,1.494548,-2.928937,0.012401,0.028747,-0.020830,0.073207,-0.997094,-0.021055,-0.010265,-0.002249,-0.002139,6.880920,-36.551086,21.769897,,,,,,
1478209378.69,1.293216,1.494959,-2.930543,0.009348,0.056412,-0.028336,0.072865,-0.997126,-0.020762,-0.003712,-0.003332,0.007029,6.957153,-36.176361,21.920288,,,,,,
1478209378.71,1.301383,1.493774,-2.937502,0.006177,0.059615,-0.030490,0.074171,-0.997035,-0.020480,0.019656,0.004237,-0.003506,6.806488,-36.250946,21.694275,,,,,,
1478209378.73,1.303737,1.493034,-2.938927,0.005021,0.041538,-0.026212,0.074930,-0.996978,-0.020500,-0.004465,-0.006455,-0.001472,6.956329,-36.326035,21.695435,,,,,,
1478209378.75,1.308044,1.492757,-2.942499,-0.004631,0.036241,-0.018805,0.075284,-0.996956,-0.020249,0.005816,-0.011131,0.005998,6.956329,-36.326035,21.695435,,,,,,
1478209378.77,1.309325,1.492065,-2.943149,-0.011045,0.027758,-0.019893,0.075977,-0.996902,-0.020331,0.005002,-0.004166,-0.000924,6.955872,-36.325699,21.470398,,,,,,
1478209378.79,1.307318,1.491483,-2.940703,-0.013220,0.019256,-0.017764,0.076496,-0.996856,-0.020635,-0.000644,0.001617,-0.000682,6.656494,-36.250870,21.693115,,,,,,
1478209378.81,1.306211,1.491132,-2.939147,-0.013214,0.024568,-0.015643,0.076810,-0.996828,-0.020811,0.000384,-0.001829,0.003492,6.956635,-36.326263,21.845398,,,,,,
1478209378.83,1.305372,1.490547,-2.937727,-0.017443,0.029902,-0.017804,0.077356,-0.996782,-0.021028,0.007116,-0.001464,-0.000593,6.506958,-36.251129,21.916992,,,,,,
1478209378.85,1.301387,1.489931,-2.933224,-0.021731,0.022473,-0.017817,0.077863,-0.996732,-0.021500,0.002688,-0.006274,-0.005142,6.506958,-36.251129,21.916992,,,,,,
1478209378.87,1.295483,1.489557,-2.926918,-0.016424,0.017140,-0.017779,0.078094,-0.996702,-0.022061,-0.006012,-0.011202,-0.005192,6.881622,-36.326218,21.844788,,,,,,
1478209378.89,1.288042,1.489216,-2.919212,-0.016447,0.012886,-0.016707,0.078254,-0.996674,-0.022736,-0.005698,-0.003448,-0.007431,6.956024,-36.325806,21.545410,,,,,,
1478209378.91,1.285809,1.488815,-2.916671,-0.016416,0.016081,-0.019905,0.078586,-0.996641,-0.023023,0.004422,-0.003374,0.001371,7.106476,-36.326218,21.771484,,,,,,
1478209378.93,1.283277,1.488055,-2.913840,-0.016397,0.016086,-0.023100,0.079254,-0.996579,-0.023436,0.002747,0.002499,-0.003694,7.030762,-36.551056,21.696106,,,,,,
1478209378.95,1.279335,1.487603,-2.909454,-0.018511,0.024595,-0.020994,0.079593,-0.996541,-0.023878,-0.004016,-0.000041,-0.001757,7.030762,-36.551056,21.696106,,,,,,
1478209378.97,1.275640,1.487069,-2.905341,-0.017476,0.018210,-0.019914,0.080013,-0.996497,-0.024327,0.002110,-0.004754,-0.001384,6.955414,-36.325363,21.245422,,,,,,
1478209378.99,1.271163,1.486654,-2.900621,-0.013242,0.010755,-0.019879,0.080298,-0.996462,-0.024807,-0.002296,-0.005308,-0.005924,6.732025,-36.401581,22.143738,,,,,,
1478209379.01,1.267681,1.486198,-2.896927,-0.010046,0.011719,-0.023019,0.080646,-0.996424,-0.025222,-0.000735,-0.006338,-0.005311,7.030670,-36.400726,21.470947,,,,,,
1478209379.03,1.266485,1.485504,-2.895486,-0.005751,0.013839,-0.027257,0.081275,-0.996365,-0.025526,0.005593,0.000134,-0.002459,6.730804,-36.475784,21.618774,,,,,,
1478209379.05,1.264919,1.484772,-2.893707,-0.000444,0.012754,-0.025098,0.081930,-0.996302,-0.025872,-0.002844,0.004557,-0.011649,6.730804,-36.475784,21.618774,,,,,,
1478209379.07,1.266096,1.484219,-2.894609,0.003836,0.012746,-0.028267,0.082486,-0.996255,-0.025941,0.002567,-0.006019,-0.002059,6.956512,-36.251022,21.695374,,,,,,
1478209379.09,1.267720,1.483816,-2.895985,0.000627,0.012753,-0.026155,0.082911,-0.996220,-0.025927,-0.004069,-0.004681,0.000887,7.032196,-36.101288,21.845825,,,,,,
1478209379.11,1.269978,1.483423,-2.897890,-0.007859,0.019163,-0.028340,0.083344,-0.996185,-0.025856,-0.004807,-0.009399,0.005425,7.180603,-36.551010,21.622192,,,,,,
1478209379.13,1.272914,1.482616,-2.900430,-0.013177,0.019182,-0.029435,0.084187,-0.996115,-0.025847,0.012401,-0.001047,0.003783,6.657043,-36.100983,21.768005,,,,,,
1478209379.15,1.272316,1.481584,-2.899447,-0.012136,0.020234,-0.025175,0.085154,-0.996023,-0.026200,0.008855,-0.000742,-0.002945,6.657043,-36.100983,21.768005,,,,,,
1478209379.17,1.271651,1.481050,-2.898464,-0.017523,0.015986,-0.017747,0.085645,-0.995976,-0.026413,0.001452,-0.004116,0.003052,7.106750,-36.100983,21.621399,,,,,,
1478209379.19,1.270060,1.480241,-2.896736,-0.018654,0.001102,-0.015603,0.086372,-0.995903,-0.026788,0.013786,-0.007057,-0.002219,7.030365,-36.400497,21.320984,,,,,,
1478209379.21,1.265869,1.479921,-2.892689,-0.018691,-0.007405,-0.014526,0.086564,-0.995874,-0.027245,-0.006898,-0.013556,-0.002967,7.105865,-36.325775,21.471497,,,,,,
1478209379.23,1.260877,1.479705,-2.887756,-0.019718,-0.002080,-0.017732,0.086632,-0.995854,-0.027743,-0.003929,-0.004833,-0.001249,6.880707,-36.325531,21.394775,,,,,,
1478209379.25,1.256248,1.479113,-2.883151,-0.016489,0.000043,-0.021975,0.087063,-0.995800,-0.028326,-0.000607,0.000820,-0.006586,6.880707,-36.325531,21.394775,,,,,,
1478209379.27,1.252646,1.478596,-2.879346,-0.011090,0.019164,-0.023039,0.087450,-0.995753,-0.028800,-0.001405,0.001215,-0.006234,7.180664,-36.400803,21.472107,,,,,,
1478209379.29,1.252046,1.478015,-2.878278,-0.013246,0.023412,-0.016671,0.087981,-0.995699,-0.029034,0.005204,-0.003721,0.000546,6.805389,-36.325287,21.244263,,,,,,
1478209379.31,1.251841,1.477380,-2.877724,-0.015414,0.012788,-0.016667,0.088576,-0.995640,-0.029250,0.005571,-0.010647,0.001724,7.256073,-36.175720,21.397522,,,,,,
1478209379.33,1.250416,1.477093,-2.876148,-0.017586,0.006411,-0.013476,0.088805,-0.995613,-0.029467,-0.000579,-0.012367,0.004625,7.106537,-36.175980,21.621460,,,,,,
1478209379.35,1.247132,1.476658,-2.872654,-0.016466,0.012795,-0.018801,0.089119,-0.995572,-0.029896,-0.003715,-0.000018,-0.006313,7.106537,-36.175980,21.621460,,,,,,
1478209379.37,1.245533,1.476220,-2.870697,-0.015374,0.022358,-0.017745,0.089483,-0.995531,-0.030177,0.004404,0.001512,0.001628,7.106232,-36.175766,21.471436,,,,,,
1478209379.39,1.245495,1.475514,-2.870152,-0.019650,0.025554,-0.013517,0.090149,-0.995464,-0.030406,0.010407,-0.000477,0.006480,7.031067,-36.175598,21.395874,,,,,,
1478209379.41,1.243255,1.474849,-2.867413,-0.026080,0.020254,-0.010353,0.090707,-0.995401,-0.030821,0.007315,-0.003074,-0.001787,7.405121,-36.625916,21.473877,,,,,,
1478209379.43,1.239341,1.474400,-2.863258,-0.025114,0.003229,-0.003935,0.091008,-0.995358,-0.031321,0.007610,-0.011570,-0.000280,6.955322,-36.550690,21.470459,,,,,,
1478209379.45,1.235671,1.473862,-2.859750,-0.026219,-0.011648,-0.006049,0.091398,-0.995306,-0.031830,0.005816,-0.007746,0.001938,6.955322,-36.550690,21.470459,,,,,,
1478209379.47,1.230446,1.473814,-2.854609,-0.024033,0.002168,-0.007121,0.091276,-0.995301,-0.032324,-0.013518,0.001404,0.000189,7.030090,-36.400269,21.170959,,,,,,
1478209379.49,1.226886,1.473543,-2.850835,-0.025027,0.012812,-0.012465,0.091414,-0.995275,-0.032739,0.003114,0.002675,0.002237,7.330688,-36.400879,21.473206,,,,,,
1478209379.51,1.222463,1.473080,-2.845946,-0.026037,0.028762,-0.012495,0.091701,-0.995230,-0.033301,-0.002407,-0.005060,-0.002207,6.879944,-36.400085,21.094849,,,,,,
1478209379.53,1.217963,1.472770,-2.840840,-0.027126,0.027697,-0.009305,0.091841,-0.995199,-0.033820,0.000887,-0.006830,-0.001138,7.029907,-36.475266,21.171021,,,,,,
1478209379.55,1.214567,1.472144,-2.837007,-0.033602,0.014949,-0.002936,0.092309,-0.995138,-0.034349,0.013175,-0.006968,0.003144,7.029907,-36.475266,21.171021,,,,,,
1478209379.57,1.209912,1.471343,-2.832213,-0.032619,0.001116,0.002410,0.092893,-0.995059,-0.035059,0.007799,-0.000242,-0.000326,7.256012,-36.325958,21.547607,,,,,,
1478209379.59,1.203859,1.471015,-2.826088,-0.031564,0.002172,0.004542,0.092984,-0.995026,-0.035738,0.005115,-0.000854,-0.002638,6.955170,-36.550568,21.395447,,,,,,
1478209379.61,1.195857,1.470857,-2.818110,-0.029459,-0.003153,0.005627,0.092841,-0.995010,-0.036538,-0.005073,-0.001679,-0.006476,7.104401,-36.625198,21.096619,,,,,,
1478209379.63,1.188122,1.470911,-2.810373,-0.024081,0.004279,0.001389,0.092507,-0.995016,-0.037235,-0.007103,-0.004817,-0.006435,7.554840,-36.550659,21.250000,,,,,,
1478209379.65,1.183136,1.470893,-2.805119,-0.022928,0.018107,-0.005012,0.092336,-0.995014,-0.037703,-0.005926,-0.006237,0.002059,7.554840,-36.550659,21.250000,,,,,,
1478209379.67,1.180331,1.470603,-2.801888,-0.022931,0.019169,-0.003949,0.092497,-0.994985,-0.038072,0.006502,-0.003199,0.003389,6.879333,-36.700195,21.169983,,,,,,
1478209379.69,1.178531,1.470016,-2.799779,-0.025110,0.010665,-0.000757,0.092968,-0.994926,-0.038461,0.014012,0.002464,0.000223,6.954834,-36.625458,21.320557,,,,,,
1478209379.71,1.174407,1.469687,-2.795393,-0.024057,0.014907,0.003500,0.093110,-0.994893,-0.038971,0.001036,-0.001048,-0.001343,6.279846,-36.550003,21.240417,,,,,,
1478209379.73,1.169466,1.469636,-2.790155,-0.024079,0.010652,0.004571,0.092964,-0.994888,-0.039450,-0.003608,-0.005891,-0.002069,7.029236,-36.625031,21.021057,,,,,,
1478209379.75,1.165323,1.469558,-2.785824,-0.031561,0.005359,0.005603,0.092870,-0.994880,-0.039866,0.003291,-0.005853,0.006754,7.029236,-36.625031,21.021057,,,,,,
1478209379.77,1.161211,1.469262,-2.781611,-0.040097,0.001134,0.005561,0.092976,-0.994850,-0.040365,0.006053,-0.007759,0.005102,7.179688,-36.550339,21.172180,,,,,,
1478209379.79,1.153392,1.469077,-2.773745,-0.041178,0.002195,0.008747,0.092826,-0.994831,-0.041165,-0.001624,-0.008846,0.001004,7.104950,-36.400208,21.096558,,,,,,
1478209379.81,1.146309,1.469041,-2.766419,-0.047542,0.011783,0.009763,0.092564,-0.994827,-0.041836,0.002437,-0.002731,0.005886,7.104462,-36.700439,21.246704,,,,,,
1478209379.83,1.136956,1.468635,-2.756902,-0.049757,-0.000979,0.016156,0.092535,-0.994786,-0.042870,0.005289,0.000356,-0.001488,7.104279,-36.549973,20.946655,,,,,,
1478209379.85,1.127064,1.468375,-2.747081,-0.045536,-0.008439,0.018318,0.092341,-0.994760,-0.043894,0.001776,-0.006507,-0.003195,7.104279,-36.549973,20.946655,,,,,,
1478209379.87,1.116648,1.468341,-2.736759,-0.047646,-0.006302,0.016175,0.091909,-0.994756,-0.044868,-0.002828,-0.002436,-0.001030,7.254883,-36.475388,21.172729,,,,,,
1478209379.89,1.107513,1.468264,-2.727681,-0.049773,-0.007356,0.015101,0.091564,-0.994748,-0.045740,0.000248,-0.003741,0.003626,7.179413,-36.550110,21.022156,,,,,,
1478209379.91,1.097585,1.468008,-2.717876,-0.046582,-0.010554,0.014059,0.091332,-0.994722,-0.046763,0.000984,-0.005705,-0.001867,7.103546,-36.774872,20.871765,,,,,,
1478209379.93,1.086838,1.467792,-2.707283,-0.041222,-0.006313,0.010889,0.091014,-0.994700,-0.047842,-0.005230,-0.000265,-0.006571,7.027710,-36.924484,20.646240,,,,,,
1478209379.95,1.077527,1.467762,-2.697923,-0.038000,0.003242,0.011958,0.090591,-0.994697,-0.048701,-0.003280,-0.000512,-0.001119,7.027710,-36.924484,20.646240,,,,,,
1478209379.97,1.071677,1.467505,-2.692142,-0.029562,-0.016988,0.014163,0.090529,-0.994670,-0.049353,0.010011,-0.004597,0.000906,7.028351,-36.849823,20.871216,,,,,,
1478209379.99,1.063897,1.467139,-2.684799,-0.033858,-0.026543,0.014152,0.090461,-0.994632,-0.050233,0.002984,-0.003292,-0.004791,7.104614,-36.475082,21.021545,,,,,,
1478209380.01,1.055461,1.467159,-2.676778,-0.038120,-0.019192,0.015225,0.090016,-0.994634,-0.050984,-0.003438,-0.005579,0.002080,7.328857,-36.775192,21.023376,,,,,,
1478209380.03,1.049740,1.466793,-2.671413,-0.039189,-0.022376,0.014158,0.090039,-0.994597,-0.051679,0.009617,-0.006075,-0.003130,7.178375,-36.774780,20.797302,,,,,,
1478209380.05,1.041239,1.466825,-2.663368,-0.040288,-0.022382,0.019475,0.089569,-0.994600,-0.052427,-0.004166,0.000108,0.004209,7.178375,-36.774780,20.797302,,,,,,
1478209380.07,1.031546,1.466781,-2.653969,-0.037040,-0.014943,0.015224,0.089094,-0.994595,-0.053315,-0.005232,0.002530,-0.006164,6.953735,-36.699799,20.870605,,,,,,
1478209380.09,1.019992,1.466604,-2.642768,-0.025330,-0.020293,0.013169,0.088622,-0.994577,-0.054433,-0.008116,-0.004950,-0.015697,7.103546,-36.774872,20.871765,,,,,,
1478209380.11,1.012009,1.466803,-2.635113,-0.016766,-0.011813,0.011076,0.088017,-0.994598,-0.055034,-0.007878,-0.004105,-0.002507,7.177521,-36.999557,20.647400,,,,,,
1478209380.13,1.008311,1.466695,-2.631595,-0.011423,-0.010763,0.008975,0.087904,-0.994586,-0.055416,0.004870,-0.000424,-0.002369,7.327789,-36.774414,20.498413,,,,,,
1478209380.15,1.005930,1.466590,-2.629410,-0.010347,-0.009702,0.007914,0.087860,-0.994575,-0.055681,0.003464,-0.000877,-0.001143,7.327789,-36.774414,20.498413,,,,,,
1478209380.17,1.002357,1.466636,-2.625938,-0.012469,-0.003320,0.010022,0.087622,-0.994580,-0.055970,-0.003958,-0.005344,-0.000106,7.327240,-36.999405,20.498535,,,,,,
1478209380.19,1.000209,1.466820,-2.623736,-0.015642,0.003070,0.009995,0.087347,-0.994599,-0.056059,0.000681,-0.003127,0.005904,7.252869,-36.924713,20.722900,,,,,,
1478209380.21,0.999358,1.466661,-2.622964,-0.021054,-0.016055,0.013186,0.087433,-0.994583,-0.056219,0.014679,-0.006668,0.006048,7.327637,-37.149979,20.873596,,,,,,
1478209380.23,0.994980,1.466359,-2.619176,-0.018994,-0.034137,0.014288,0.087438,-0.994551,-0.056765,0.005000,-0.007036,-0.005109,7.327454,-36.849289,20.423462,,,,,,
1478209380.25,0.988286,1.466586,-2.612988,-0.013608,-0.017144,0.014293,0.086867,-0.994575,-0.057224,-0.010573,-0.001336,-0.001583,7.327454,-36.849289,20.423462,,,,,,
1478209380.27,0.983601,1.466778,-2.608466,-0.014630,-0.006507,0.013208,0.086439,-0.994595,-0.057525,-0.002119,0.000164,0.000289,7.777374,-36.999741,20.576904,,,,,,
1478209380.29,0.980617,1.466823,-2.605662,-0.014645,-0.012884,0.012153,0.086230,-0.994600,-0.057758,0.001905,-0.004912,0.001118,7.326630,-37.299515,20.573669,,,,,,
1478209380.31,0.977480,1.466844,-2.602778,-0.012492,-0.013947,0.007908,0.086031,-0.994602,-0.058016,-0.001985,-0.006390,-0.002363,7.477875,-36.924820,20.724609,,,,,,
1478209380.33,0.971091,1.466931,-2.596683,-0.008199,-0.013952,0.002612,0.085587,-0.994611,-0.058516,-0.011521,-0.005237,-0.010469,6.877075,-36.999054,20.420166,,,,,,
1478209380.35,0.967893,1.467052,-2.593613,-0.003864,-0.002262,-0.002703,0.085300,-0.994623,-0.058721,-0.004368,-0.002920,-0.001200,6.877075,-36.999054,20.420166,,,,,,
1478209380.37,0.967406,1.466975,-2.593109,-0.005983,0.000934,-0.002719,0.085334,-0.994615,-0.058806,0.003045,-0.001234,0.001128,7.252502,-36.774155,20.347839,,,,,,
1478209380.39,0.967937,1.466835,-2.593651,-0.006022,-0.004387,0.000481,0.085481,-0.994601,-0.058840,0.005858,-0.005948,0.001513,7.477844,-36.999924,20.799622,,,,,,
1478209380.41,0.966415,1.466829,-2.592240,-0.008179,-0.006512,0.003667,0.085396,-0.994600,-0.058973,-0.001137,-0.007078,0.000944,7.552856,-36.924866,20.725159,,,,,,
1478209380.43,0.965197,1.466776,-2.591203,-0.010315,-0.011817,0.001534,0.085368,-0.994595,-0.059108,0.003210,-0.001682,0.003245,6.952393,-36.999329,20.570740,,,,,,
1478209380.45,0.964155,1.466460,-2.590525,-0.009291,-0.023515,0.001556,0.085564,-0.994562,-0.059375,0.007683,-0.003699,-0.003537,6.952393,-36.999329,20.570740,,,,,,
1478209380.47,0.959978,1.466727,-2.586677,-0.010300,-0.007564,0.001529,0.085097,-0.994590,-0.059580,-0.015258,-0.004464,0.002604,7.477753,-36.849594,20.574585,,,,,,
1478209380.49,0.959375,1.466695,-2.585969,-0.013390,0.007345,-0.007026,0.085087,-0.994586,-0.059649,-0.000447,-0.001492,0.002460,7.177887,-36.849564,20.647278,,,,,,
1478209380.51,0.958806,1.466352,-2.585304,-0.011308,0.000952,-0.002748,0.085333,-0.994551,-0.059894,0.005625,-0.002489,-0.001981,7.402679,-36.699234,20.348938,,,,,,
1478209380.53,0.956738,1.466045,-2.583203,-0.008120,0.003064,-0.000605,0.085458,-0.994519,-0.060246,0.002051,-0.002536,-0.007015,7.102905,-36.849533,20.646729,,,,,,
1478209380.55,0.955004,1.465756,-2.581423,-0.000678,0.000912,0.000503,0.085589,-0.994488,-0.060561,0.004621,-0.003192,-0.007127,7.102905,-36.849533,20.646729,,,,,,
1478209380.57,0.954460,1.465784,-2.580977,0.007820,-0.007619,-0.000502,0.085533,-0.994491,-0.060591,-0.004005,-0.001831,-0.001757,7.477264,-36.924362,20.424622,,,,,,
1478209380.59,0.954310,1.465954,-2.580920,0.012150,0.000883,-0.006876,0.085385,-0.994509,-0.060506,-0.008451,-0.002729,-0.006526,7.101501,-37.224182,20.421936,,,,,,
1478209380.61,0.954987,1.466401,-2.581418,0.013302,0.020021,-0.010089,0.085064,-0.994556,-0.060191,-0.013576,-0.003659,0.004130,7.401764,-37.074234,20.349121,,,,,,
1478209380.63,0.960461,1.466356,-2.586397,0.011190,0.023219,-0.011171,0.085428,-0.994551,-0.059750,0.006628,-0.002611,0.005719,7.102020,-37.149414,20.571960,,,,,,
1478209380.65,0.966191,1.466022,-2.591795,0.011130,0.012483,-0.008987,0.086043,-0.994516,-0.059449,0.013277,-0.003821,0.000580,7.102020,-37.149414,20.571960,,,,,,
1478209380.67,0.969486,1.465894,-2.594995,0.012148,0.002908,-0.006838,0.086343,-0.994503,-0.059237,0.002311,-0.004887,-0.002119,7.326294,-37.148956,20.198547,,,,,,
1478209380.69,0.970452,1.465938,-2.596022,0.013180,-0.004540,-0.005756,0.086365,-0.994507,-0.059129,-0.003967,-0.004913,-0.005736,7.177765,-36.774338,20.497314,,,,,,
1478209380.71,0.972755,1.466080,-2.598326,0.012168,0.005037,-0.008969,0.086384,-0.994522,-0.058850,-0.003056,-0.003494,0.000241,7.326935,-37.299744,20.723633,,,,,,
1478209380.73,0.976292,1.466155,-2.601689,0.012215,0.012485,-0.012173,0.086530,-0.994530,-0.058503,-0.002423,-0.002586,0.002381,7.027374,-36.999359,20.571289,,,,,,
1478209380.75,0.980165,1.466078,-2.605280,0.014376,0.015673,-0.015360,0.086819,-0.994522,-0.058210,0.000446,-0.005661,0.000257,7.027374,-36.999359,20.571289,,,,,,
1478209380.77,0.982742,1.465975,-2.607578,0.015438,0.016731,-0.014290,0.087054,-0.994511,-0.058043,-0.002811,-0.002483,-0.008257,7.326782,-37.074188,20.348572,,,,,,
1478209380.79,0.987042,1.466010,-2.611474,0.016522,0.022043,-0.014292,0.087273,-0.994515,-0.057648,-0.000100,-0.004356,0.004166,7.103241,-36.774643,20.721741,,,,,,
1478209380.81,0.992578,1.465899,-2.616687,0.013337,0.014561,-0.014277,0.087684,-0.994503,-0.057225,0.003350,-0.002857,0.002888,7.477753,-36.849594,20.574585,,,,,,
1478209380.83,0.997855,1.465704,-2.621673,0.013331,0.014559,-0.013214,0.088147,-0.994483,-0.056866,0.005618,-0.008279,0.001141,7.102234,-36.999298,20.496826,,,,,,
1478209380.85,1.002332,1.465669,-2.625791,0.008018,0.022015,-0.011126,0.088431,-0.994479,-0.056490,0.001520,-0.005689,0.004458,7.102234,-36.999298,20.496826,,,,,,
1478209380.87,1.007657,1.465595,-2.630656,0.005869,0.022016,-0.007945,0.088793,-0.994471,-0.056058,0.006712,-0.002233,0.007275,5.677216,-36.923447,20.411133,,,,,,
1478209380.89,1.012217,1.465263,-2.634920,0.000496,0.010338,-0.006894,0.089328,-0.994437,-0.055827,0.011289,-0.002329,0.005824,7.552429,-36.849411,20.425110,,,,,,
1478209380.91,1.013493,1.465088,-2.636072,0.001528,0.002890,-0.005813,0.089546,-0.994418,-0.055805,-0.002358,-0.002896,-0.004421,7.328339,-36.624512,20.573364,,,,,,
1478209380.93,1.012279,1.465164,-2.634758,0.004748,0.008197,-0.006866,0.089414,-0.994426,-0.055873,-0.007474,-0.005452,-0.005909,7.027618,-36.774139,20.421143,,,,,,
1478209380.95,1.013258,1.465150,-2.635678,0.014353,0.003923,-0.012128,0.089480,-0.994425,-0.055793,-0.002429,-0.003531,-0.004158,7.027618,-36.774139,20.421143,,,,,,
1478209380.97,1.016125,1.465102,-2.638439,0.020872,0.010244,-0.017409,0.089681,-0.994420,-0.055562,-0.003056,-0.001659,-0.003780,7.552917,-36.774643,20.575134,,,,,,
1478209380.99,1.020994,1.465034,-2.643050,0.021969,0.015560,-0.019540,0.090008,-0.994412,-0.055160,-0.001446,-0.000400,-0.004181,7.477753,-36.849594,20.574585,,,,,,
1478209381.01,1.027810,1.465109,-2.649401,0.019878,0.030447,-0.017445,0.090318,-0.994420,-0.054506,0.001891,-0.003550,0.007708,7.327209,-37.074524,20.573608,,,,,,
1478209381.03,1.036409,1.464764,-2.657487,0.010214,0.017712,-0.012158,0.091079,-0.994384,-0.053903,0.017396,-0.004716,0.009073,7.402771,-36.774460,20.498962,,,,,,
1478209381.05,1.041721,1.464415,-2.662690,0.006919,-0.001423,-0.006827,0.091663,-0.994347,-0.053593,0.008450,-0.004814,0.001958,7.402771,-36.774460,20.498962,,,,,,
1478209381.07,1.043621,1.464380,-2.664650,0.004789,-0.001416,-0.006839,0.091795,-0.994343,-0.053436,0.000612,-0.004955,-0.000152,7.477936,-36.774597,20.574585,,,,,,
1478209381.09,1.044689,1.464426,-2.665799,0.003709,-0.005665,-0.006837,0.091812,-0.994348,-0.053315,-0.003006,-0.007422,0.000612,7.178101,-36.699448,20.572266,,,,,,
1478209381.11,1.046790,1.464401,-2.667962,-0.004808,-0.002450,-0.005825,0.091946,-0.994345,-0.053135,0.005955,-0.005777,0.007557,7.178223,-36.774673,20.722290,,,,,,
1478209381.13,1.049070,1.464082,-2.670255,-0.010071,-0.001410,-0.000527,0.092342,-0.994311,-0.053083,0.009587,-0.004193,0.009153,6.877533,-36.999405,20.645142,,,,,,
1478209381.15,1.049255,1.463841,-2.670427,-0.013285,0.000720,0.003709,0.092559,-0.994286,-0.053185,0.007051,-0.003837,0.002572,6.877533,-36.999405,20.645142,,,,,,
1478209381.17,1.046048,1.463631,-2.667168,-0.009031,0.002828,0.005858,0.092569,-0.994263,-0.053587,0.001624,0.000611,-0.006564,7.628235,-36.774902,20.725647,,,,,,
1478209381.19,1.043046,1.463652,-2.664212,-0.006998,-0.007827,0.015466,0.092389,-0.994266,-0.053854,0.004855,-0.003736,-0.001673,7.252502,-36.774155,20.347839,,,,,,
1478209381.21,1.042739,1.463553,-2.664395,-0.012502,-0.037597,0.027187,0.092458,-0.994255,-0.053932,0.020625,-0.009026,0.004692,7.553345,-36.549530,20.500000,,,,,,
1478209381.23,1.040977,1.463836,-2.663613,-0.026579,-0.059921,0.051624,0.092120,-0.994285,-0.053952,0.019224,-0.007943,0.013989,7.402710,-36.924683,20.649048,,,,,,
1478209381.25,1.037085,1.464219,-2.661099,-0.042888,-0.090762,0.087769,0.091581,-0.994326,-0.054116,0.034624,-0.013059,0.020837,7.402710,-36.924683,20.649048,,,,,,
1478209381.27,1.025298,1.464646,-2.651657,-0.064762,-0.158826,0.140969,0.090574,-0.994371,-0.054972,0.046923,-0.009733,0.016077,6.878021,-36.924622,20.795105,,,,,,
1478209381.29,0.994360,1.465883,-2.624861,-0.075988,-0.236538,0.205960,0.087799,-0.994502,-0.057077,0.041778,-0.024785,-0.011587,7.402893,-36.849686,20.648987,,,,,,
1478209381.31,0.952797,1.467292,-2.588172,-0.045349,-0.255826,0.234893,0.084210,-0.994648,-0.059864,0.034458,-0.012691,-0.045941,7.177002,-36.848877,20.197266,,,,,,
1478209381.33,0.925165,1.471341,-2.565190,0.079401,-0.227522,0.233407,0.079306,-0.995058,-0.059744,0.013285,0.021120,-0.082026,6.800842,-37.373810,20.269714,,,,,,
1478209381.35,0.904548,1.476390,-2.547958,0.252402,-0.123878,0.222493,0.074107,-0.995547,-0.058260,-0.033625,0.043078,-0.110670,6.800842,-37.373810,20.269714,,,,,,
1478209381.37,0.937255,1.483967,-2.582405,0.422109,-0.070169,0.200989,0.069891,-0.996233,-0.051339,-0.019140,0.021959,-0.152183,6.952118,-37.224564,20.720825,,,,,,
1478209381.39,1.017991,1.493240,-2.665407,0.619060,-0.122887,0.192572,0.065939,-0.996994,-0.040682,-0.012274,0.032227,-0.151884,6.726654,-37.224106,20.494141,,,,,,
1478209381.41,1.169563,1.503120,-2.820009,0.790649,-0.128732,0.177556,0.062254,-0.997711,-0.026411,-0.033629,0.037689,-0.154665,6.877899,-36.849411,20.645081,,,,,,
1478209381.43,1.421221,1.511235,-3.073838,0.945525,-0.039902,0.162304,0.058861,-0.998227,-0.008870,-0.039330,0.043164,-0.101191,6.282715,-36.176453,22.215210,,,,,,
1478209381.45,1.772108,1.513675,2.859141,1.060326,0.113908,0.135034,0.055937,-0.998369,0.011416,-0.014357,0.047350,-0.070116,6.282715,-36.176453,22.215210,,,,,,
1478209381.47,2.135776,1.507696,2.498067,1.144752,0.194429,0.137504,0.053259,-0.998010,0.033761,-0.024572,0.046731,-0.079614,6.284851,-35.802353,22.815063,,,,,,
1478209381.49,2.423751,1.494775,2.214506,1.186500,0.289939,0.158878,0.049956,-0.997112,0.057207,0.006105,0.016857,-0.007249,5.687164,-35.352966,23.410339,,,,,,
1478209381.51,2.625242,1.477048,2.018225,1.219379,0.286605,0.180354,0.046217,-0.995609,0.081406,0.044695,0.014606,-0.040559,5.764954,-34.904251,24.235779,,,,,,
1478209381.53,2.765898,1.456451,1.882594,1.251297,0.305607,0.197533,0.041864,-0.993470,0.106138,-0.002130,0.009812,-0.039457,5.560822,-33.742355,26.209351,,,,,,
1478209381.55,2.866729,1.434091,1.788367,1.252670,0.397030,0.199530,0.036989,-0.990670,0.131164,-0.013597,0.005624,0.016220,5.560822,-33.742355,26.209351,,,,,,
1478209381.57,2.937599,1.410882,1.723671,1.245971,0.288631,0.187949,0.032258,-0.987241,0.155932,0.029052,-0.022662,0.012769,4.514832,-32.843185,27.101074,,,,,,
1478209381.59,2.989668,1.388095,1.675890,1.164696,0.238888,0.209933,0.027497,-0.983356,0.179594,0.003525,0.002659,-0.008177,4.667603,-32.394501,27.927002,,,,,,
1478209381.61,3.030900,1.366758,1.638031,1.070795,0.197674,0.226527,0.022383,-0.979256,0.201386,-0.010695,-0.015037,0.064911,4.371124,-31.645584,28.749451,,,,,,
1478209381.63,3.065809,1.347282,1.607018,0.976089,0.257488,0.242947,0.016782,-0.975125,0.221021,-0.023267,-0.001499,0.125170,3.611206,-30.442978,29.935242,,,,,,
1478209381.65,3.094050,1.329352,1.582939,0.890887,0.202542,0.208499,0.011364,-0.970994,0.238836,0.030095,0.018464,0.068858,3.611206,-30.442978,29.935242,,,,,,
1478209381.67,3.116459,1.312455,1.562641,0.844600,0.111216,0.233932,0.006421,-0.966815,0.255397,0.019062,-0.027783,0.005697,3.239563,-29.693909,30.682068,,,,,,
1478209381.69,3.136388,1.295769,1.544344,0.842548,0.133549,0.233887,0.001414,-0.962418,0.271569,-0.024775,-0.000427,-0.033044,3.166168,-29.394547,31.131409,,,,,,
1478209381.71,-3.130015,1.279060,1.529267,0.844780,0.084714,0.190329,-0.003330,-0.957746,0.287597,-0.016430,0.030988,-0.004928,2.869568,-28.645523,31.878784,,,,,,
1478209381.73,-3.120668,1.262205,1.520054,0.852297,-0.009819,0.127709,-0.006355,-0.952762,0.303651,-0.031579,-0.036496,-0.003663,2.197662,-27.896072,32.473450,,,,,,
1478209381.75,-3.116787,1.244849,1.516183,0.876365,0.033828,0.051131,-0.007942,-0.947348,0.320108,-0.065392,-0.029764,-0.040658,2.197662,-27.896072,32.473450,,,,,,
1478209381.77,-3.116921,1.227408,1.517896,0.878140,0.088189,-0.031973,-0.008305,-0.941619,0.336577,-0.075923,-0.003419,-0.004180,2.411499,-27.444962,32.692444,,,,,,
1478209381.79,-3.119612,1.210073,1.522231,0.873989,0.062744,-0.063892,-0.007758,-0.935642,0.352866,-0.045053,-0.023648,-0.011115,2.339783,-26.695938,33.366516,,,,,,
1478209381.81,-3.122649,1.193007,1.527420,0.848722,0.113891,-0.083270,-0.006987,-0.929482,0.368800,0.008864,-0.035895,0.052693,2.568909,-25.647186,34.117737,,,,,,
1478209381.83,-3.125772,1.176251,1.532995,0.847592,0.093697,-0.084310,-0.006081,-0.923171,0.384341,0.011193,-0.021439,-0.022478,2.121643,-24.897614,34.563965,,,,,,
1478209381.85,-3.128042,1.159196,1.537817,0.862642,0.128736,-0.086409,-0.005421,-0.916482,0.400040,-0.005840,0.039269,0.020935,2.121643,-24.897614,34.563965,,,,,,
1478209381.87,-3.128935,1.142144,1.543171,0.865225,0.225506,-0.104639,-0.005261,-0.909527,0.415612,-0.028141,0.020046,0.010688,2.348022,-24.598190,34.865540,,,,,,
1478209381.89,-3.130200,1.125479,1.548604,0.832940,0.134178,-0.103612,-0.004907,-0.902474,0.430716,-0.012015,0.010705,-0.006034,1.972534,-23.773972,35.310181,,,,,,
1478209381.91,-3.134593,1.108674,1.554806,0.864738,0.035255,-0.133093,-0.003121,-0.895108,0.445838,-0.009117,-0.005694,-0.047934,1.975067,-23.174759,35.834900,,,,,,
1478209381.93,-3.139512,1.091038,1.561199,0.907524,0.043663,-0.156289,-0.000960,-0.887106,0.461564,0.011718,-0.019464,-0.066178,1.903717,-22.200638,36.433899,,,,,,
1478209381.95,3.137885,1.072581,1.568773,0.936452,0.041491,-0.183804,0.001772,-0.878437,0.477855,-0.018968,-0.074612,-0.031673,1.903717,-22.200638,36.433899,,,,,,
1478209381.97,3.131432,1.053919,1.575728,0.938161,-0.061656,-0.174057,0.005021,-0.869367,0.494142,0.023086,-0.089328,-0.017061,2.131287,-21.526413,36.885315,,,,,,
1478209381.99,3.123332,1.035093,1.581742,0.947252,-0.186091,-0.164237,0.009320,-0.859910,0.510361,0.052005,-0.045684,-0.030823,2.133453,-20.851746,37.109924,,,,,,
1478209382.01,3.113787,1.016338,1.587928,0.935656,-0.234952,-0.189751,0.014637,-0.850186,0.526280,0.020992,-0.106449,0.001430,2.505585,-19.504333,37.707214,,,,,,
1478209382.03,3.102238,0.997995,1.593911,0.910710,-0.390062,-0.205620,0.021324,-0.840386,0.541569,0.009865,-0.135444,-0.013752,2.807861,-18.829956,38.009094,,,,,,
1478209382.05,3.086919,0.979493,1.601429,0.935358,-0.486751,-0.283045,0.030462,-0.830215,0.556611,-0.011603,-0.123505,-0.035187,2.807861,-18.829956,38.009094,,,,,,
1478209382.07,3.068314,0.959390,1.611222,1.036979,-0.545377,-0.382460,0.042026,-0.818842,0.572479,-0.091251,-0.147192,-0.116088,3.185822,-18.005829,38.461548,,,,,,
1478209382.09,3.047059,0.935862,1.623850,1.226316,-0.555329,-0.512338,0.055987,-0.805111,0.590476,-0.095843,-0.184620,-0.215232,3.489075,-17.256989,39.138428,,,,,,
1478209382.11,3.025022,0.907209,1.637258,1.501451,-0.591188,-0.577835,0.071639,-0.787788,0.611766,-0.047179,-0.224205,-0.319225,4.541046,-15.308762,39.293335,,,,,,
1478209382.13,3.001951,0.872323,1.650818,1.785373,-0.663111,-0.706034,0.089505,-0.765825,0.636790,0.012149,-0.167754,-0.381129,5.745972,-13.960510,40.051697,,,,,,
1478209382.15,2.976784,0.832234,1.665604,1.990381,-0.740113,-0.824014,0.110452,-0.739437,0.664103,-0.017251,-0.336002,-0.321696,5.745972,-13.960510,40.051697,,,,,,
1478209382.17,2.948469,0.787898,1.679713,2.184899,-1.032940,-0.918304,0.135372,-0.708872,0.692225,0.059620,-0.548468,-0.470881,6.424835,-12.460968,40.131042,,,,,,
1478209382.19,2.913166,0.738653,1.694299,2.388268,-1.430850,-1.124158,0.167429,-0.673293,0.720170,0.069937,-0.603380,-0.656434,6.875641,-10.739594,40.805542,,,,,,
1478209382.21,2.872500,0.684644,1.708614,2.559906,-1.570505,-1.222001,0.205945,-0.632397,0.746767,-0.196973,-0.949634,-0.774538,10.036072,-6.691406,40.977234,,,,,,
1478209382.23,2.840883,0.625147,1.720043,2.866199,-0.951539,-1.304291,0.240181,-0.585216,0.774490,-0.411781,-1.066639,-0.486740,11.084137,-4.071487,40.679199,,,,,,
1478209382.25,2.827136,0.560351,1.731680,2.997984,-0.027590,-1.589194,0.261998,-0.531483,0.805532,-0.408803,-0.907665,0.079966,11.084137,-4.071487,40.679199,,,,,,
1478209382.27,2.827252,0.496292,1.745241,2.744414,0.479081,-1.472135,0.271887,-0.476168,0.836266,-0.291509,-1.061963,-0.144463,12.218964,-1.743912,40.539001,,,,,,
1478209382.29,2.831263,0.443758,1.755204,2.144737,0.303836,-1.073847,0.275796,-0.429337,0.860004,-0.174798,-0.800552,-0.394611,11.783112,4.031555,40.382874,,,,,,
1478209382.32,2.826310,0.408306,1.758419,1.290412,-0.563222,-0.374652,0.284594,-0.397055,0.872556,-0.112796,-0.595453,-0.414487,11.488953,6.506912,40.229370,,,,,,
1478209382.34,2.800718,0.402087,1.750911,0.007113,-1.804616,0.570784,0.307649,-0.391340,0.867298,-0.173662,-0.651187,-1.045993,11.865509,7.482407,39.781677,,,,,,
1478209382.36,2.768009,0.418078,1.737001,-0.852574,-1.904693,1.022882,0.333521,-0.406005,0.850837,-0.299845,-0.242540,-0.669059,11.865509,7.482407,39.781677,,,,,,
1478209382.38,2.739101,0.454344,1.725596,-1.874322,-1.512693,1.260441,0.351973,-0.438873,0.826744,-0.430159,-0.329087,-0.520973,12.706390,7.646042,39.497009,,,,,,
1478209382.40,2.723330,0.509224,1.718935,-2.714701,-0.549197,1.434257,0.354639,-0.487500,0.797856,-0.392542,-0.278568,-0.388814,16.447693,4.870483,38.626465,,,,,,
1478209382.42,2.726108,0.580009,1.716852,-3.495227,0.395044,1.565852,0.337622,-0.548031,0.765293,-0.278052,-0.281040,-0.304157,16.965302,2.320999,38.106628,,,,,,
1478209382.44,2.738330,0.674368,1.718690,-4.099369,0.803002,1.632180,0.306521,-0.624403,0.718446,-0.105517,-0.239198,-0.255205,16.509369,-0.229111,38.329468,,,,,,
1478209382.46,2.754381,0.769327,1.721951,-4.670880,0.945967,1.792755,0.271266,-0.695652,0.665194,-0.005931,-0.270245,-0.060031,16.509369,-0.229111,38.329468,,,,,,
1478209382.48,2.768396,0.875406,1.724216,-5.155678,0.646339,1.978963,0.233590,-0.767804,0.596584,0.095130,-0.271777,0.046696,16.199951,-3.753494,38.028931,,,,,,
1478209382.50,2.775211,0.989615,1.722609,-5.434099,0.045086,2.213603,0.196678,-0.835814,0.512574,0.120400,-0.243913,0.135742,14.453430,-11.701401,37.194824,,,,,,
1478209382.52,2.780216,1.109589,1.712317,-5.622314,-0.272677,2.491951,0.157346,-0.895516,0.416285,0.129687,-0.214210,0.269933,14.065033,-15.974167,35.843994,,,,,,
1478209382.54,2.800008,1.234506,1.687462,-5.798478,-0.039618,2.684368,0.110539,-0.943985,0.310922,0.112804,-0.214019,0.437140,13.300171,-20.471069,34.040588,,,,,,
1478209382.56,2.862765,1.362322,1.628044,-5.905738,0.468805,2.744745,0.056963,-0.978348,0.198974,0.118223,-0.207291,0.676102,13.300171,-20.471069,34.040588,,,,,,
1478209382.58,3.109683,1.485598,1.392991,-5.713912,0.811862,2.584538,0.002715,-0.996373,0.085052,0.218126,-0.152599,0.985886,12.759399,-24.741959,31.488586,,,,,,
1478209382.60,-1.113835,1.519611,-0.649516,-5.209814,1.037117,2.336808,-0.045913,-0.998690,-0.022574,0.431854,-0.112973,1.174964,9.053406,-32.381210,25.539673,,,,,,
1478209382.62,-0.632058,1.421448,-1.115018,-4.639370,0.711475,2.074314,-0.087908,-0.988868,-0.120049,0.570757,0.051048,1.342018,7.014923,-35.300552,22.450806,,,,,,
1478209382.64,-0.550189,1.335246,-1.192643,-3.580839,0.081607,1.613774,-0.122021,-0.972386,-0.198938,0.610364,0.131611,1.382592,4.978180,-37.394669,19.211609,,,,,,
1478209382.66,-0.530128,1.275244,-1.210193,-2.127538,0.311528,1.196675,-0.147278,-0.956642,-0.251289,0.320083,0.245979,1.536049,4.978180,-37.394669,19.211609,,,,,,
1478209382.68,-0.530319,1.253008,-1.199535,-0.057047,0.500863,0.356165,-0.158048,-0.949929,-0.269548,0.295225,0.684304,1.636964,3.542908,-39.114456,16.201660,,,,,,
1478209382.70,-0.558796,1.275898,-1.163820,1.925325,0.135253,-0.331761,-0.154089,-0.956832,-0.246434,0.516760,0.666503,1.360219,1.810211,-40.385178,13.939331,,,,,,
1478209382.72,-0.632971,1.319238,-1.089683,2.139998,-0.593724,-0.315633,-0.147243,-0.968526,-0.200692,0.025676,-0.181224,0.050912,1.738281,-40.237167,15.288696,,,,,,
1478209382.74,-0.730497,1.340221,-1.008652,1.283386,-0.539384,0.583337,-0.152489,-0.973535,-0.170224,-0.669654,-0.874289,-0.557666,2.268188,-39.715134,17.092468,,,,,,
1478209382.76,-0.849925,1.355314,-0.870174,1.810753,1.740120,0.148449,-0.160627,-0.976873,-0.141129,-1.057421,-0.170343,0.285126,2.268188,-39.715134,17.092468,,,,,,
1478209382.78,-0.896592,1.393139,-0.755231,2.374191,4.077264,-1.082574,-0.138058,-0.984260,-0.110324,0.248440,-1.000130,0.351566,1.300995,-38.443130,19.409485,,,,,,
1478209382.80,-1.041521,1.443303,-0.522412,3.181202,3.951007,-0.903369,-0.109751,-0.991884,-0.064198,1.224390,-0.880843,0.866307,0.406311,-37.695267,21.127502,,,,,,
1478209382.82,-1.539100,1.477388,0.019022,3.296184,0.830821,-0.592476,-0.093226,-0.995641,-0.002956,2.145732,-0.243556,-0.128819,-0.861206,-36.497986,23.367371,,,,,,
1478209382.84,-2.166411,1.463189,0.639336,2.976262,-0.929772,0.008824,-0.088906,-0.994216,0.060253,0.239220,0.297362,0.389622,-1.528473,-35.301254,25.761719,,,,,,
1478209382.86,-2.457824,1.426231,0.910261,2.190434,-1.228600,0.293440,-0.091007,-0.989569,0.111676,-0.557049,0.242743,0.847216,-1.528473,-35.301254,25.761719,,,,,,
1478209382.88,-2.589532,1.398230,1.028888,1.456915,-0.358977,-0.149423,-0.090053,-0.985147,0.146203,-0.001317,-0.086508,0.676032,-0.013794,-32.382538,29.446655,,,,,,
1478209382.90,-2.669809,1.379850,1.111118,1.037305,0.220797,-0.185611,-0.086254,-0.981825,0.169056,-0.128269,-0.258333,0.385601,0.291321,-31.184265,30.498352,,,,,,
1478209382.92,-2.712180,1.364736,1.163829,0.864542,0.592276,-0.118998,-0.085185,-0.978845,0.186030,0.124751,-0.145133,0.115774,0.069794,-30.510498,31.396301,,,,,,
1478209382.94,-2.738352,1.350851,1.203336,0.777822,0.546765,-0.075761,-0.085613,-0.975909,0.200678,0.129344,-0.018887,-0.017481,-0.378265,-29.910614,31.617676,,,,,,
1478209382.96,-2.761780,1.336871,1.227884,0.748064,-0.375158,0.078767,-0.085938,-0.972764,0.215278,0.113053,-0.009795,-0.090995,-0.378265,-29.910614,31.617676,,,,,,
1478209382.98,-2.786709,1.321830,1.235927,0.739687,-1.017497,0.207439,-0.085620,-0.969168,0.231048,0.088016,-0.017328,0.003144,-0.298737,-28.937225,32.667786,,,,,,
1478209383.00,-2.812358,1.306441,1.243193,0.776896,-0.837844,0.149887,-0.084479,-0.965261,0.247254,-0.060434,0.002828,-0.033646,0.077911,-28.713211,33.195557,,,,,,
1478209383.02,-2.836501,1.290435,1.255158,0.838422,-0.505152,0.056064,-0.083116,-0.960955,0.263925,-0.104536,0.004382,-0.053018,0.831177,-27.814377,33.725708,,,,,,
1478209383.04,-2.860136,1.273721,1.273274,0.909223,-0.227735,-0.037645,-0.081306,-0.956197,0.281207,-0.103036,0.055928,-0.042850,0.981934,-27.514450,33.726685,,,,,,
1478209383.06,-2.884406,1.256081,1.294973,0.959947,-0.163989,-0.106656,-0.078736,-0.950884,0.299365,-0.066985,0.054598,-0.037509,0.981934,-27.514450,33.726685,,,,,,
1478209383.08,-2.908786,1.237770,1.317854,0.994390,-0.123641,-0.140592,-0.075420,-0.945057,0.318086,-0.060734,0.030934,-0.027711,1.662201,-26.316483,34.856140,,,,,,
1478209383.10,-2.931765,1.218338,1.338759,1.057914,-0.201491,-0.120963,-0.071903,-0.938527,0.337634,0.022968,-0.012797,-0.070194,1.515106,-25.642303,35.454712,,,,,,
1478209383.12,-2.954286,1.197053,1.357095,1.154400,-0.308142,-0.107496,-0.067987,-0.930967,0.358717,0.090555,-0.024172,-0.128095,1.967407,-25.193436,36.057922,,,,,,
1478209383.14,-2.976791,1.173283,1.373538,1.283973,-0.404261,-0.098122,-0.063511,-0.922026,0.381882,0.048099,-0.037065,-0.117447,2.120605,-24.219070,36.433594,,,,,,
1478209383.16,-3.001221,1.146767,1.389923,1.424523,-0.508821,-0.145093,-0.057565,-0.911438,0.407390,-0.036384,-0.012664,-0.133876,2.120605,-24.219070,36.433594,,,,,,
1478209383.18,-3.028521,1.116898,1.408521,1.616828,-0.530530,-0.245130,-0.049473,-0.898745,0.435672,-0.136119,0.017427,-0.171497,2.801819,-22.495880,37.412781,,,,,,
1478209383.20,-3.058457,1.082981,1.430046,1.830609,-0.551198,-0.371664,-0.038920,-0.883359,0.467079,-0.099813,-0.069049,-0.239814,3.257050,-21.072357,38.240479,,,,,,
1478209383.22,-3.090313,1.044366,1.453346,2.061107,-0.608124,-0.466116,-0.025754,-0.864606,0.501790,0.003873,-0.185870,-0.254002,3.562103,-19.723740,39.067139,,,,,,
1478209383.24,-3.123283,1.000865,1.477357,2.304976,-0.592706,-0.613829,-0.009879,-0.841938,0.539484,0.025473,-0.182110,-0.253763,3.792297,-18.074677,39.593018,,,,,,
1478209383.26,3.128753,0.951754,1.502654,2.574718,-0.468951,-0.749855,0.007450,-0.814435,0.580207,-0.135746,-0.176730,-0.238960,3.792297,-18.074677,39.593018,,,,,,
1478209383.28,3.101249,0.898311,1.525556,2.717586,-0.496995,-0.784156,0.025124,-0.782276,0.622425,-0.012383,-0.294323,-0.198399,5.980011,-14.328262,41.257568,,,,,,
1478209383.30,3.071699,0.842051,1.545803,2.832659,-0.873643,-0.827659,0.046506,-0.746010,0.664308,0.189852,-0.538154,-0.281526,6.586823,-12.004349,41.785950,,,,,,
1478209383.32,3.033307,0.782003,1.562257,3.023158,-1.602449,-0.863825,0.076679,-0.704702,0.705348,0.232556,-0.743296,-0.541605,6.744263,-9.455215,42.310852,,,,,,
1478209383.34,2.983541,0.717841,1.578402,3.179355,-2.127742,-1.093163,0.118554,-0.657760,0.743840,0.063102,-1.057160,-0.963139,9.383881,-3.982224,42.777893,,,,,,
1478209383.36,2.928702,0.651914,1.594208,3.119335,-2.274979,-1.288072,0.167957,-0.606709,0.776978,-0.124011,-1.360759,-0.829361,9.383881,-3.982224,42.777893,,,,,,
1478209383.38,2.880087,0.584156,1.608862,3.215756,-1.782786,-1.440514,0.215665,-0.551495,0.805817,-0.213513,-1.045383,-0.040742,11.190155,-1.057358,42.265015,,,,,,
1478209383.40,2.843921,0.515952,1.625710,2.926640,-1.197674,-1.728280,0.255115,-0.493363,0.831570,-0.286457,-1.129897,0.148593,13.822845,2.241760,41.983093,,,,,,
1478209383.42,2.815293,0.463112,1.639775,1.953017,-0.986175,-1.110155,0.286776,-0.446734,0.847460,-0.558535,-1.563977,-0.306536,14.505280,5.391739,41.761658,,,,,,
1478209383.44,2.800477,0.430775,1.646355,1.191731,-0.358324,-0.654366,0.303976,-0.417575,0.856288,-0.548727,-0.623288,-0.309429,15.414276,9.817856,40.716309,,,,,,
1478209383.46,2.795858,0.415699,1.648300,0.276339,-0.347851,-0.090969,0.310026,-0.403829,0.860701,-0.255354,-0.050654,0.093965,15.414276,9.817856,40.716309,,,,,,
1478209383.48,2.779120,0.428604,1.643471,-1.016166,-1.355146,0.753997,0.322514,-0.415601,0.850447,-0.214085,-0.638705,-1.003218,15.341583,10.567566,40.940308,,,,,,
1478209383.50,2.754634,0.466064,1.633344,-1.880342,-1.389424,1.279421,0.337125,-0.449374,0.827291,-0.229199,-0.150068,-0.674230,15.866089,10.191956,41.169495,,,,,,
1478209383.52,2.736727,0.521623,1.623503,-2.749148,-0.951317,1.616749,0.341512,-0.498288,0.796918,-0.317556,0.047589,-0.561338,16.612091,8.466339,41.325928,,,,,,
1478209383.54,2.728062,0.596811,1.615261,-3.651928,-0.501385,1.942163,0.332379,-0.562007,0.757411,-0.297711,-0.002354,-0.492687,18.321716,2.240356,41.416870,,,,,,
1478209383.56,2.727045,0.687807,1.609838,-4.358562,-0.031571,2.087659,0.311201,-0.634844,0.707196,-0.147383,0.072115,-0.305173,18.321716,2.240356,41.416870,,,,,,
1478209383.58,2.733203,0.790921,1.607562,-4.926674,0.402756,2.208422,0.279259,-0.711001,0.645362,-0.038964,-0.088209,-0.213385,18.085754,-2.259750,41.567383,,,,,,
1478209383.60,2.747244,0.904818,1.605756,-5.456866,0.743373,2.345504,0.237374,-0.786313,0.570408,0.033286,-0.130298,0.048412,17.098206,-6.983704,41.187317,,,,,,
1478209383.62,2.761829,1.027676,1.604134,-5.810421,0.563697,2.394931,0.191582,-0.856100,0.479989,0.176643,-0.154245,0.153373,16.633179,-12.081787,40.061401,,,,,,
1478209383.64,2.775528,1.154468,1.597053,-5.926322,0.290574,2.547998,0.144754,-0.914580,0.377610,0.151556,-0.244417,0.294127,13.523193,-22.648773,35.768250,,,,,,
1478209383.66,2.804973,1.284462,1.574467,-6.053687,0.558766,2.622470,0.093289,-0.959285,0.266587,0.170551,-0.276615,0.539611,13.523193,-22.648773,35.768250,,,,,,
1478209383.68,2.869680,1.414728,1.525663,-6.079237,1.027079,2.370394,0.041746,-0.987846,0.149724,0.158678,-0.317925,0.846751,12.006622,-26.918610,32.834106,,,,,,
1478209383.70,-3.044737,1.537775,1.181356,-5.811818,1.402043,2.064718,-0.003193,-0.999455,0.032860,0.153202,-0.295665,1.039985,10.415070,-30.737503,29.299011,,,,,,
1478209383.72,-0.507715,1.483112,-1.323444,-5.245455,1.786244,2.000181,-0.042576,-0.996158,-0.076526,0.223378,-0.191723,1.319736,8.073242,-34.330475,25.383301,,,,,,
1478209383.74,-0.411157,1.381624,-1.388738,-4.463394,1.369531,1.747505,-0.075156,-0.982160,-0.172374,0.457526,-0.149111,1.215923,4.221771,-39.192825,18.231873,,,,,,
1478209383.76,-0.393763,1.300175,-1.390439,-3.319768,0.456231,1.490119,-0.102565,-0.963605,-0.246872,0.462169,0.099698,1.182663,4.221771,-39.192825,18.231873,,,,,,
1478209383.78,-0.405476,1.248737,-1.376411,-1.610607,-0.112857,0.937257,-0.124854,-0.948586,-0.290856,0.467719,0.451256,1.416130,2.260529,-40.611099,14.392822,,,,,,
1478209383.80,-0.427825,1.244898,-1.359541,0.855499,-0.350893,-0.033491,-0.132832,-0.947364,-0.291304,0.446019,1.045188,1.302870,1.129028,-41.357025,12.059692,,,,,,
1478209383.82,-0.463082,1.278121,-1.327445,2.065007,-0.141680,-0.317771,-0.128882,-0.957475,-0.258128,0.200812,0.516680,1.392039,0.679993,-41.132126,12.281189,,,,,,
1478209383.84,-0.522141,1.317425,-1.273462,1.950350,-0.631423,-0.314462,-0.125018,-0.968073,-0.217268,0.090808,-0.085806,0.317396,0.908722,-40.909622,13.857849,,,,,,
1478209383.86,-0.598658,1.346428,-1.207955,1.601250,-0.391835,0.109055,-0.125381,-0.974935,-0.183798,-0.118439,-0.562114,-0.537012,0.908722,-40.909622,13.857849,,,,,,
1478209383.88,-0.688071,1.377531,-1.105821,2.147992,1.242370,-0.377969,-0.121970,-0.981382,-0.148364,-0.413613,-0.294085,-0.133923,1.362976,-40.537323,15.511047,,,,,,
1478209383.90,-0.756039,1.429597,-0.990093,2.919266,2.745745,-1.239328,-0.096548,-0.990048,-0.102390,0.076406,-0.810443,0.219044,1.141266,-39.938553,16.409058,,,,,,
1478209383.92,-1.073492,1.486688,-0.612753,3.610305,2.898933,-0.756739,-0.073833,-0.996465,-0.040077,0.159237,-0.660868,0.883766,1.079529,-37.919724,20.532593,,,,,,
1478209383.94,-1.968013,1.509227,0.335359,3.249588,2.247494,-0.848212,-0.056740,-0.998105,0.023803,0.899147,-0.050250,0.575119,0.788452,-36.573730,23.304749,,,,,,
1478209383.96,-2.600993,1.474583,0.991553,2.857805,0.434953,-0.198261,-0.049440,-0.995375,0.082366,0.455308,0.218520,0.547745,0.788452,-36.573730,23.304749,,,,,,
1478209383.98,-2.788415,1.432567,1.176783,2.121310,-0.530475,0.001416,-0.047659,-0.990461,0.129285,0.076315,0.202101,0.658953,0.271057,-34.850922,24.950073,,,,,,
1478209384.00,-2.879267,1.398659,1.251641,1.620139,-0.822123,-0.086054,-0.044420,-0.985221,0.165428,0.403642,-0.214074,0.492546,0.427551,-33.578476,26.600525,,,,,,
1478209384.02,-2.934683,1.372497,1.300177,1.257820,-0.091551,-0.154071,-0.040471,-0.980403,0.192800,-0.027720,-0.377583,0.357707,1.337433,-31.482422,28.931335,,,,,,
1478209384.04,-2.961285,1.351974,1.337471,0.993833,0.801362,-0.199461,-0.038929,-0.976154,0.213561,0.045750,0.010791,0.214814,1.415680,-30.733475,29.606506,,,,,,
1478209384.06,-2.974471,1.335382,1.367483,0.823682,0.655127,-0.158658,-0.038799,-0.972418,0.229996,0.115566,0.039511,0.081924,1.415680,-30.733475,29.606506,,,,,,
1478209384.08,-2.988290,1.321347,1.383686,0.676901,-0.250439,-0.020765,-0.037698,-0.969049,0.243975,0.119897,-0.032523,0.043715,0.968933,-30.134613,30.502869,,,,,,
1478209384.10,-3.001424,1.309073,1.386351,0.598431,-0.578872,0.078302,-0.036149,-0.965945,0.256208,-0.004118,-0.018903,0.042910,0.969940,-29.909943,30.727783,,,,,,
1478209384.12,-3.011514,1.296820,1.387710,0.632394,-0.345056,0.058972,-0.035095,-0.962703,0.268276,-0.049378,-0.050084,-0.075740,1.422760,-29.160843,31.180786,,,,,,
1478209384.14,-3.018661,1.283293,1.389506,0.711528,-0.260260,0.058213,-0.034771,-0.958955,0.281419,0.031261,-0.018538,-0.101045,1.124207,-29.161819,31.928528,,,,,,
1478209384.16,-3.027779,1.267857,1.393122,0.821317,-0.306268,0.022694,-0.033880,-0.954464,0.296397,0.006552,0.045406,-0.111109,1.124207,-29.161819,31.928528,,,,,,
1478209384.18,-3.040611,1.250473,1.399949,0.911145,-0.306461,-0.032166,-0.031743,-0.949134,0.313270,-0.112255,0.095450,-0.082832,1.426697,-28.487534,32.305542,,,,,,
1478209384.20,-3.054872,1.231828,1.411247,0.972238,-0.076841,-0.133307,-0.028800,-0.943098,0.331265,-0.134744,0.091810,-0.012036,1.878906,-27.888336,32.683594,,,,,,
1478209384.22,-3.067246,1.212431,1.426110,1.005392,0.138994,-0.203710,-0.026053,-0.936471,0.349775,-0.037592,0.031808,-0.005720,2.183624,-26.614609,33.435242,,,,,,
1478209384.24,-3.078836,1.192306,1.440725,1.044329,0.046330,-0.178872,-0.023175,-0.929223,0.368791,0.068600,-0.050070,-0.045991,2.261871,-25.790543,34.035400,,,,,,
1478209384.26,-3.090281,1.171149,1.451503,1.094424,-0.147427,-0.120819,-0.019956,-0.921198,0.388582,0.136549,-0.070989,-0.063112,2.261871,-25.790543,34.035400,,,,,,
1478209384.28,-3.103195,1.148706,1.459610,1.169357,-0.345417,-0.119041,-0.015726,-0.912235,0.409366,0.078165,-0.038830,-0.096179,1.965179,-24.891174,34.557739,,,,,,
1478209384.30,-3.119435,1.124032,1.468730,1.299496,-0.424385,-0.190591,-0.009572,-0.901850,0.431944,-0.070490,-0.038199,-0.126600,2.417358,-24.367081,35.010864,,,,,,
1478209384.32,-3.140055,1.095689,1.480984,1.522397,-0.536555,-0.293517,-0.000703,-0.889244,0.457433,-0.118117,-0.079064,-0.231145,3.624329,-22.494385,36.144043,,,,,,
1478209384.34,3.117231,1.061657,1.495979,1.824187,-0.687200,-0.426820,0.011873,-0.873164,0.487281,-0.040133,-0.130452,-0.313255,3.928009,-21.144775,36.295593,,,,,,
1478209384.36,3.087696,1.021496,1.513724,2.104285,-0.706945,-0.595571,0.028125,-0.852890,0.521333,-0.012272,-0.194305,-0.318406,3.928009,-21.144775,36.295593,,,,,,
1478209384.38,3.057755,0.975631,1.535606,2.353821,-0.489349,-0.855333,0.046948,-0.828056,0.558677,-0.087811,-0.242379,-0.248633,4.383820,-19.721695,37.423279,,,,,,
1478209384.40,3.030932,0.924713,1.559913,2.545947,-0.315382,-0.987604,0.066489,-0.798448,0.598381,-0.225257,-0.303908,-0.219353,6.194519,-16.349304,38.560181,,,,,,
1478209384.42,3.005399,0.870357,1.581797,2.682964,-0.544290,-1.050373,0.087513,-0.764559,0.638585,-0.076130,-0.385084,-0.239262,6.426147,-14.175323,39.160828,,,,,,
1478209384.44,2.973040,0.812632,1.600554,2.840630,-1.175224,-1.062384,0.115347,-0.726100,0.677845,0.149790,-0.598943,-0.426960,7.257385,-11.926193,39.465942,,,,,,
1478209384.46,2.929891,0.749754,1.615663,3.099154,-1.846639,-1.212165,0.153781,-0.681459,0.715517,0.142255,-0.818327,-0.791735,7.257385,-11.926193,39.465942,,,,,,
1478209384.48,2.882667,0.680504,1.631605,3.322717,-1.763960,-1.482509,0.199011,-0.629185,0.751346,-0.215109,-1.273769,-0.947925,8.388885,-9.527115,39.698181,,,,,,
1478209384.50,2.843832,0.608358,1.646084,3.339652,-1.390649,-1.596886,0.240744,-0.571521,0.784478,-0.286047,-1.301068,-0.439782,11.552795,-3.603058,39.268982,,,,,,
1478209384.52,2.814842,0.534713,1.661093,3.280637,-0.812656,-1.887634,0.276165,-0.509594,0.814891,-0.371975,-1.201954,0.022115,13.285156,-0.378357,38.905396,,,,,,
1478209384.54,2.789704,0.468017,1.679572,2.578296,-0.876618,-1.705109,0.307607,-0.451117,0.837778,-0.546681,-1.564035,-0.244531,14.266754,2.922379,38.086121,,,,,,
1478209384.56,2.776050,0.420147,1.689854,1.817789,-0.072544,-1.104811,0.326368,-0.407895,0.852705,-0.647153,-0.931781,-0.188841,14.266754,2.922379,38.086121,,,,,,
1478209384.58,2.784790,0.389840,1.697654,0.942757,0.813071,-0.713910,0.323073,-0.380040,0.866714,-0.283446,-0.274226,0.224503,14.948792,6.147812,37.564575,,,,,,
1478209384.60,2.789816,0.386748,1.700823,-0.436731,-0.018592,0.169698,0.319117,-0.377179,0.869425,-0.173060,-0.755710,-0.666758,14.356201,9.674133,36.883423,,,,,,
1478209384.62,2.776647,0.414864,1.696824,-1.669990,-1.013148,0.917036,0.326623,-0.403066,0.854901,-0.079202,-0.452739,-0.784146,14.281830,9.974289,36.807678,,,,,,
1478209384.64,2.756088,0.464581,1.690195,-2.534078,-1.185473,1.351124,0.336171,-0.448049,0.828397,-0.130971,-0.046245,-0.497693,15.404510,8.848373,37.041687,,,,,,
1478209384.66,2.737792,0.533549,1.683632,-3.432983,-1.011046,1.754687,0.338304,-0.508592,0.791760,-0.193635,-0.028319,-0.435788,15.404510,8.848373,37.041687,,,,,,
1478209384.68,2.723540,0.620661,1.678512,-4.204179,-0.746490,2.058751,0.330264,-0.581573,0.743437,-0.126773,0.059829,-0.354277,16.975342,6.821899,37.504456,,,,,,
1478209384.70,2.713924,0.721697,1.674754,-4.797391,-0.513288,2.332971,0.311347,-0.660659,0.683076,-0.031684,0.066467,-0.278107,18.684326,-0.305328,38.420837,,,,,,
1478209384.72,2.711309,0.835798,1.669365,-5.342984,-0.194302,2.706320,0.279721,-0.741832,0.609460,-0.036907,0.003047,-0.190774,18.973236,-4.880707,38.575317,,,,,,
1478209384.74,2.715869,0.961868,1.662339,-5.866507,-0.002622,2.886245,0.236220,-0.820262,0.520933,0.022676,0.039897,0.025286,18.958923,-10.129807,37.977783,,,,,,
1478209384.76,2.725287,1.095687,1.652615,-6.127130,0.104236,3.056035,0.184980,-0.889243,0.418366,0.147799,0.049506,0.171585,18.958923,-10.129807,37.977783,,,,,,
1478209384.78,2.753464,1.235122,1.628952,-6.361248,0.512908,3.244672,0.124666,-0.944189,0.304904,0.160597,-0.059214,0.358426,18.492340,-15.978119,37.002258,,,,,,
1478209384.80,2.829325,1.378519,1.569719,-6.604477,1.164504,3.151861,0.058708,-0.981571,0.181854,0.240365,-0.218456,0.661805,15.005524,-27.445282,32.931885,,,,,,
1478209384.82,-3.124342,1.519340,1.265078,-6.607054,1.392880,2.669281,-0.000887,-0.998676,0.051426,0.317965,-0.397915,1.070125,12.360626,-32.688873,29.539612,,,,,,
1478209384.84,-0.564839,1.482583,-1.264819,-6.067176,1.707713,2.201260,-0.047158,-0.996112,-0.074415,0.383751,-0.411817,1.402693,9.640442,-37.331055,25.246521,,,,,,
1478209384.86,-0.416824,1.365618,-1.376962,-5.224646,1.838313,1.954469,-0.082486,-0.979025,-0.186297,0.368039,-0.205012,1.566973,9.640442,-37.331055,25.246521,,,,,,
1478209384.88,-0.382268,1.274629,-1.381629,-3.514429,1.241303,1.558137,-0.108870,-0.956462,-0.270791,0.342802,-0.045781,1.656212,3.906860,-43.239075,15.831482,,,,,,
1478209384.90,-0.385916,1.232557,-1.361098,-0.679181,0.491518,0.725388,-0.124902,-0.943340,-0.307422,0.429147,0.403210,1.925876,1.796295,-44.507477,12.141296,,,,,,
1478209384.92,-0.410623,1.257532,-1.335344,2.258567,-0.308912,-0.513359,-0.123014,-0.951333,-0.282549,0.498929,1.030587,1.577806,0.591492,-45.104401,10.482544,,,,,,
1478209384.94,-0.480943,1.304748,-1.279185,2.313603,-1.252774,-0.131594,-0.121631,-0.964817,-0.233095,0.048267,-0.283825,0.165727,-0.156891,-45.180374,11.376953,,,,,,
1478209384.96,-0.577185,1.335324,-1.206877,1.720169,-0.965468,0.208541,-0.127306,-0.972404,-0.195508,-0.382109,-0.701042,-0.698977,-0.156891,-45.180374,11.376953,,,,,,
1478209384.98,-0.657193,1.370925,-1.107708,2.290377,2.141776,-0.652106,-0.121289,-0.980092,-0.157188,-0.261539,-0.286403,0.521568,-0.299438,-44.885361,14.750732,,,,,,
1478209385.00,-0.649075,1.431690,-1.045960,3.113892,3.757876,-1.627251,-0.083812,-0.990340,-0.110461,0.362132,-1.173036,0.808871,-0.893860,-43.987518,16.395813,,,,,,
1478209385.02,-0.900824,1.498670,-0.724687,3.648204,3.196541,-0.828261,-0.056486,-0.997400,-0.044749,0.587538,-0.696341,0.979380,-0.512634,-42.940414,18.198181,,,,,,
1478209385.04,-2.015756,1.524442,0.444614,3.243204,2.134202,-0.541454,-0.041826,-0.998926,0.019945,1.295427,0.122110,0.511794,-0.877747,-41.444824,21.269714,,,,,,
1478209385.06,-2.682123,1.481983,1.125571,2.878353,-0.108789,-0.009924,-0.039334,-0.996059,0.079498,0.276548,0.416972,0.510239,-0.877747,-41.444824,21.269714,,,,,,
1478209385.08,-2.841054,1.437035,1.270127,2.128422,-1.051753,0.136421,-0.039480,-0.991067,0.127385,0.029730,0.064279,0.605174,-1.685883,-38.150940,25.612000,,,,,,
1478209385.10,-2.914301,1.401636,1.321113,1.638275,-1.028652,-0.004693,-0.037937,-0.985727,0.164024,0.213642,-0.265265,0.480324,-1.979980,-37.178391,27.334290,,,,,,
1478209385.12,-2.961900,1.374683,1.360228,1.288406,-0.103482,-0.097441,-0.034827,-0.980831,0.191721,-0.199320,-0.319248,0.327948,-0.849915,-36.130753,28.542297,,,,,,
1478209385.14,-2.986122,1.352629,1.394017,1.092667,0.720193,-0.192382,-0.033515,-0.976296,0.213830,-0.036767,-0.046272,0.209067,-0.471100,-35.307312,29.444702,,,,,,
1478209385.16,-3.002167,1.332731,1.425551,1.030509,0.606646,-0.196809,-0.032773,-0.971796,0.233535,0.055845,0.026148,-0.013396,-0.471100,-35.307312,29.444702,,,,,,
1478209385.18,-3.021293,1.312998,1.447025,1.000192,-0.252468,-0.088153,-0.030597,-0.966954,0.253110,0.071429,-0.004421,-0.046704,-1.064789,-34.109467,31.089600,,,,,,
1478209385.20,-3.044087,1.294131,1.457925,0.949109,-0.741453,-0.029142,-0.026591,-0.961972,0.271852,-0.032689,-0.026996,-0.015504,-1.287689,-33.434692,31.312622,,,,,,
1478209385.22,-3.066416,1.275373,1.468085,0.957774,-0.501106,-0.088007,-0.021867,-0.956679,0.290323,-0.114410,-0.017412,-0.036813,-0.760193,-32.985962,31.991333,,,,,,
1478209385.24,-3.084662,1.255466,1.482552,1.046173,-0.071711,-0.185045,-0.017646,-0.950694,0.309628,-0.059914,0.016261,-0.073254,-0.458038,-32.612015,32.593445,,,,,,
1478209385.26,-3.098995,1.233812,1.499627,1.137929,0.158807,-0.248761,-0.014080,-0.943756,0.330343,-0.050296,0.039780,-0.075842,-0.458038,-32.612015,32.593445,,,,,,
1478209385.28,-3.113165,1.210548,1.518402,1.204269,0.160798,-0.294173,-0.010020,-0.935809,0.352365,-0.025961,0.062823,-0.075128,-0.001587,-31.039169,33.871094,,,,,,
1478209385.30,-3.127247,1.186157,1.535982,1.256194,0.071337,-0.300138,-0.005383,-0.926934,0.375186,-0.036442,0.046410,-0.041904,-0.148102,-30.064896,34.394470,,,,,,
1478209385.32,3.141248,1.160329,1.551056,1.337313,-0.124608,-0.264266,0.000138,-0.916935,0.399037,0.069412,-0.031277,-0.080373,-0.219971,-29.240631,34.918518,,,,,,
1478209385.34,3.124417,1.132244,1.561921,1.465747,-0.490817,-0.223616,0.007293,-0.905367,0.424567,0.183152,-0.046644,-0.168921,-0.066315,-28.266617,35.519165,,,,,,
1478209385.36,3.104625,1.101180,1.570538,1.611425,-0.623064,-0.254549,0.016726,-0.891742,0.452235,-0.019503,-0.061123,-0.126032,-0.066315,-28.266617,35.519165,,,,,,
1478209385.38,3.084026,1.067000,1.581801,1.771579,-0.477674,-0.400791,0.027775,-0.875756,0.481954,-0.136479,-0.091880,-0.164816,0.766052,-26.318954,36.799500,,,,,,
1478209385.40,3.062522,1.028862,1.595768,1.972522,-0.512123,-0.526310,0.040741,-0.856713,0.514182,-0.016434,-0.158790,-0.255531,1.221741,-24.970856,37.927185,,,,,,
1478209385.42,3.036914,0.985064,1.611109,2.271057,-0.713754,-0.678714,0.057762,-0.833308,0.549784,0.093437,-0.276510,-0.357737,1.751617,-23.547150,38.605469,,,,,,
1478209385.44,3.006709,0.934030,1.629465,2.622917,-0.766547,-0.927922,0.079959,-0.804023,0.589198,-0.080020,-0.315118,-0.400218,3.715576,-19.425842,40.418152,,,,,,
1478209385.46,2.976825,0.874587,1.649559,2.990104,-0.650400,-1.148562,0.105190,-0.767279,0.632628,-0.280346,-0.335428,-0.360228,3.715576,-19.425842,40.418152,,,,,,
1478209385.48,2.949276,0.808969,1.670493,3.177924,-0.614503,-1.350904,0.131929,-0.723576,0.677519,-0.215135,-0.630321,-0.324583,4.848785,-16.802673,41.250305,,,,,,
1478209385.50,2.919117,0.740379,1.690077,3.286553,-1.017698,-1.400789,0.162883,-0.674568,0.720019,-0.136760,-1.077644,-0.618685,5.757141,-13.954041,41.855713,,,,,,
1478209385.52,2.880984,0.667840,1.706312,3.454908,-1.584629,-1.553353,0.202311,-0.619292,0.758649,-0.166529,-1.279649,-0.920544,6.441406,-10.955734,42.759338,,,,,,
1478209385.54,2.837434,0.592613,1.719912,3.492227,-1.899421,-1.564378,0.248423,-0.558531,0.791410,-0.263620,-1.334429,-0.707609,8.933624,-3.906662,42.549500,,,,,,
1478209385.56,2.798302,0.517594,1.731052,3.359437,-1.452204,-1.714818,0.292499,-0.494790,0.818307,-0.385348,-1.301444,-0.071054,8.933624,-3.906662,42.549500,,,,,,
1478209385.58,2.764405,0.452742,1.745750,2.396578,-1.376812,-1.702127,0.331200,-0.437433,0.836038,-0.472527,-1.518713,-0.131082,11.566284,-0.607559,42.267639,,,,,,
1478209385.60,2.741859,0.406164,1.755095,1.823682,-0.497905,-1.078559,0.357511,-0.395089,0.846221,-0.786695,-1.303276,-0.103652,12.472931,2.693222,41.447754,,,,,,
1478209385.62,2.745960,0.375458,1.761594,0.912622,0.700437,-0.713879,0.358545,-0.366699,0.858474,-0.538813,-0.440156,0.233231,13.153687,5.543915,40.776489,,,,,,
1478209385.64,2.755666,0.374303,1.764603,-0.511197,0.386575,0.222986,0.350356,-0.365623,0.862305,-0.256758,-0.657249,-0.434205,12.031891,7.495712,39.942017,,,,,,
1478209385.66,2.751567,0.404787,1.762200,-1.807241,-0.442833,0.881374,0.349486,-0.393823,0.850155,-0.082106,-0.583457,-0.888119,12.031891,7.495712,39.942017,,,,,,
1478209385.68,2.744088,0.456889,1.760481,-2.747384,-0.353152,1.187970,0.347412,-0.441158,0.827457,-0.112243,-0.038074,-0.404758,12.404938,7.121323,39.419983,,,,,,
1478209385.70,2.740357,0.528942,1.759866,-3.665284,-0.115950,1.597720,0.337184,-0.504620,0.794774,-0.231104,-0.081485,-0.421864,12.776215,5.621124,39.423523,,,,,,
1478209385.72,2.742575,0.618475,1.758276,-4.389542,0.199453,1.920061,0.316547,-0.579793,0.750758,-0.197177,-0.020259,-0.351039,13.220367,3.295898,39.428040,,,,,,
1478209385.74,2.750015,0.721401,1.757927,-4.999927,0.455280,2.056832,0.286572,-0.660437,0.694046,-0.057369,0.018179,-0.286560,13.054688,-3.229492,39.730042,,,,,,
1478209385.76,2.760126,0.835544,1.758662,-5.521464,0.535393,2.197551,0.249718,-0.741662,0.622559,0.050926,0.026818,-0.186432,13.054688,-3.229492,39.730042,,,,,,
1478209385.78,2.766894,0.960425,1.759347,-6.034975,0.217817,2.365533,0.209776,-0.819435,0.533404,0.128069,-0.003929,0.003629,12.594574,-7.204163,39.653625,,,,,,
1478209385.80,2.768293,1.093620,1.755896,-6.266203,-0.241178,2.628957,0.167492,-0.888295,0.427642,0.279834,-0.039347,0.195863,11.908630,-11.704025,39.800659,,,,,,
1478209385.82,2.777528,1.230045,1.738301,-6.276848,-0.334147,2.916455,0.118999,-0.942504,0.312291,0.223668,-0.099900,0.342677,10.842133,-17.101242,38.295410,,,,,,
1478209385.84,2.831864,1.368564,1.683931,-6.390896,0.431514,3.013661,0.061221,-0.979621,0.191299,0.154538,-0.215143,0.701172,8.857697,-27.443817,34.010742,,,,,,
1478209385.86,3.120504,1.506135,1.414544,-6.489486,1.432603,2.814663,0.001363,-0.997910,0.064602,0.033183,-0.486984,0.987782,8.857697,-27.443817,34.010742,,,,,,
1478209385.88,-0.659151,1.491517,-1.050861,-6.226624,2.333077,2.338906,-0.048503,-0.996859,-0.062605,0.156154,-0.491117,1.315520,6.438049,-32.537399,30.545105,,,,,,
1478209385.90,-0.429236,1.369908,-1.227939,-5.596225,2.843033,1.984987,-0.083044,-0.979890,-0.181439,0.256307,-0.331313,1.530377,4.095306,-36.430252,26.554443,,,,,,
1478209385.92,-0.355557,1.264598,-1.251998,-4.588181,2.177099,1.571062,-0.104934,-0.953487,-0.282582,0.581694,-0.112889,1.540699,-1.785156,-42.039993,18.338196,,,,,,
1478209385.94,-0.337797,1.192751,-1.245520,-2.432984,0.568667,1.171264,-0.122325,-0.929388,-0.348245,0.604106,0.252523,1.816522,-3.745392,-43.308701,14.799133,,,,,,
1478209385.96,-0.363836,1.184755,-1.222595,1.120916,-0.561371,0.024757,-0.133990,-0.926407,-0.351876,0.630450,1.323013,1.661111,-3.745392,-43.308701,14.799133,,,,,,
1478209385.98,-0.401561,1.229864,-1.198451,2.686738,-0.815480,-0.428244,-0.130689,-0.942443,-0.307767,0.172788,0.444976,1.674757,-4.724915,-43.981064,13.367126,,,,,,
1478209386.00,-0.475641,1.279188,-1.146892,2.009943,-1.927658,-0.317433,-0.131645,-0.957783,-0.255581,0.034187,-0.298870,0.156124,-4.647095,-44.058350,14.867676,,,,,,
1478209386.02,-0.572874,1.310482,-1.074902,1.844677,-0.768482,0.366514,-0.139515,-0.966309,-0.216292,-0.322537,-0.609817,-0.163576,-3.884796,-42.790604,19.447815,,,,,,
1478209386.04,-0.626712,1.342974,-1.003000,1.941770,1.965343,-0.684581,-0.132461,-0.974161,-0.182934,-0.146485,-0.272803,0.217587,-3.804199,-42.344009,21.698181,,,,,,
1478209386.06,-0.577356,1.397774,-0.987112,2.661978,3.732904,-1.749942,-0.093967,-0.985069,-0.144254,0.139819,-0.976082,0.475874,-3.804199,-42.344009,21.698181,,,,,,
1478209386.08,-0.596575,1.463424,-0.894552,3.296699,3.384864,-0.889002,-0.060207,-0.994241,-0.088655,0.667843,-0.974402,1.001436,-4.549957,-41.670547,22.967285,,,,,,
1478209386.10,-1.002164,1.517358,-0.435883,3.035783,2.022021,-0.472142,-0.045008,-0.998573,-0.028762,1.086008,-0.116402,0.422271,-5.368835,-40.848160,24.985718,,,,,,
1478209386.12,-2.128026,1.518774,0.702834,2.742741,-0.256431,0.140739,-0.044133,-0.998647,0.027499,0.476002,0.429098,0.407560,-6.327362,-37.779312,29.402039,,,,,,
1478209386.14,-2.586190,1.484036,1.146646,1.997232,-0.875884,0.101392,-0.045690,-0.996239,0.073627,0.020879,0.076637,0.671536,-5.943695,-36.057785,31.578979,,,,,,
1478209386.16,-2.743381,1.454282,1.284612,1.489785,-1.064457,0.053117,-0.045079,-0.993220,0.107155,0.061345,-0.257940,0.496117,-5.943695,-36.057785,31.578979,,,,,,
1478209386.18,-2.820955,1.430176,1.344653,1.150105,-0.683846,0.070897,-0.044174,-0.990129,0.133014,0.128601,-0.222899,0.263592,-5.788300,-35.160217,33.154785,,,,,,
1478209386.20,-2.853889,1.410029,1.372100,0.969748,-0.093289,0.111587,-0.045422,-0.987105,0.153496,0.053982,-0.127458,0.161125,-5.184875,-34.637100,34.208984,,,,,,
1478209386.22,-2.873957,1.392504,1.393426,0.872580,0.024094,0.042747,-0.046900,-0.984148,0.171035,0.047480,-0.054548,0.060547,-5.102631,-32.989487,35.783752,,,,,,
1478209386.24,-2.900935,1.375748,1.415012,0.861300,-0.502083,0.019002,-0.046194,-0.981038,0.188229,-0.063807,0.011983,0.017261,-4.725250,-32.465469,36.311340,,,,,,
1478209386.26,-2.930448,1.359340,1.430629,0.825232,-0.771996,0.013892,-0.043987,-0.977726,0.205223,-0.090656,0.025257,0.012352,-4.725250,-32.465469,36.311340,,,,,,
1478209386.28,-2.962142,1.343001,1.450958,0.870791,-0.438114,-0.100267,-0.040308,-0.974167,0.222204,-0.150762,0.000931,-0.071935,-4.722687,-31.791153,36.761047,,,,,,
1478209386.30,-2.993232,1.325697,1.478833,0.946274,-0.095806,-0.224919,-0.035868,-0.970113,0.239987,-0.078222,-0.006388,-0.091794,-4.045380,-31.417496,37.440918,,,,,,
1478209386.32,-3.024802,1.306565,1.509965,1.040378,-0.091761,-0.279762,-0.030433,-0.965293,0.259388,-0.050546,0.028450,-0.097111,-3.139099,-29.994995,38.796997,,,,,,
1478209386.34,-3.056256,1.285561,1.539874,1.122365,-0.160012,-0.311143,-0.023983,-0.959596,0.280359,-0.075260,0.085236,-0.062662,-3.212280,-29.620621,39.246216,,,,,,
1478209386.36,-3.087475,1.262517,1.567473,1.226399,-0.299587,-0.330584,-0.016412,-0.952857,0.302975,-0.004858,0.075889,-0.084683,-3.212280,-29.620621,39.246216,,,,,,
1478209386.38,-3.117338,1.237036,1.590910,1.335562,-0.432861,-0.314878,-0.007945,-0.944817,0.327501,0.029887,-0.003608,-0.119539,-2.757843,-28.572220,40.149170,,,,,,
1478209386.40,3.136714,1.209270,1.610588,1.436279,-0.593701,-0.326854,0.001726,-0.935358,0.353698,0.093382,-0.059683,-0.138198,-2.154327,-27.823761,40.978333,,,,,,
1478209386.42,3.107639,1.179600,1.627508,1.518204,-0.700204,-0.369886,0.012944,-0.924454,0.381075,0.049297,-0.134171,-0.092134,-0.796234,-25.801682,42.487488,,,,,,
1478209386.44,3.077278,1.147278,1.646137,1.667348,-0.630288,-0.501170,0.026413,-0.911649,0.410121,-0.086182,-0.084552,-0.147426,-0.566559,-24.527939,43.238586,,,,,,
1478209386.46,3.047381,1.110997,1.666894,1.867760,-0.532884,-0.638602,0.041746,-0.896142,0.441800,-0.149092,-0.114662,-0.251767,-0.566559,-24.527939,43.238586,,,,,,
1478209386.48,3.016921,1.069402,1.688691,2.127390,-0.592987,-0.793565,0.059768,-0.876913,0.476918,0.030137,-0.277613,-0.306020,0.338654,-23.104630,44.069702,,,,,,
1478209386.50,2.984221,1.021456,1.712458,2.420692,-0.615842,-1.031431,0.081829,-0.852869,0.515673,0.088078,-0.412847,-0.402742,2.076355,-19.658554,46.105957,,,,,,
1478209386.52,2.951082,0.965100,1.738947,2.823336,-0.498663,-1.299780,0.107809,-0.822106,0.559034,-0.140372,-0.353324,-0.505826,2.833130,-17.484970,46.785522,,,,,,
1478209386.54,2.920581,0.900762,1.765616,3.097670,-0.458734,-1.535716,0.136136,-0.783800,0.605908,-0.267377,-0.488676,-0.479412,3.891876,-15.087540,48.142334,,,,,,
1478209386.56,2.888017,0.831221,1.791311,3.269878,-0.845998,-1.692791,0.169078,-0.738755,0.652421,-0.094905,-0.931258,-0.715211,3.891876,-15.087540,48.142334,,,,,,
1478209386.58,2.846669,0.756706,1.812834,3.484912,-1.606737,-1.752192,0.211344,-0.686530,0.695708,0.112463,-1.352578,-1.288726,4.350983,-12.089005,48.969238,,,,,,
1478209386.60,2.796540,0.679419,1.827575,3.526528,-2.214971,-1.762747,0.263134,-0.628341,0.732085,-0.072323,-1.329392,-1.191267,7.592865,-6.016876,49.815491,,,,,,
1478209386.62,2.746394,0.599415,1.841926,3.523650,-1.776083,-2.249907,0.317875,-0.564159,0.762024,-0.448398,-1.096287,-0.274872,10.527008,-2.568710,50.060791,,,,,,
1478209386.64,2.713032,0.526826,1.859127,2.713317,-0.844027,-1.787398,0.359215,-0.502792,0.786235,-0.794807,-1.477722,0.311132,12.259857,0.880966,49.697083,,,,,,
1478209386.66,2.713524,0.476065,1.863108,1.908927,0.755479,-1.220488,0.368956,-0.458286,0.808607,-1.072447,-1.873883,0.021639,12.259857,0.880966,49.697083,,,,,,
1478209386.68,2.734049,0.437083,1.882098,1.134273,1.742182,-1.663756,0.359094,-0.423298,0.831787,-0.668206,-0.308345,0.351181,13.088867,3.131775,48.877197,,,,,,
1478209386.70,2.752472,0.423554,1.907028,-0.377239,1.263123,-0.935764,0.345851,-0.411003,0.843483,-0.273021,-0.786217,-0.465507,10.693115,6.285721,47.057617,,,,,,
1478209386.72,2.760829,0.444425,1.922895,-1.716421,0.453584,-0.011518,0.335529,-0.429939,0.838196,-0.174228,-0.423393,-0.650895,9.192078,6.362381,46.446289,,,,,,
1478209386.74,2.757321,0.489444,1.938312,-2.744728,0.067203,0.328318,0.330870,-0.470135,0.818228,-0.282729,-0.040836,-0.514670,8.738037,5.163406,45.918518,,,,,,
1478209386.76,2.749823,0.555730,1.954997,-3.721246,0.022833,0.755206,0.324366,-0.527563,0.785152,-0.392328,0.080511,-0.388103,8.738037,5.163406,45.918518,,,,,,
1478209386.78,2.739471,0.641177,1.972206,-4.543139,-0.049608,1.141471,0.313642,-0.598139,0.737467,-0.379621,0.223673,-0.232035,8.507172,3.063950,45.617859,,,,,,
1478209386.80,2.727519,0.742227,1.991248,-5.178703,0.041183,1.464642,0.296512,-0.675931,0.674684,-0.254367,0.252362,-0.140108,8.714966,-3.460495,45.172668,,,,,,
1478209386.82,2.716277,0.855951,2.010594,-5.697391,0.198419,1.874578,0.270465,-0.755195,0.597101,-0.247485,0.210471,-0.032251,8.477905,-7.809479,44.573059,,,,,,
1478209386.84,2.707307,0.981809,2.027927,-6.144280,0.258591,2.332959,0.233742,-0.831504,0.503951,-0.217628,0.076941,0.068391,7.936554,-13.207062,43.146667,,,,,,
1478209386.86,2.700209,1.118141,2.041981,-6.463272,0.246144,2.741058,0.186834,-0.899289,0.395440,-0.157293,-0.072009,0.302070,7.936554,-13.207062,43.146667,,,,,,
1478209386.88,2.704432,1.260574,2.045842,-6.533883,0.556116,3.132998,0.129242,-0.952266,0.276562,-0.051239,-0.219762,0.528995,6.494049,-18.828735,41.413696,,,,,,
1478209386.90,2.765619,1.406699,2.006069,-6.606946,1.514785,3.428133,0.059983,-0.986566,0.151951,-0.022568,-0.423178,0.926143,4.130371,-29.243073,35.101135,,,,,,
1478209386.92,-2.906918,1.547778,1.431973,-6.527580,1.956653,2.908421,-0.005352,-0.999735,0.022385,0.195705,-0.423803,1.230468,1.559387,-34.035019,30.584290,,,,,,
1478209386.94,-0.499578,1.454220,-0.938259,-6.014946,1.865382,2.481319,-0.055720,-0.993213,-0.102097,0.283793,-0.523755,1.547166,-1.083893,-37.551590,25.841187,,,,,,
1478209386.96,-0.426777,1.334834,-0.979511,-5.179187,1.418578,2.313078,-0.096770,-0.972290,-0.212809,0.492186,-0.235306,1.689845,-1.083893,-37.551590,25.841187,,,,,,
1478209386.98,-0.425404,1.241213,-0.962376,-3.472785,0.512035,2.013001,-0.133566,-0.946177,-0.294803,0.707648,0.096812,1.713092,-3.725006,-39.942703,20.797668,,,,,,
1478209387.00,-0.456329,1.194806,-0.928062,-0.771186,-0.117137,1.154851,-0.161806,-0.930144,-0.329621,0.515444,0.410171,2.030106,-7.421448,-42.028671,12.670837,,,,,,
1478209387.02,-0.497171,1.213303,-0.886325,2.126976,-0.062415,-0.249332,-0.166895,-0.936777,-0.307564,0.573801,1.319345,1.722633,-8.700928,-42.550644,11.086548,,,,,,
1478209387.04,-0.548587,1.261078,-0.831786,2.446053,0.090252,-0.592709,-0.158943,-0.952419,-0.260066,0.266716,0.272198,1.414195,-7.798645,-42.477692,12.143311,,,,,,
1478209387.06,-0.597843,1.296408,-0.786857,1.813259,0.062720,-0.096894,-0.152512,-0.962591,-0.223961,0.111221,-1.023996,-1.138069,-7.798645,-42.477692,12.143311,,,,,,
1478209387.08,-0.625138,1.334422,-0.727545,2.143643,2.498860,-0.971676,-0.137044,-0.972193,-0.189892,-0.182613,-0.375554,0.021725,-7.413391,-41.508728,16.045654,,,,,,
,,,,,,,,,,,,,,,,37.322663,-122.017272,66.312836,1.380000,24.609375,1478209387.00
1478209387.10,-0.584241,1.394771,-0.703195,2.941374,3.243621,-1.547513,-0.096589,-0.984547,-0.146071,0.558534,-0.704097,0.561721,-7.108856,-40.836029,17.472656,,,,,,
1478209387.12,-0.686289,1.456366,-0.543867,3.191794,2.565990,-0.574283,-0.072353,-0.993460,-0.088330,0.492992,-1.022897,0.996869,-6.803772,-39.938324,18.899536,,,,,,
1478209387.14,-1.074715,1.503072,-0.110415,2.853984,1.794009,-0.478094,-0.059515,-0.997708,-0.032211,0.879538,0.205273,0.453399,-6.347137,-38.966690,21.002441,,,,,,
1478209387.16,-1.918434,1.511329,0.744455,2.532828,-0.286318,-0.028538,-0.055877,-0.998232,0.020247,0.223083,0.205462,0.536256,-6.347137,-38.966690,21.002441,,,,,,
1478209387.18,-2.427335,1.485731,1.235996,1.967700,-1.218053,0.043226,-0.055655,-0.996384,0.064196,0.077491,-0.063323,0.404127,-7.083649,-36.872513,25.120911,,,,,,
1478209387.20,-2.645718,1.457036,1.430382,1.611246,-1.162612,0.006054,-0.054011,-0.993536,0.099843,-0.011297,-0.194849,0.291515,-6.927277,-35.524841,26.621338,,,,,,
1478209387.22,-2.764663,1.432001,1.537493,1.329798,-0.253528,-0.134196,-0.050922,-0.990383,0.128638,-0.097378,-0.091968,0.208001,-6.022949,-34.927444,28.052795,,,,,,
1478209387.24,-2.832058,1.409935,1.610743,1.178987,0.463544,-0.147826,-0.048790,-0.987090,0.152557,-0.050301,-0.033052,0.144486,-5.719299,-34.254059,29.029846,,,,,,
1478209387.26,-2.876304,1.389607,1.664096,1.092048,0.279900,-0.146960,-0.047246,-0.983630,0.173896,0.111653,-0.003720,0.008905,-5.719299,-34.254059,29.029846,,,,,,
1478209387.28,-2.918499,1.369373,1.705077,1.071711,-0.315435,-0.123811,-0.044264,-0.979783,0.195106,0.010450,0.008591,-0.021263,-6.011322,-32.381378,30.676636,,,,,,
1478209387.30,-2.957782,1.348966,1.735800,1.078650,-0.463235,-0.123547,-0.040214,-0.975496,0.216309,-0.104043,0.030810,0.000183,-6.309235,-32.082230,31.349243,,,,,,
1478209387.32,-2.994974,1.328500,1.768652,1.076399,-0.127038,-0.257134,-0.035053,-0.970790,0.237358,-0.144910,0.020243,-0.021370,-5.556213,-31.183182,31.729431,,,,,,
1478209387.34,-3.029189,1.308005,1.804595,1.089354,0.083564,-0.337221,-0.029138,-0.965668,0.258138,-0.084356,-0.027221,-0.021795,-4.954071,-31.109940,32.708984,,,,,,
1478209387.36,-3.060188,1.286587,1.838281,1.131932,0.032437,-0.360328,-0.022801,-0.959884,0.279470,0.023655,0.012145,-0.053914,-4.954071,-31.109940,32.708984,,,,,,
1478209387.38,-3.090232,1.263993,1.868683,1.186952,-0.095299,-0.371540,-0.015505,-0.953304,0.301615,0.028521,-0.001622,-0.066355,-4.948059,-29.611633,33.833252,,,,,,
1478209387.40,-3.118138,1.239976,1.894330,1.252449,-0.219932,-0.352894,-0.007618,-0.945776,0.324730,0.028095,-0.035395,-0.077217,-4.794495,-28.787842,34.583984,,,,,,
1478209387.42,3.139797,1.214389,1.915158,1.321278,-0.345599,-0.356582,0.000627,-0.937157,0.348909,0.029738,-0.011559,-0.071977,-4.491943,-28.113663,35.035950,,,,,,
1478209387.44,3.112977,1.186941,1.934324,1.403865,-0.515945,-0.370772,0.010715,-0.927228,0.374345,-0.006717,-0.053668,-0.125581,-4.113312,-27.214874,35.713318,,,,,,
1478209387.46,3.085466,1.157526,1.951624,1.511567,-0.594858,-0.431801,0.022529,-0.915813,0.400974,-0.039191,-0.066411,-0.096942,-4.113312,-27.214874,35.713318,,,,,,
1478209387.48,3.057153,1.125221,1.969712,1.646432,-0.596177,-0.534314,0.036348,-0.902363,0.429442,-0.114733,-0.055096,-0.130461,-2.679596,-25.118195,37.447998,,,,,,
1478209387.50,3.029447,1.089981,1.987726,1.776930,-0.570959,-0.604957,0.051759,-0.886618,0.459597,-0.064424,-0.174432,-0.170901,-2.150330,-24.069702,38.276428,,,,,,
1478209387.52,3.002252,1.051761,2.005643,1.896840,-0.595607,-0.713904,0.068896,-0.868298,0.491235,0.096830,-0.249790,-0.137247,-1.170959,-22.871216,38.958191,,,,,,
1478209387.54,2.972824,1.010311,2.025134,2.046843,-0.665947,-0.890744,0.089292,-0.846997,0.524045,0.012805,-0.218662,-0.212094,0.714966,-19.874756,40.695923,,,,,,
1478209387.56,2.942272,0.964433,2.046183,2.227007,-0.644951,-1.069686,0.112839,-0.821726,0.558600,-0.193588,-0.334631,-0.246878,0.714966,-19.874756,40.695923,,,,,,
1478209387.58,2.910401,0.914306,2.069641,2.366898,-0.665187,-1.305205,0.139852,-0.792139,0.594102,-0.142781,-0.677770,-0.368409,1.620972,-18.151474,41.526794,,,,,,
1478209387.60,2.876681,0.859831,2.093926,2.535880,-0.804680,-1.489287,0.170857,-0.757732,0.629801,-0.208653,-0.933475,-0.631068,2.227783,-16.203247,42.505371,,,,,,
1478209387.62,2.840528,0.799870,2.117406,2.739959,-1.008029,-1.699691,0.206627,-0.717266,0.665459,-0.442253,-1.110325,-0.852425,3.509399,-14.104919,43.188904,,,,,,
1478209387.64,2.804857,0.733297,2.138799,3.089798,-1.018602,-1.772268,0.245484,-0.669323,0.701245,-0.473969,-1.175801,-0.911893,6.149200,-9.233170,44.481323,,,,,,
1478209387.66,2.779801,0.660802,2.152406,3.276716,-0.679960,-1.831368,0.279444,-0.613750,0.738391,-0.466944,-1.090672,-0.451679,6.149200,-9.233170,44.481323,,,,,,
1478209387.68,2.755503,0.588414,2.170818,3.012357,-0.678848,-1.975465,0.313238,-0.555042,0.770591,-0.531988,-1.456310,-0.137107,7.582825,-6.309906,45.165588,,,,,,
1478209387.70,2.744366,0.527554,2.176912,2.568666,-0.187779,-1.105761,0.334265,-0.503421,0.796765,-0.595831,-1.161206,0.129169,8.341583,-3.236069,45.694702,,,,,,
1478209387.72,2.750008,0.485974,2.172750,1.666367,0.398694,-0.439913,0.337466,-0.467070,0.817290,-0.403765,-0.771974,-0.175124,8.872986,-0.611237,45.622437,,,,,,
1478209387.74,2.754837,0.468424,2.167688,0.330499,-0.136961,0.107101,0.336555,-0.451481,0.826375,-0.136482,-0.698223,-0.681661,8.581055,2.012787,46.368896,,,,,,
1478209387.76,2.740946,0.482353,2.158502,-0.906226,-1.248714,1.002564,0.345516,-0.463865,0.815750,-0.136791,-0.657763,-1.079346,8.581055,2.012787,46.368896,,,,,,
1478209387.78,2.721881,0.520334,2.141155,-1.756674,-1.357718,1.676143,0.353566,-0.497170,0.792347,-0.156484,-0.161079,-0.610248,9.779266,1.111847,46.603333,,,,,,
1478209387.80,2.709643,0.578981,2.122378,-2.713673,-0.945054,2.133313,0.350412,-0.547171,0.760141,-0.234079,-0.169778,-0.484598,10.523407,-1.063202,46.385010,,,,,,
1478209387.82,2.707958,0.657026,2.103463,-3.535171,-0.407141,2.456911,0.332697,-0.610765,0.718526,-0.210459,-0.111800,-0.455495,11.790344,-4.288864,46.396118,,,,,,
1478209387.84,2.719062,0.750272,2.085794,-4.243584,0.208285,2.627724,0.299968,-0.681838,0.667171,-0.112147,-0.047502,-0.426387,11.838623,-12.985184,43.925842,,,,,,
1478209387.86,2.744146,0.857052,2.067084,-4.926649,0.784270,2.811510,0.253400,-0.755916,0.603639,-0.025265,0.022563,-0.222078,11.838623,-12.985184,43.925842,,,,,,
1478209387.88,2.778714,0.976925,2.045653,-5.596718,0.889466,2.868344,0.198630,-0.828780,0.523134,0.090615,0.056258,-0.008485,10.248199,-17.556335,41.891235,,,,,,
1478209387.90,2.824217,1.105742,2.013327,-5.946885,0.897823,2.992018,0.139957,-0.893797,0.426074,0.206280,0.013823,0.098172,8.131378,-22.351639,39.477722,,,,,,
1478209387.92,2.906171,1.240173,1.947723,-6.305655,1.203873,3.124773,0.075722,-0.945840,0.315678,0.246727,-0.065665,0.310344,5.337982,-26.920029,36.009033,,,,,,
1478209387.94,3.101216,1.379281,1.774620,-6.790094,1.450862,3.218604,0.007684,-0.981717,0.190192,0.313972,-0.232242,0.557107,0.355072,-33.279800,27.499878,,,,,,
1478209387.96,-2.301544,1.492785,0.914463,-7.013365,1.110478,3.127413,-0.058034,-0.996959,0.052014,0.432653,-0.531758,0.889301,0.355072,-33.279800,27.499878,,,,,,
1478209387.98,-0.953216,1.428539,-0.421952,-6.421950,0.852949,2.786157,-0.115589,-0.989899,-0.082098,0.484867,-0.678360,1.295737,-2.211884,-35.970825,22.381897,,,,,,
1478209388.00,-0.691107,1.310316,-0.667285,-5.467245,1.122409,2.566384,-0.164156,-0.966266,-0.198449,0.383395,-0.310421,1.803353,-4.926575,-37.761795,17.262512,,,,,,
1478209388.02,-0.611706,1.209396,-0.734547,-4.073838,0.428845,2.020509,-0.203051,-0.935403,-0.289469,0.732272,-0.155189,1.731928,-7.413544,-38.803558,12.594299,,,,,,
1478209388.04,-0.603692,1.154902,-0.743394,-1.029975,-0.147944,0.973614,-0.229350,-0.914755,-0.332598,0.827021,0.810813,2.182650,-10.578766,-39.466812,5.820923,,,,,,
1478209388.06,-0.635758,1.178275,-0.707765,2.435740,0.146923,-0.776988,-0.227135,-0.923948,-0.307783,0.536278,1.428601,1.755232,-10.578766,-39.466812,5.820923,,,,,,
1478209388.08,-0.695391,1.233531,-0.640376,2.896798,0.008056,-0.648632,-0.212008,-0.943663,-0.254072,0.507662,0.058608,1.345747,-11.251251,-38.942368,6.415649,,,,,,
1478209388.10,-0.765711,1.268598,-0.585669,1.793459,-1.110897,-0.133516,-0.206265,-0.954685,-0.214551,0.265576,-1.207043,-1.009281,-9.897125,-38.870987,8.375732,,,,,,
,,,,,,,,,,,,,,,,37.322835,-122.017325,60.790314,1.380000,320.625000,1478209388.00
1478209388.12,-0.857173,1.294308,-0.494079,1.805307,0.584185,-0.398962,-0.206371,-0.962020,-0.178686,-0.274083,0.066039,0.111379,-9.138367,-38.126541,11.831055,,,,,,
1478209388.14,-0.887065,1.333710,-0.424575,2.100837,2.441080,-1.304989,-0.182078,-0.972026,-0.148366,0.193018,-0.562794,0.203481,-8.834137,-37.754181,13.483215,,,,,,
1478209388.16,-0.944950,1.387223,-0.310526,2.850295,2.610565,-1.126551,-0.147946,-0.983198,-0.106931,0.424618,-1.199984,0.941831,-8.834137,-37.754181,13.483215,,,,,,
1478209388.18,-1.176906,1.429224,-0.030480,2.970768,2.010736,-0.624661,-0.130294,-0.989995,-0.054152,0.663391,-0.332011,0.546797,-8.380219,-37.156219,14.686279,,,,,,
1478209388.20,-1.560895,1.450956,0.381493,2.747759,0.632015,-0.316147,-0.119548,-0.992828,-0.001184,0.654872,0.149078,0.424981,-7.700134,-36.634369,16.566162,,,,,,
1478209388.22,-1.967093,1.444521,0.784002,2.270812,-0.753128,-0.118663,-0.116179,-0.992038,0.048613,0.151000,0.249087,0.636109,-7.687164,-34.314774,20.165039,,,,,,
1478209388.24,-2.235898,1.426952,1.034951,1.713464,-1.057561,-0.088262,-0.112794,-0.989672,0.088466,0.071260,-0.073163,0.419713,-7.231232,-33.568039,22.193115,,,,,,
1478209388.26,-2.406677,1.408122,1.187518,1.397894,-0.911861,-0.139185,-0.108596,-0.986798,0.120154,0.033035,-0.179874,0.273141,-7.231232,-33.568039,22.193115,,,,,,
1478209388.28,-2.520988,1.390611,1.296239,1.210834,0.021226,-0.198052,-0.104217,-0.983810,0.145794,-0.013017,-0.137177,0.154423,-6.777069,-33.045425,23.621216,,,,,,
1478209388.30,-2.597146,1.374171,1.381887,1.087120,0.525622,-0.234628,-0.101186,-0.980731,0.167115,-0.043650,-0.059353,0.110916,-6.398132,-32.297180,24.673706,,,,,,
1478209388.32,-2.659293,1.358481,1.452973,1.025240,0.187750,-0.238711,-0.097737,-0.977546,0.186687,0.077886,0.009635,0.023640,-6.468262,-31.323944,25.872681,,,,,,
1478209388.34,-2.718460,1.342473,1.509649,0.986605,-0.394834,-0.178425,-0.092942,-0.974047,0.206383,0.016846,0.037432,0.005394,-6.616119,-30.874649,26.396423,,,,,,
1478209388.36,-2.770702,1.325466,1.553173,0.998895,-0.469360,-0.140986,-0.088030,-0.970057,0.226362,-0.026274,0.013697,0.014803,-6.616119,-30.874649,26.396423,,,,,,
1478209388.38,-2.816239,1.307450,1.594604,1.044107,-0.152569,-0.209348,-0.083207,-0.965524,0.246656,-0.037368,0.025507,-0.067228,-6.163116,-30.276001,27.149475,,,,,,
1478209388.40,-2.857507,1.288262,1.636530,1.124913,-0.007068,-0.272995,-0.078139,-0.960352,0.267616,-0.041322,-0.008551,-0.090690,-5.336426,-29.977112,27.605469,,,,,,
1478209388.42,-2.896120,1.267143,1.675617,1.208637,-0.118981,-0.265978,-0.072663,-0.954251,0.290045,-0.038711,-0.013050,-0.122885,-5.255432,-28.779388,29.105530,,,,,,
1478209388.44,-2.934417,1.243678,1.711197,1.316826,-0.285152,-0.283226,-0.066094,-0.946972,0.314444,-0.019203,0.026730,-0.114844,-5.327118,-27.805038,29.554504,,,,,,
1478209388.46,-2.971979,1.217690,1.742940,1.425977,-0.431174,-0.272824,-0.058374,-0.938303,0.340852,0.014993,-0.012350,-0.137055,-5.327118,-27.805038,29.554504,,,,,,
1478209388.48,-3.007844,1.188819,1.771057,1.565396,-0.504949,-0.292171,-0.049707,-0.927929,0.369427,0.014093,-0.018650,-0.129559,-4.948425,-27.056580,30.456970,,,,,,
1478209388.50,-3.042226,1.156995,1.795996,1.690748,-0.618036,-0.298761,-0.039889,-0.915599,0.400109,0.013003,0.001338,-0.106759,-4.645172,-26.533188,31.433960,,,,,,
1478209388.52,-3.076899,1.122618,1.818752,1.807831,-0.759702,-0.361772,-0.028014,-0.901238,0.432418,-0.024248,-0.053901,-0.096969,-2.910583,-23.911316,32.945679,,,,,,
1478209388.54,-3.113369,1.085922,1.841373,1.917839,-0.858753,-0.462144,-0.013153,-0.884734,0.465911,-0.039184,-0.164690,-0.116256,-2.682037,-23.087570,33.696960,,,,,,
1478209388.56,3.131405,1.045946,1.863422,2.093634,-1.045183,-0.569473,0.005105,-0.865399,0.501058,0.085486,-0.314945,-0.241414,-2.682037,-23.087570,33.696960,,,,,,
1478209388.58,3.089790,1.000115,1.886133,2.418224,-1.134179,-0.736809,0.027972,-0.841533,0.539481,0.040174,-0.273930,-0.334647,-1.476196,-21.589752,34.755249,,,,,,
1478209388.60,3.048182,0.946383,1.911956,2.777767,-0.923232,-1.044924,0.054530,-0.811306,0.582072,-0.250041,-0.268451,-0.377910,-0.345001,-20.017029,35.887939,,,,,,
1478209388.62,3.010822,0.885092,1.939913,3.055907,-0.701526,-1.276858,0.082570,-0.773973,0.627812,-0.319494,-0.544219,-0.297536,2.442841,-16.271042,37.632019,,,,,,
1478209388.64,2.975156,0.818629,1.966981,3.242763,-0.849641,-1.427829,0.113189,-0.730209,0.673782,-0.142868,-0.896927,-0.470337,3.275879,-13.722702,38.461975,,,,,,
1478209388.66,2.937036,0.747968,1.988320,3.421757,-1.399918,-1.398331,0.148911,-0.680151,0.717789,-0.090226,-1.186747,-0.764389,3.275879,-13.722702,38.461975,,,,,,
1478209388.68,2.891654,0.672805,2.005740,3.588344,-1.844600,-1.540446,0.193442,-0.623182,0.757775,-0.213203,-1.453127,-1.137811,4.185333,-10.799728,39.517334,,,,,,
1478209388.70,2.847028,0.595423,2.020102,3.608737,-1.721119,-1.666132,0.240362,-0.560859,0.792252,-0.378134,-1.347222,-0.372208,7.502167,-4.802780,40.439209,,,,,,
1478209388.72,2.813911,0.515655,2.033820,3.587302,-1.072306,-1.793913,0.279998,-0.493105,0.823680,-0.434768,-1.135405,0.203435,8.936798,-1.128845,40.673157,,,,,,
1478209388.74,2.798318,0.447377,2.036675,2.862345,-0.516607,-0.884338,0.303449,-0.432603,0.848984,-0.465146,-1.472259,0.177017,9.168884,1.871384,40.448364,,,,,,
1478209388.76,2.795807,0.403833,2.028989,1.797151,-0.175224,-0.200915,0.311673,-0.392946,0.865132,-0.282681,-0.817061,-0.246190,9.168884,1.871384,40.448364,,,,,,
1478209388.78,2.787091,0.389685,2.016736,0.241752,-1.084950,0.660554,0.321099,-0.379897,0.867510,0.001915,-0.681565,-0.730715,9.325775,4.946869,40.073059,,,,,,
1478209388.80,2.763653,0.407294,1.993511,-0.780276,-1.818071,1.676909,0.338820,-0.396126,0.853396,-0.083495,-0.316810,-0.971499,9.481628,7.046356,40.373169,,,,,,
1478209388.82,2.743227,0.446217,1.962403,-1.594409,-1.474112,2.247806,0.349931,-0.431556,0.831449,-0.127778,0.142127,-0.633940,10.454010,5.920731,40.455994,,,,,,
1478209388.84,2.738111,0.505716,1.930626,-2.551581,-0.689161,2.600087,0.343478,-0.484434,0.804579,-0.177752,0.090834,-0.571958,10.900879,4.495163,40.685120,,,,,,
1478209388.86,2.749523,0.582628,1.900162,-3.337358,0.054081,2.777732,0.319063,-0.550220,0.771659,-0.095384,0.009158,-0.574775,10.900879,4.495163,40.685120,,,,,,
1478209388.88,2.778146,0.674551,1.866980,-4.091374,0.689591,3.097294,0.277640,-0.624547,0.729971,0.058679,-0.080425,-0.466513,10.671295,2.169388,41.284485,,,,,,
1478209388.90,2.820730,0.781644,1.827539,-4.855603,0.801347,3.223858,0.223847,-0.704447,0.673533,0.318939,-0.021078,-0.373194,9.903900,-4.955582,41.507324,,,,,,
1478209388.92,2.863514,0.900181,1.782042,-5.473521,0.171852,3.218227,0.170598,-0.783440,0.597594,0.427302,-0.038536,-0.240874,8.391632,-9.378906,40.898193,,,,,,
1478209388.94,2.908482,1.027090,1.721633,-5.867387,-0.441581,3.338350,0.119502,-0.855797,0.503320,0.483480,-0.102241,-0.121392,6.653229,-13.951569,39.912415,,,,,,
1478209388.96,2.980294,1.157364,1.628116,-6.085848,-0.589889,3.437438,0.064522,-0.915747,0.396540,0.495933,-0.100732,0.125677,6.653229,-13.951569,39.912415,,,,,,
1478209388.98,3.131801,1.288567,1.458005,-6.459220,-0.304945,3.508403,0.002727,-0.960437,0.278484,0.464726,-0.232220,0.460209,5.511932,-18.597488,37.581177,,,,,,
1478209389.00,-2.729097,1.406551,1.025780,-6.677166,0.159259,3.526724,-0.065550,-0.986542,0.149793,0.409376,-0.481308,0.785815,3.230408,-27.063568,32.393372,,,,,,
1478209389.02,-1.720829,1.436734,0.017595,-6.443104,0.658754,3.181303,-0.132160,-0.991027,0.019978,0.469898,-0.565247,1.268123,0.962372,-31.256790,28.628418,,,,,,
1478209389.04,-1.066872,1.356864,-0.624938,-5.790415,1.237193,2.537858,-0.185913,-0.977204,-0.102514,0.554444,-0.459854,1.511770,-1.227692,-33.799164,24.263184,,,,,,
1478209389.06,-0.822109,1.264613,-0.851553,-4.582732,1.234684,1.745060,-0.220816,-0.953491,-0.205171,0.683203,-0.056748,1.523668,-1.227692,-33.799164,24.263184,,,,,,
1478209389.08,-0.729737,1.201483,-0.930313,-2.058129,0.624096,0.922101,-0.240653,-0.932576,-0.269053,0.706824,0.445637,1.944376,-4.016571,-36.266983,20.418579,,,,,,
1478209389.10,-0.736438,1.211129,-0.914403,1.922732,0.466536,-0.836691,-0.236397,-0.936014,-0.260757,0.872475,1.677210,1.633483,-6.658752,-39.108109,15.375183,,,,,,
,,,,,,,,,,,,,,,,37.322839,-122.017314,60.855621,0.870000,288.984375,1478209389.00
1478209389.12,-0.792222,1.263561,-0.847364,2.930103,0.181402,-0.759400,-0.215300,-0.953173,-0.212382,0.487639,0.331027,1.728877,-6.280853,-38.734756,16.352783,,,,,,
1478209389.14,-0.887898,1.297835,-0.768960,1.687837,-1.636382,-0.395142,-0.209129,-0.962977,-0.170120,0.325935,-0.853399,-1.098023,-5.598724,-37.688477,18.607361,,,,,,
1478209389.16,-1.042136,1.311449,-0.634953,1.804689,-0.681577,0.533354,-0.221440,-0.966558,-0.129348,-0.906276,-0.087016,0.138472,-5.598724,-37.688477,18.607361,,,,,,
1478209389.18,-1.126559,1.335504,-0.525265,1.875539,2.137254,-1.043877,-0.210500,-0.972446,-0.100191,-0.150904,-0.419842,0.356554,-5.137695,-36.269333,22.360107,,,,,,
1478209389.20,-1.217488,1.383137,-0.367321,2.748146,3.576768,-1.450041,-0.175036,-0.982444,-0.064550,0.180743,-1.208596,0.796148,-5.284363,-35.971176,23.633911,,,,,,
1478209389.22,-1.463956,1.416685,-0.049535,3.071546,3.031356,-0.830024,-0.152627,-0.988148,-0.016369,0.767724,-0.640377,0.822735,-5.353577,-35.524628,25.958191,,,,,,
1478209389.24,-1.834436,1.423558,0.361046,2.999481,0.771435,-0.279827,-0.141638,-0.989180,0.038231,1.602712,-0.110673,0.370445,-6.172485,-34.026001,27.151306,,,,,,
1478209389.26,-2.159490,1.400176,0.675461,2.539235,-1.226528,0.141163,-0.141212,-0.985480,0.094282,0.516044,0.194266,0.540102,-6.172485,-34.026001,27.151306,,,,,,
1478209389.28,-2.346064,1.372097,0.841268,1.813919,-1.056023,0.040048,-0.140986,-0.980324,0.138158,-0.202291,0.060829,0.521556,-6.455933,-30.581818,31.122437,,,,,,
1478209389.30,-2.463575,1.351177,0.945947,1.363190,-0.555567,-0.175026,-0.136652,-0.975980,0.169672,-0.323157,-0.092043,0.445135,-5.849518,-29.384720,32.851379,,,,,,
1478209389.32,-2.544888,1.335957,1.026935,1.066875,0.095190,-0.296869,-0.130751,-0.972552,0.192476,0.009016,-0.190214,0.249708,-5.620880,-28.786407,33.902832,,,,,,
1478209389.34,-2.600667,1.321109,1.086380,1.001841,0.036670,-0.151300,-0.127240,-0.968990,0.211823,0.134015,-0.182530,0.051421,-5.542877,-28.187576,34.653076,,,,,,
1478209389.36,-2.647345,1.304878,1.130471,0.982773,-0.381243,-0.061351,-0.124662,-0.964852,0.231345,0.141203,0.022545,-0.073569,-5.542877,-28.187576,34.653076,,,,,,
1478209389.38,-2.697594,1.287550,1.168165,1.028805,-0.878990,-0.034792,-0.120049,-0.960153,0.252377,-0.034233,0.012964,-0.052822,-5.236633,-26.539291,35.704529,,,,,,
1478209389.40,-2.745620,1.269192,1.197062,1.006716,-1.049075,-0.004849,-0.114575,-0.954861,0.274067,-0.077854,-0.010913,-0.008976,-4.858795,-25.940521,36.382080,,,,,,
1478209389.42,-2.790830,1.250420,1.224958,1.065522,-0.837547,-0.091072,-0.108212,-0.949117,0.295749,-0.064349,0.029592,-0.108477,-4.105194,-25.267365,37.362366,,,,,,
1478209389.44,-2.832340,1.230145,1.255221,1.160804,-0.543222,-0.171898,-0.101683,-0.942537,0.318252,-0.068300,0.047167,-0.090301,-3.127625,-24.743759,37.969482,,,,,,
1478209389.46,-2.870079,1.208413,1.288288,1.239299,-0.228590,-0.282653,-0.095074,-0.935055,0.341517,-0.098056,0.054363,-0.034998,-3.127625,-24.743759,37.969482,,,,,,
1478209389.48,-2.904896,1.185151,1.322554,1.330384,-0.145891,-0.321665,-0.088206,-0.926556,0.365669,-0.031423,0.032986,-0.090950,-2.746521,-23.020294,38.871399,,,,,,
1478209389.50,-2.939164,1.159218,1.353310,1.452793,-0.418512,-0.287578,-0.080431,-0.916490,0.391888,0.125566,0.024340,-0.162151,-2.067505,-21.896545,39.476013,,,,,,
1478209389.52,-2.974543,1.130145,1.378693,1.582423,-0.718839,-0.231054,-0.070920,-0.904474,0.420591,0.121503,-0.069113,-0.170743,-1.913391,-21.148315,40.601807,,,,,,
1478209389.54,-3.009463,1.098317,1.400281,1.702746,-0.787218,-0.260095,-0.059957,-0.890442,0.451129,0.074682,-0.104293,-0.116900,-1.157928,-19.574829,41.356689,,,,,,
1478209389.56,-3.044066,1.063857,1.423538,1.841520,-0.653462,-0.401114,-0.047274,-0.874234,0.483197,-0.052472,-0.082751,-0.114194,-1.157928,-19.574829,41.356689,,,,,,
1478209389.58,-3.078923,1.025847,1.449400,2.031085,-0.625115,-0.545952,-0.032465,-0.855154,0.517357,-0.115484,-0.153407,-0.238854,-0.022827,-16.802780,42.938782,,,,,,
1478209389.60,-3.115195,0.982735,1.476188,2.305373,-0.733131,-0.686923,-0.014642,-0.832018,0.554556,-0.015189,-0.264631,-0.298681,1.032257,-15.304321,43.620911,,,,,,
1478209389.62,3.129030,0.933401,1.504828,2.608771,-0.831586,-0.877780,0.007476,-0.803649,0.595057,-0.047607,-0.319856,-0.382593,1.638123,-13.505630,44.299622,,,,,,
1478209389.64,3.090750,0.876705,1.532025,2.950209,-0.828290,-0.962134,0.032509,-0.768636,0.638860,-0.141549,-0.371745,-0.416982,2.770752,-11.408020,45.507080,,,,,,
1478209389.66,3.055418,0.814175,1.556117,3.159162,-0.950002,-1.054476,0.059083,-0.727160,0.683921,0.006880,-0.500410,-0.375617,2.770752,-11.408020,45.507080,,,,,,
1478209389.68,3.014805,0.747312,1.576564,3.344624,-1.617108,-1.102473,0.092752,-0.679669,0.727631,0.179724,-0.932849,-0.675965,4.137024,-6.010727,46.864563,,,,,,
1478209389.70,2.961153,0.675902,1.592858,3.517771,-2.480830,-1.165141,0.140006,-0.625601,0.767477,0.165246,-1.474527,-1.168173,5.570526,-3.012253,47.398804,,,,,,
1478209389.72,2.898962,0.602692,1.604922,3.438791,-2.809864,-1.325813,0.197926,-0.566862,0.799683,-0.121510,-1.304659,-0.872681,7.379852,0.286041,47.935791,,,,,,
1478209389.74,2.842620,0.530224,1.616895,3.374265,-2.225533,-1.583601,0.254097,-0.505727,0.824424,-0.348472,-1.016307,0.023583,12.945618,6.432983,48.124451,,,,,,
1478209389.76,2.801453,0.464534,1.628544,2.594711,-1.561255,-1.252514,0.298265,-0.448007,0.842809,-0.511980,-1.413489,0.170527,12.945618,6.432983,48.124451,,,,,,
1478209389.78,2.784682,0.419015,1.627721,1.895792,-0.289514,-0.699429,0.319156,-0.406861,0.855923,-0.856158,-1.597900,-0.022304,14.527924,9.582611,47.834778,,,,,,
1478209389.80,2.790445,0.387546,1.634581,1.059571,0.772255,-0.795058,0.318466,-0.377918,0.869343,-0.691376,-0.334012,0.255840,15.431580,11.157394,47.690674,,,,,,
1478209389.82,2.801867,0.380810,1.637187,-0.234251,0.494090,0.157370,0.309357,-0.371672,0.875304,-0.198884,-0.684221,-0.629577,15.359009,11.906982,47.989807,,,,,,
1478209389.84,2.802068,0.406301,1.631669,-1.562069,-0.402375,0.918942,0.305926,-0.395214,0.866150,0.086622,-0.418873,-0.862823,14.305328,9.656067,48.958069,,,,,,
1478209389.86,2.790421,0.454475,1.623197,-2.488876,-0.914629,1.311687,0.309080,-0.438990,0.843657,-0.058897,0.028514,-0.611144,14.305328,9.656067,48.958069,,,,,,
1478209389.88,2.775580,0.520928,1.614716,-3.294411,-0.919043,1.675584,0.310423,-0.497685,0.809906,-0.184096,0.069615,-0.468231,14.598663,6.730453,49.261658,,,,,,
1478209389.90,2.766476,0.603688,1.605355,-4.000190,-0.505883,1.993621,0.301622,-0.567682,0.766003,-0.243624,0.047129,-0.356121,15.638245,3.055817,48.671326,,,,,,
1478209389.92,2.770518,0.700709,1.595373,-4.630182,0.141036,2.247847,0.277179,-0.644760,0.712360,-0.158939,0.014526,-0.358097,16.300262,-1.969193,48.453796,,,,,,
1478209389.94,2.789759,0.809647,1.581809,-5.137002,0.673798,2.502925,0.237703,-0.724044,0.647501,-0.049074,0.065703,-0.265284,15.219238,-13.291641,47.101318,,,,,,
1478209389.96,2.821108,0.929766,1.560683,-5.693088,0.742210,2.710536,0.188393,-0.801480,0.567572,0.072700,0.026288,-0.106864,15.219238,-13.291641,47.101318,,,,,,
1478209389.98,2.863080,1.059261,1.525693,-6.073123,0.596348,2.924763,0.134581,-0.871994,0.470653,0.202333,0.003738,0.054249,13.025940,-18.987473,45.062744,,,,,,
1478209390.00,2.937677,1.195147,1.458166,-6.435919,0.773662,3.118368,0.074294,-0.930270,0.359275,0.231156,-0.100996,0.260247,10.830231,-24.681519,41.824158,,,,,,
1478209390.02,3.103269,1.335760,1.305420,-6.906835,1.107863,3.149350,0.008923,-0.972506,0.232708,0.314457,-0.336897,0.544484,8.859375,-30.075012,38.137085,,,,,,
1478209390.04,-2.614094,1.462110,0.755084,-7.087111,1.055576,2.987699,-0.054602,-0.994099,0.093728,0.369666,-0.680873,0.948249,2.290771,-39.807266,28.492676,,,,,,
1478209390.06,-1.207467,1.453751,-0.637657,-6.450538,1.067029,2.560058,-0.109155,-0.993158,-0.041502,0.398233,-0.652151,1.454572,2.290771,-39.807266,28.492676,,,,,,
1478209390.08,-0.770096,1.348252,-1.053465,-5.372897,1.436048,2.328034,-0.153661,-0.975339,-0.158437,0.407475,-0.281329,1.703649,0.469940,-43.247223,22.405701,,,,,,
1478209390.10,-0.646771,1.256234,-1.154995,-3.649603,1.082901,1.680181,-0.186448,-0.950932,-0.246912,0.631547,-0.097393,1.821542,-2.169342,-44.813110,17.211670,,,,,,
1478209390.12,-0.623971,1.221934,-1.165531,0.112635,0.409662,0.352095,-0.199718,-0.939762,-0.277416,0.750194,0.731174,2.230694,-4.281555,-45.554260,12.021179,,,,,,
,,,,,,,,,,,,,,,,37.322840,-122.017295,61.369049,0.520000,333.632812,1478209390.00
1478209390.14,-0.663819,1.262482,-1.117924,2.757018,0.022762,-0.931474,-0.186966,-0.952847,-0.239013,0.843613,1.829144,1.694213,-6.310760,-45.775528,10.206116,,,,,,
1478209390.16,-0.775269,1.306840,-1.019415,2.172863,-1.500140,-0.191474,-0.182607,-0.965365,-0.186344,0.181081,0.077655,0.905171,-6.310760,-45.775528,10.206116,,,,,,
1478209390.18,-0.923169,1.331572,-0.895661,1.968481,-1.042277,0.380471,-0.188971,-0.971522,-0.142951,0.001441,-0.726781,-0.451730,-5.404816,-45.329590,12.612610,,,,,,
1478209390.20,-1.051124,1.354180,-0.759269,2.042318,1.281105,-0.588161,-0.186552,-0.976630,-0.106732,-0.721132,-0.500833,-0.132541,-5.248535,-44.507828,14.713440,,,,,,
1478209390.22,-1.176161,1.400879,-0.572192,3.046474,3.754501,-1.521039,-0.156104,-0.985599,-0.065015,-0.125223,-0.906873,0.638516,-5.238098,-42.787445,17.787720,,,,,,
1478209390.24,-1.484737,1.443503,-0.178291,3.349760,3.988148,-1.337698,-0.126480,-0.991909,-0.010912,1.192336,-0.527958,0.654588,-5.306793,-42.115891,20.111755,,,,,,
1478209390.26,-2.005164,1.453685,0.404158,3.378001,1.866022,-0.737128,-0.105993,-0.993150,0.049172,1.755804,0.002260,0.292106,-5.306793,-42.115891,20.111755,,,,,,
1478209390.28,-2.407758,1.419733,0.804634,2.935904,-1.115931,-0.020739,-0.100786,-0.988612,0.111755,0.415346,0.210734,0.555527,-5.224030,-40.994644,22.586853,,,,,,
1478209390.30,-2.594965,1.379878,0.964992,2.147145,-1.602664,0.116182,-0.098639,-0.981830,0.162109,-0.231378,0.091404,0.604248,-4.914215,-39.048523,25.063232,,,,,,
1478209390.32,-2.701405,1.349169,1.047283,1.550402,-0.923021,-0.158515,-0.093666,-0.975541,0.198863,-0.056114,-0.149367,0.511709,-3.474762,-35.979294,28.447510,,,,,,
1478209390.34,-2.770822,1.327788,1.113340,1.171158,0.043793,-0.300455,-0.087186,-0.970619,0.224272,-0.183795,-0.271172,0.248613,-3.246826,-35.756226,29.649109,,,,,,
1478209390.36,-2.813280,1.310093,1.163116,0.988707,0.343053,-0.258269,-0.083114,-0.966209,0.243993,0.125472,-0.143624,0.116587,-3.246826,-35.756226,29.649109,,,,,,
1478209390.38,-2.845355,1.293485,1.199127,0.938804,-0.061998,-0.170638,-0.079920,-0.961795,0.261846,0.147730,-0.026257,-0.078695,-3.094421,-35.532639,30.550110,,,,,,
1478209390.40,-2.880576,1.275950,1.224687,0.950367,-0.827690,-0.062958,-0.074991,-0.956847,0.280750,0.079920,0.006407,-0.079257,-2.641541,-34.783661,31.078125,,,,,,
1478209390.42,-2.917699,1.257629,1.241262,0.962915,-1.124422,-0.020922,-0.068401,-0.951362,0.300384,-0.049397,-0.023506,-0.014282,-2.333862,-32.685623,32.279419,,,,,,
1478209390.44,-2.952902,1.238626,1.259358,1.020405,-0.729980,-0.135108,-0.061167,-0.945337,0.320307,-0.090002,0.013773,-0.043788,-1.207825,-32.686996,32.812866,,,,,,
1478209390.46,-2.982927,1.218178,1.281528,1.118272,-0.332511,-0.230980,-0.054566,-0.938472,0.341018,-0.052932,0.038722,-0.109267,-1.207825,-32.686996,32.812866,,,,,,
1478209390.48,-3.011488,1.195554,1.308813,1.248957,-0.058410,-0.362677,-0.047549,-0.930419,0.363401,-0.013212,0.039778,-0.091398,-0.376709,-31.564896,34.468506,,,,,,
1478209390.50,-3.039006,1.170334,1.338467,1.369985,-0.010825,-0.439793,-0.039923,-0.920881,0.387795,-0.033152,0.051755,-0.096565,-0.071991,-30.291168,35.220154,,,,,,
1478209390.52,-3.066948,1.142448,1.366370,1.492729,-0.209006,-0.417527,-0.030976,-0.909653,0.414213,-0.033279,0.082306,-0.153318,0.531616,-29.317383,35.824219,,,,,,
1478209390.54,-3.094913,1.111603,1.388916,1.634330,-0.473189,-0.381218,-0.020682,-0.896410,0.442743,0.039573,-0.009275,-0.162423,0.836212,-27.968430,36.425842,,,,,,
1478209390.56,-3.124088,1.077500,1.408503,1.787355,-0.642664,-0.415247,-0.008289,-0.880777,0.473459,0.120700,-0.071219,-0.144373,0.836212,-27.968430,36.425842,,,,,,
1478209390.58,3.129856,1.040088,1.427967,1.944944,-0.564300,-0.529466,0.005940,-0.862449,0.506109,0.007228,-0.067025,-0.174338,0.990265,-27.295303,37.626648,,,,,,
1478209390.60,3.102469,0.998253,1.449292,2.187138,-0.417048,-0.676325,0.021191,-0.840526,0.541357,-0.075070,-0.185429,-0.260366,2.345367,-25.872116,38.386108,,,,,,
1478209390.62,3.074999,0.950547,1.472450,2.476767,-0.460205,-0.849245,0.038678,-0.813733,0.579950,-0.012281,-0.306323,-0.326425,3.708160,-22.275620,40.269531,,,,,,
1478209390.64,3.043142,0.895438,1.496505,2.852738,-0.763080,-1.005329,0.061450,-0.780483,0.622149,-0.006869,-0.391972,-0.461368,4.389435,-20.176758,40.798584,,,,,,
1478209390.66,3.008540,0.831698,1.518583,3.248046,-0.945955,-1.119973,0.089363,-0.739076,0.667668,-0.081962,-0.497862,-0.535603,4.389435,-20.176758,40.798584,,,,,,
1478209390.68,2.973644,0.761895,1.537492,3.415199,-1.204613,-1.248529,0.120945,-0.690294,0.713349,-0.024067,-0.800200,-0.513367,5.297302,-18.229477,42.304382,,,,,,
1478209390.70,2.929390,0.688540,1.555905,3.528852,-1.923350,-1.426711,0.162630,-0.635410,0.754854,0.235929,-1.745678,-1.180925,7.106201,-15.231415,42.991455,,,,,,
1478209390.72,2.869292,0.613323,1.569651,3.550949,-2.952508,-1.447377,0.219930,-0.575588,0.787610,-0.176030,-1.371540,-0.906262,10.423370,-8.558441,43.237976,,,,,,
1478209390.74,2.809551,0.538496,1.580283,3.415910,-2.278790,-1.622658,0.279842,-0.512846,0.811590,-0.497051,-1.067263,0.275309,13.208374,-4.209183,42.806702,,,,,,
1478209390.76,2.774019,0.470385,1.593730,2.623278,-1.076991,-1.625650,0.320324,-0.453229,0.831851,-0.690091,-1.604144,0.040967,13.208374,-4.209183,42.806702,,,,,,
1478209390.78,2.765348,0.423381,1.600200,1.786297,0.344011,-1.057582,0.334988,-0.410846,0.847932,-1.080273,-1.039960,0.247313,15.839325,-1.359619,42.225037,,,,,,
1478209390.80,2.778399,0.392191,1.614175,0.868418,1.222106,-1.144865,0.328288,-0.382214,0.863794,-0.760615,-0.383014,0.124213,16.823517,3.141464,41.180176,,,,,,
1478209390.82,2.794657,0.387052,1.626483,-0.505167,0.951673,-0.209919,0.314865,-0.377460,0.870852,-0.297272,-0.620892,-0.494387,15.852142,4.792297,40.947083,,,,,,
1478209390.84,2.801653,0.416731,1.630288,-1.915754,0.190453,0.575476,0.304894,-0.404774,0.862089,-0.052117,-0.479656,-0.915556,14.425995,4.568466,40.636475,,,,,,
1478209390.86,2.800689,0.469303,1.630542,-2.820988,-0.167793,1.011750,0.298191,-0.452265,0.840558,-0.119694,0.001642,-0.588010,14.425995,4.568466,40.636475,,,,,,
1478209390.88,2.794895,0.540421,1.629528,-3.681799,-0.405954,1.395925,0.291370,-0.514497,0.806472,-0.134327,0.033982,-0.421172,14.347473,2.993164,40.861633,,,,,,
1478209390.90,2.786279,0.629040,1.628714,-4.463268,-0.441068,1.641841,0.281297,-0.588369,0.758086,-0.122468,0.064809,-0.362395,15.157379,-2.706573,40.420654,,,,,,
1478209390.92,2.777802,0.730947,1.629761,-4.996877,-0.312160,1.866516,0.264923,-0.667575,0.695816,-0.101028,0.089954,-0.377289,15.147217,-5.929993,39.372070,,,,,,
1478209390.94,2.778567,0.842831,1.627709,-5.386185,0.140356,2.194747,0.236270,-0.746530,0.621989,-0.150622,0.170572,-0.151530,14.684326,-10.127960,38.170776,,,,,,
1478209390.96,2.791259,0.965279,1.620177,-5.875907,0.414688,2.467344,0.195351,-0.822208,0.534614,-0.127480,0.062320,0.033257,14.684326,-10.127960,38.170776,,,,,,
1478209390.98,2.817083,1.095794,1.601619,-6.108264,0.548928,2.731987,0.145820,-0.889292,0.433470,0.034157,-0.013205,0.160325,14.520905,-14.475983,36.896729,,,,,,
1478209391.00,2.875194,1.230681,1.553859,-6.295247,0.837203,2.981743,0.087822,-0.942716,0.321828,0.115257,-0.085634,0.318294,11.938599,-23.843018,32.457031,,,,,,
1478209391.02,3.021442,1.368628,1.424777,-6.574561,1.182425,3.042502,0.024067,-0.979634,0.199346,0.227611,-0.244411,0.628169,9.823059,-27.587326,29.368042,,,,,,
1478209391.04,-2.672482,1.491723,0.852037,-6.442729,0.933696,2.775351,-0.035711,-0.996875,0.070458,0.357458,-0.511197,0.966621,7.633606,-30.581024,25.903076,,,,,,
1478209391.06,-1.030618,1.469922,-0.775745,-5.888652,0.973959,2.438760,-0.086365,-0.994916,-0.051790,0.297836,-0.495730,1.341646,7.633606,-30.581024,25.903076,,,,,,
1478209391.08,-0.682781,1.363969,-1.104067,-4.959639,1.238157,2.235885,-0.129570,-0.978687,-0.159319,0.252037,-0.216106,1.520434,3.254303,-36.117233,18.148010,,,,,,
1478209391.10,-0.599201,1.276673,-1.170921,-3.348054,0.593798,1.742214,-0.163499,-0.957057,-0.239396,0.406755,-0.042058,1.706864,1.442291,-37.835541,14.310303,,,,,,
,,,,,,,,,,,,,,,,37.322845,-122.017281,61.720184,0.520000,337.851562,1478209391.00
1478209391.12,-0.600206,1.237714,-1.168183,-0.308962,-0.126503,0.696576,-0.184670,-0.945039,-0.269812,0.849114,1.136049,1.836447,-0.664459,-38.731110,12.044922,,,,,,
1478209391.14,-0.649043,1.265584,-1.119210,2.351801,-0.171048,-0.630004,-0.181627,-0.953783,-0.239393,0.706117,1.109026,1.676634,-0.964081,-38.580948,12.042603,,,,,,
1478209391.16,-0.750126,1.309065,-1.028136,2.313742,-1.214562,-0.237954,-0.176400,-0.965943,-0.189305,0.226251,-0.193297,0.269200,-0.964081,-38.580948,12.042603,,,,,,
