Elapsed Time, accel x, accel y, accel z, gyro x, gyro y, gyro z
0,0.02908,-0.04555,0.014946,-0.303666,-0.289746,0.125242
0.00999999,0.032309,-0.048058,0.016142,-0.249613,-0.253964,0.17325
0.019999981,0.015633,-0.034776,0.018427,-0.185306,-0.237713,0.198433
0.029999971,0.013622,-0.003636,0.013115,-0.122437,-0.207533,0.184114
0.039999962,-0.002157,0.016752,0.011362,-0.085164,-0.142749,0.154124
0.049999952,-0.016112,0.019308,0.015124,-0.095981,-0.067168,0.129389
0.059999943,-0.021683,0.021039,0.019525,-0.143521,0.018101,0.102734
1.48E+09,-0.214528,0.045059,0.081631,-0.027606,0.026277,0.026067
1.48E+09,-0.275973,-0.010612,0.039986,-0.034225,0.018254,0.050226
1.48E+09,-0.310274,0.002105,-0.025726,-0.038327,0.029254,0.031447
1.48E+09,-0.271019,-0.148537,-0.025069,0.009299,-0.011012,0.010528
1.48E+09,-0.179322,-0.230874,-0.021129,-8.13E-04,-0.008466,-0.007619
1.48E+09,-0.047474,-0.280951,-0.00121,0.006688,-0.013444,-0.014512
1.48E+09,0.048998,-0.330022,0.020634,0.010159,-0.017466,-0.030477
1.48E+09,0.122367,-0.340762,0.02678,0.02184,-0.003307,-0.022219
1.48E+09,0.135009,-0.198669,0.050319,-0.010615,0.013886,-0.001319
1.48E+09,0.082578,-0.121465,0.096092,-0.015396,0.01018,0.026296
1.48E+09,-0.093761,0.10952,0.148517,-0.042301,0.010123,0.030374
1.48E+09,-0.172799,0.194084,0.182742,-0.047133,-0.02533,0.048336
1.48E+09,-0.20746,0.254536,0.175089,-0.035927,-0.031439,0.035014
1.48E+09,-0.231279,0.229957,0.139594,-0.028358,-0.01302,0.029888
1.48E+09,-0.213081,0.166186,0.089422,-0.026561,0.001739,0.01248
1.48E+09,-0.173564,0.121009,0.049056,-0.017027,0.013697,0.004916
1.48E+09,-0.127674,0.074327,0.046785,-0.013216,0.01873,-0.001353
1.48E+09,-0.073513,0.091942,0.049723,-9.64E-04,0.007139,-0.010438
1.48E+09,0.002974,0.153102,0.03753,-0.014417,0.001243,-0.01501
1.48E+09,0.287901,0.362095,0.094532,-0.032765,-0.006338,-0.049311
1.48E+09,0.140989,0.260077,0.062245,-0.029792,-0.00878,-0.048293
1.48E+09,0.388038,0.326639,0.117427,-0.028547,0.001999,-0.065312
1.48E+09,0.411342,0.261391,0.099241,-0.030776,0.005923,-0.067012
1.48E+09,0.441447,0.272253,0.006282,-0.027238,0.021502,-8.59E-04
1.48E+09,0.393983,0.195154,-0.123106,-0.062894,0.060359,0.051373
1.48E+09,0.229153,-0.170988,-0.229686,-0.119734,0.065502,0.052823
1.48E+09,0.169163,-0.536499,-0.33721,-0.090236,0.00786,0.073633
1.48E+09,0.324227,-0.794508,-0.42628,-0.024702,-0.035971,0.116004
1.48E+09,0.59478,-0.825911,-0.468449,-0.00644,-0.027604,0.063178
1.48E+09,0.835585,-0.919383,-0.503868,-0.058347,0.033524,-0.01229
1.48E+09,0.998193,-1.030383,-0.569554,-0.107121,0.079823,-0.079339
1.48E+09,1.109914,-1.254641,-0.73218,-0.135081,0.099712,-0.065612
1.48E+09,1.124347,-1.896245,-0.894071,-0.163074,0.059555,0.0167
1.48E+09,1.044541,-2.451932,-1.046508,-0.216324,0.065782,-0.025959
1.48E+09,0.709961,-2.347726,-1.176969,-0.188022,0.120772,0.092979
1.48E+09,0.225461,-1.856797,-1.226592,-0.125969,0.159252,0.20435
1.48E+09,-0.198483,-1.201988,-1.16282,-0.06966,0.13204,0.243986
1.48E+09,-0.537122,-0.463683,-0.967995,-0.025177,0.057861,0.242123
1.48E+09,-0.881052,0.180612,-0.628165,0.024783,-0.023403,0.22901
1.48E+09,-1.248916,0.547152,-0.217763,0.073971,-0.096223,0.202507
1.48E+09,-1.595364,0.765129,0.081395,0.13736,-0.149414,0.146857
1.48E+09,-1.851156,0.99367,0.219793,0.157717,-0.138302,0.118685
1.48E+09,-2.029467,1.169818,0.320946,0.131501,2.30E-05,0.116612
1.48E+09,-2.055077,1.070584,0.338196,0.091162,0.058715,0.105187
1.48E+09,-1.868306,0.660527,0.264415,0.07404,0.025803,0.044583
1.48E+09,-1.508367,0.227441,0.112577,0.0546,-0.013061,-0.053047
1.48E+09,-1.094606,-0.025113,-0.144553,-0.001828,-0.054822,-0.138819
1.48E+09,-0.704729,-0.14928,-0.391931,-0.051784,-0.062913,-0.184451
1.48E+09,-0.400778,-0.259768,-0.563514,-0.082909,-0.008642,-0.182597
1.48E+09,-0.182779,-0.348271,-0.617743,-0.066873,0.007505,-0.170793
1.48E+09,-0.021283,-0.320502,-0.569275,-0.023506,0.013043,-0.136618
1.48E+09,0.082967,-0.233392,-0.413481,0.012036,0.024998,-0.076387
1.48E+09,0.059328,-0.246357,-0.213691,0.029667,0.034582,-0.018275
1.48E+09,-0.176417,-0.143585,-0.104769,0.024104,0.044655,0.055818
1.48E+09,-0.448938,-0.17519,-0.071376,0.019581,0.043794,0.144949
1.48E+09,-0.675593,-0.39657,-0.084403,0.040577,0.013101,0.160831
1.48E+09,-0.818197,-0.556642,-0.121779,0.042995,-0.020431,0.126962
1.48E+09,-0.872096,-0.610882,-0.180512,0.026862,-0.0261,0.095799
1.48E+09,-0.821822,-0.588,-0.218192,-0.001314,-0.019735,0.031397
1.48E+09,-0.66115,-0.473387,-0.20309,-0.009135,-0.009883,-0.049757
1.48E+09,-0.452621,-0.338942,-0.159423,-0.004664,0.01718,-0.065859
1.48E+09,-0.277112,-0.328188,-0.136221,-0.002896,0.048546,-0.027211
1.48E+09,-0.1504,-0.374263,-0.154464,-0.005044,0.06062,-0.009482
1.48E+09,0.014688,-0.475634,-0.187163,-0.003998,0.046526,0.017071
1.48E+09,0.291853,-0.66498,-0.119869,-0.008257,0.043724,0.03462
1.48E+09,0.534779,-0.973641,-0.006903,-0.043918,0.078382,0.04441
1.48E+09,0.498395,-1.140829,-0.004606,-0.082972,0.101928,0.0856
1.48E+09,0.15355,-1.444434,-0.176163,-0.102678,0.072038,0.057589
1.48E+09,-0.240518,-1.343292,-0.42517,-0.05263,-0.021828,0.025885
1.48E+09,-0.447635,-0.670417,-0.58792,-0.045887,-0.025002,0.025821
1.48E+09,-0.511153,-0.337709,-0.492658,-0.03479,-0.04746,0.059279
1.48E+09,-0.498507,-0.306298,-0.250168,0.018795,0.009165,-0.019553
1.48E+09,-0.39426,-0.060789,0.039089,0.067225,0.091808,-0.072051
1.48E+09,-0.323406,0.243984,0.315825,0.080116,0.101786,-0.036212
1.48E+09,-0.384756,0.344876,0.480029,0.090214,0.092603,0.040348
1.48E+09,-0.494329,0.293259,0.364032,0.105915,0.069173,0.063461
1.48E+09,-0.787899,-0.122024,-0.018302,0.067603,0.012235,0.094225
1.48E+09,-0.837455,-0.989215,-0.456941,0.068253,-0.059324,0.19699
1.48E+09,-0.675653,-0.894685,-0.697812,0.05665,-0.210729,-0.101137
1.48E+09,-0.442931,-0.523746,-0.817227,-0.022367,-0.176007,-0.180744
1.48E+09,-0.19605,-0.309334,-0.843038,-0.107537,0.052746,-0.285694
1.48E+09,0.029729,-0.123079,-0.771788,-0.03859,0.022758,-0.311468
1.48E+09,0.092564,-0.067061,-0.624652,0.025643,-0.002229,-0.249461
1.48E+09,0.016135,-0.246241,-0.403196,0.09261,0.045929,-0.144492
1.48E+09,-0.115014,-0.519796,-0.174804,0.156222,0.06475,-0.062943
1.48E+09,-0.222798,-0.735538,-0.039035,0.205368,0.027163,-0.006762
1.48E+09,-0.247145,-0.834735,-0.024225,0.19807,-0.027042,0.0065
1.48E+09,-0.170172,-0.834935,-0.091792,0.140979,-0.057922,-0.032804
1.48E+09,-0.040995,-0.739674,-0.150405,0.071268,-0.057614,-0.086526
1.48E+09,0.095165,-0.577645,-0.202685,0.016596,-0.05477,-0.109567
1.48E+09,0.186445,-0.481423,-0.255729,-0.016515,-0.05218,-0.102125
1.48E+09,0.234589,-0.501874,-0.28903,-0.02992,-0.035267,-0.090437
1.48E+09,0.216298,-0.574924,-0.29174,-0.015964,-0.017511,-0.065792
1.48E+09,0.183996,-0.629848,-0.254486,0.005379,-0.010158,-0.031404
1.48E+09,0.126084,-0.64075,-0.176645,0.026322,-0.006865,-0.004257
1.48E+09,0.004979,-0.645976,-0.083868,0.044854,0.013972,0.058338
1.48E+09,-0.179317,-0.644361,0.03241,0.052576,0.010683,0.09398
1.48E+09,-0.287814,-0.641209,0.166927,0.071955,-0.00235,0.121249
1.48E+09,-0.285135,-0.634042,0.34468,0.096892,-0.001441,0.116046
1.48E+09,-0.202409,-0.671356,0.574625,0.106109,0.022334,0.093092
1.48E+09,0.01111,-0.783397,0.813851,0.11082,0.043318,0.072978
1.48E+09,0.328764,-0.962474,1.01156,0.133656,0.081812,0.048862
1.48E+09,0.515951,-1.120163,1.073341,0.124673,0.128975,0.058866
1.48E+09,0.368721,-1.19334,0.993958,0.076721,0.12836,0.097868
1.48E+09,-0.007151,-1.126847,0.906463,0.011596,0.090126,0.111879
1.48E+09,-0.423939,-0.723147,0.837214,-0.046957,0.047259,0.095118
1.48E+09,-0.803189,-0.143396,0.742233,-0.112495,0.005979,0.125037
1.48E+09,-1.094,0.290015,0.612979,-0.184179,-0.032122,0.1581
1.48E+09,-1.146327,0.345593,0.584303,-0.219723,-0.044407,0.156548
1.48E+09,-0.947226,0.123888,0.620355,-0.164063,-0.034342,0.116005
1.48E+09,-0.670101,-0.068691,0.631286,-0.040317,-0.065229,0.027996
1.48E+09,-0.542034,-0.121182,0.641379,0.008954,-0.046477,-0.052863
1.48E+09,-0.646489,-0.161531,0.660141,0.018944,-0.012987,-0.027655
1.48E+09,-0.784289,-0.154591,0.618787,0.015969,-0.097296,-0.064148
1.48E+09,-0.807096,0.129903,0.595259,0.029367,-0.162096,-0.114532
1.48E+09,-0.760593,0.437984,0.610353,0.034478,-0.138842,-0.151345
1.48E+09,-0.658221,0.581459,0.680543,0.058775,-0.073347,-0.213825
1.48E+09,-0.536045,0.624024,0.706117,0.084732,-0.05862,-0.274359
1.48E+09,-0.390404,0.710954,0.620901,0.100067,-0.066469,-0.291669
1.48E+09,-0.333244,0.801248,0.5135,0.073458,-0.077192,-0.258977
1.48E+09,-0.423061,0.808575,0.460569,0.042142,-0.087521,-0.193483
1.48E+09,-0.539895,0.737386,0.460084,0.030575,-0.094781,-0.126273
1.48E+09,-0.598464,0.646865,0.447275,0.027318,-0.099658,-0.088168
1.48E+09,-0.57392,0.442017,0.413067,0.024511,-0.105004,-0.060889
1.48E+09,-0.481573,0.140036,0.360628,0.024638,-0.107525,-0.057532
1.48E+09,-0.367508,-0.194826,0.263678,0.021287,-0.113181,-0.077974
1.48E+09,-0.235706,-0.389022,0.216122,0.036066,-0.112241,-0.094738
1.48E+09,-0.07381,-0.41274,0.211501,0.039677,-0.110037,-0.182714
1.48E+09,0.171682,-0.319817,0.219608,0.059812,-0.057707,-0.185803
1.48E+09,0.305631,-0.037547,0.2781,0.059091,-0.017326,-0.189747
1.48E+09,0.228969,0.211041,0.367233,0.029233,-0.009655,-0.11029
1.48E+09,0.102372,0.392639,0.445739,0.063331,-0.013345,-0.012131
1.48E+09,-0.19839,0.543164,0.419231,0.070985,-0.035687,0.071944
1.48E+09,-0.599374,0.030866,0.317842,0.060796,-0.041877,0.231015
1.48E+09,-0.710068,-0.322151,0.160311,0.060588,-0.117378,0.149796
1.48E+09,-0.599329,-0.308307,-0.081162,-0.014193,-0.138253,0.083116
1.48E+09,-0.412761,-0.429382,-0.254261,-0.074668,-0.100705,0.01215
1.48E+09,-0.170547,-0.538925,-0.289388,-0.072659,-0.021726,-0.108017
1.48E+09,-0.005209,-0.516133,-0.234648,-0.016739,-0.040663,-0.148789
1.48E+09,0.011576,-0.538193,-0.10035,0.020495,-0.038852,-0.10754
1.48E+09,-0.040441,-0.627868,0.084378,0.043427,-0.001851,-0.039232
1.48E+09,-0.025069,-0.772426,0.22563,0.06696,0.024503,0.035432
1.48E+09,0.082789,-0.95665,0.297751,0.081993,0.022685,0.074366
1.48E+09,0.255379,-1.182097,0.318766,0.077877,0.034765,0.076804
1.48E+09,0.406323,-1.387924,0.344043,0.091134,0.037176,0.071627
1.48E+09,0.459353,-1.515588,0.415645,0.111108,0.063072,0.097903
1.48E+09,0.424484,-1.556287,0.523756,0.126343,0.065311,0.091405
1.48E+09,0.313029,-1.504946,0.661096,0.131732,0.08307,0.119422
1.48E+09,0.145509,-1.399547,0.800394,0.129276,0.088177,0.140747
1.48E+09,-0.056829,-1.215216,0.940309,0.115516,0.091279,0.142085
1.48E+09,-0.310956,-0.891428,1.077122,0.091001,0.089345,0.129355
1.48E+09,-0.657782,-0.52309,1.144391,0.053431,0.082309,0.132686
1.48E+09,-1.009331,-0.204658,1.114317,0.00843,0.061956,0.133074
1.48E+09,-1.174825,0.065888,1.030094,-0.036107,0.015198,0.104549
1.48E+09,-1.137312,0.23512,0.933342,-0.060748,-0.023316,0.035477
1.48E+09,-0.901966,0.181506,0.860378,-0.071766,-0.041274,-0.046204
1.48E+09,-0.517297,-0.034873,0.837696,-0.060711,-0.032263,-0.142172
1.48E+09,-0.077994,-0.00958,0.7921,-0.033512,-0.038238,-0.241337
1.48E+09,0.204171,0.072813,0.755536,-0.020925,-0.053037,-0.254325
1.48E+09,0.322078,0.162706,0.73855,-0.031004,-0.022999,-0.211588
1.48E+09,0.312632,0.373859,0.76919,-0.010017,-0.040685,-0.138343
1.48E+09,0.126322,0.591107,0.830288,0.007969,-0.032087,-0.022921
1.48E+09,-0.204956,0.915084,0.889944,-0.040477,-0.02695,0.069217
1.48E+09,-0.575084,1.33702,0.890969,-0.107258,-0.03991,0.148635
1.48E+09,-0.904937,1.620377,0.783308,-0.167704,-0.054574,0.180545
1.48E+09,-1.117674,1.508419,0.563818,-0.178578,-0.05843,0.180944
1.48E+09,-1.138542,0.988471,0.322097,-0.122846,-0.076581,0.141122
1.48E+09,-0.967063,0.292697,0.097159,-0.06223,-0.118406,0.049194
1.48E+09,-0.706245,-0.354905,-0.057394,-0.014888,-0.146887,-0.028624
1.48E+09,-0.456438,-0.596111,-0.019055,0.028452,-0.130022,-0.137515
1.48E+09,-0.409589,-0.442841,0.169134,0.044286,-0.065839,-0.194277
1.48E+09,-0.482599,-0.029129,0.330347,0.021219,-0.014631,-0.148828
1.48E+09,-0.553254,0.39735,0.446,0.002471,0.006748,-0.083647
1.48E+09,-0.63104,0.349215,0.525409,-0.014121,0.006399,-0.016081
1.48E+09,-0.648908,0.088251,0.516065,0.062777,-0.073055,0.039367
1.48E+09,-0.622036,-0.241078,0.433707,0.015838,-0.086476,0.045045
1.48E+09,-0.546192,-0.536806,0.361301,-0.029287,-0.036541,0.008206
1.48E+09,-0.52768,-0.779626,0.279816,-0.029674,-0.046456,-0.017238
1.48E+09,-0.562927,-0.944801,0.191337,-0.006997,-0.102833,-0.00379
1.48E+09,-0.60157,-1.00658,0.157481,-0.002198,-0.101641,0.012215
1.48E+09,-0.61258,-1.043896,0.175122,0.016664,-0.06255,0.033172
1.48E+09,-0.587107,-1.062579,0.20892,0.041586,-0.043337,0.037946
1.48E+09,-0.543966,-0.938963,0.245476,0.048568,-0.048821,0.016801
1.48E+09,-0.445927,-0.73493,0.317034,0.047979,-0.037766,0.014201
1.48E+09,-0.315628,-0.599169,0.441722,0.042381,-0.024357,0.020648
1.48E+09,-0.246319,-0.706022,0.550001,0.03974,-0.015345,0.033148
1.48E+09,-0.236179,-0.978721,0.632017,0.047036,-0.004475,0.063887
1.48E+09,-0.254858,-1.289195,0.627177,0.061549,-0.004168,0.098612
1.48E+09,-0.207106,-1.548191,0.578274,0.071225,-0.022789,0.11654
1.48E+09,-0.128127,-1.62073,0.584318,0.072643,-0.039579,0.08131
1.48E+09,-0.143863,-1.543723,0.679681,0.043633,0.027681,0.064479
1.48E+09,-0.205506,-1.412941,0.817625,0.054048,0.021926,0.05632
1.48E+09,-0.216224,-1.185447,0.962031,0.063145,0.035345,0.086562
1.48E+09,-0.123644,-0.929915,1.081699,0.068546,0.028344,0.080733
1.48E+09,-0.013463,-0.803024,1.217284,0.035817,0.020903,0.083958
1.48E+09,0.082358,-1.182158,1.369789,0.021159,0.039204,0.114283
1.48E+09,0.339335,-1.796867,1.41699,0.068792,0.027203,0.085911
1.48E+09,0.492058,-2.473035,1.491931,0.089194,0.075585,0.065534
1.48E+09,0.471687,-3.148781,1.539838,0.068242,0.100045,0.018705
1.48E+09,0.423857,-3.579938,1.60039,0.115345,0.08588,-0.04547
1.48E+09,0.446401,-3.94777,1.82646,0.139172,0.037363,-0.0326
1.48E+09,0.670354,-4.341405,2.322013,0.18254,0.02278,-0.040738
1.48E+09,1.21995,-4.590599,2.640767,0.206369,0.029206,-0.127704
1.48E+09,1.89038,-5.077403,2.919897,0.281877,0.019168,-0.214943
1.48E+09,2.39987,-5.388241,3.041654,0.281426,0.094217,-0.306501
1.48E+09,2.759355,-5.855691,3.296346,0.312175,0.067547,-0.343656
1.48E+09,2.988043,-6.48251,3.87685,0.321927,0.116891,-0.159563
1.48E+09,3.148681,-7.134053,4.407731,0.401914,0.146826,-0.112771
1.48E+09,3.295077,-7.496872,4.715195,0.407001,0.216903,-0.067762
1.48E+09,3.440664,-7.654192,4.849956,0.282256,0.272871,-0.062205
1.48E+09,3.659142,-7.794693,4.802744,0.149974,0.256738,-0.113382
1.48E+09,3.972196,-7.924292,4.703976,0.034944,0.213378,-0.176479
1.48E+09,4.431218,-7.857266,4.563523,-0.06648,0.199781,-0.239422
1.48E+09,4.803903,-7.356953,4.16186,-0.183736,0.174889,-0.285701
1.48E+09,4.842035,-6.625662,3.555236,-0.341311,0.17099,-0.23514
1.48E+09,4.338163,-5.727947,3.063076,-0.478764,0.135938,-0.108185
1.48E+09,0.34016,-6.111416,2.27596,-0.521377,0.072188,0.047975
1.48E+09,-1.183814,-7.472049,3.125633,-0.543287,-0.029782,0.243884
1.48E+09,-0.662863,-4.757648,2.920535,-1.283499,-0.339124,2.009309
1.48E+09,-0.471209,-2.487832,1.82533,-0.497656,-0.602878,0.707353
1.48E+09,-0.178313,0.374133,1.118962,-0.358379,0.296575,0.895699
1.48E+09,-0.299011,0.747122,1.236021,-0.367016,0.287323,0.8997
1.48E+09,0.02462,0.28844,1.160131,-0.049096,0.062149,-0.092173
1.48E+09,0.377928,-0.197412,1.392969,-0.058595,-0.019981,0.038692
1.48E+09,0.701093,-1.549884,1.571318,-0.070442,-0.031494,0.034251
1.48E+09,1.031892,-2.224835,1.629187,-0.19693,-0.068551,-0.068731
1.48E+09,1.10521,-2.215454,1.741694,-0.117775,0.04037,0.016195
1.48E+09,1.081717,-1.834543,1.868608,-0.065597,0.029546,0.088312
1.48E+09,1.389372,-1.372622,1.719304,-0.092975,0.092159,0.114046
1.48E+09,1.287932,-0.768584,1.728493,-0.17496,0.170283,-0.024331
1.48E+09,1.089188,-0.429232,1.819238,-0.317207,0.262107,-0.19022
1.48E+09,1.15365,0.407095,1.824448,-0.263425,0.014248,0.017457
1.48E+09,0.896855,1.442215,1.929592,-0.376982,0.205491,-0.071196
1.48E+09,0.806174,2.510287,1.766758,-0.337222,0.114296,-0.061743
1.48E+09,0.87682,3.185634,1.50986,-0.255875,0.06574,0.046204
1.48E+09,-0.081765,0.8999,1.311391,-0.278758,-0.212452,-0.274416
1.48E+09,0.311713,2.659011,1.376908,-0.265717,-0.205005,-0.281421
1.48E+09,0.206881,-0.710973,1.312089,0.265466,-0.434493,0.462327
1.48E+09,0.391588,-1.829824,1.550725,0.475191,-0.418153,0.446546
1.48E+09,0.195608,-2.167506,2.003705,0.599356,-0.258468,0.285119
1.48E+09,-0.272031,-1.789997,2.508144,0.727562,-0.245998,0.138714
1.48E+09,-0.815219,-0.783216,2.689351,0.763093,-0.239377,0.133108
1.48E+09,-1.026458,0.090927,2.705886,0.541487,-0.273651,0.065624
1.48E+09,-1.11671,0.57856,2.741731,0.253088,-0.366467,-0.13954
1.48E+09,-1.313292,1.303476,2.28268,0.189077,-0.334266,-0.262788
1.48E+09,-1.789469,2.227588,1.90576,0.166599,-0.314429,-0.083316
1.48E+09,-2.114231,2.807701,1.952602,-0.348632,-0.230331,0.056167
1.48E+09,-2.317816,3.114212,1.97515,-0.468554,-0.297547,0.268699
1.48E+09,-1.419279,2.444672,1.506389,-0.181686,0.015013,0.168959
1.48E+09,-1.181035,-0.02447,1.474243,-0.113486,0.031656,0.050415
1.48E+09,-0.964457,-0.783961,1.503681,-0.35886,0.720139,-0.824579
1.48E+09,-0.689315,-0.644632,1.310295,0.027503,0.40754,0.191507
1.48E+09,-0.412585,-0.657632,1.289981,-0.069967,0.062231,0.128497
1.48E+09,0.004253,-0.641223,1.401196,-0.063942,0.366165,0.158358
1.48E+09,0.44221,-0.446533,1.503575,-0.115889,0.001801,0.128244
1.48E+09,0.450822,-0.308726,1.300235,-0.142623,-0.237374,0.100112
1.48E+09,0.33835,-0.24262,0.716156,-0.086069,0.247865,0.148369
1.48E+09,-0.069987,-0.304491,-0.007397,-0.286123,0.209476,0.112706
1.48E+09,-0.411417,0.324926,-0.828731,0.025937,0.076379,0.016271
1.48E+09,-0.590255,0.501009,-1.158069,-0.296063,-0.159616,0.023336
1.48E+09,-0.592317,0.303508,-1.202596,0.201406,0.221631,0.111881
1.48E+09,-0.641454,0.293095,-1.176148,0.289025,0.574033,0.001625
1.48E+09,-0.458685,0.483004,-1.128883,0.254425,0.46571,0.115495
1.48E+09,-0.559901,0.060643,-0.247527,0.121409,0.015117,-0.090938
1.48E+09,-0.629899,-0.903081,0.475394,0.081076,-0.265661,-0.169078
1.48E+09,-0.395931,-1.193563,0.625944,-0.118543,-0.060845,-0.236365
1.48E+09,-0.267415,-1.138311,0.764229,-0.033722,-0.114622,0.087937
1.48E+09,-0.233005,-1.142421,0.981878,0.05362,-0.020842,0.092508
1.48E+09,-0.250698,-1.003875,0.964566,-0.082323,-0.180629,-0.006942
1.48E+09,-0.077318,-0.675359,0.555567,-0.050132,0.01984,0.165656
1.48E+09,0.032049,-0.49428,0.425312,0.001581,0.105615,0.160543
1.48E+09,-0.003317,-0.602833,0.65966,-0.021764,0.005979,0.07484
1.48E+09,-0.050619,-0.660028,0.808343,-0.05934,-0.060396,0.006595
1.48E+09,0.082625,-0.869348,0.795403,-0.083791,-0.006575,0.044703
1.48E+09,0.37972,-0.522172,0.461463,-0.06255,0.016259,0.085578
1.48E+09,0.310062,-0.275621,0.066283,0.02635,-0.097566,0.009053
1.48E+09,0.023031,-0.156562,-0.323751,0.079767,0.123169,0.007145
1.48E+09,-0.168156,-0.003345,-0.590332,0.111287,0.061907,-0.013889
1.48E+09,-0.199017,-0.115289,-0.828046,0.127221,-0.081599,-0.050626
1.48E+09,-0.2241,-0.299435,-1.005589,0.125809,-0.202438,-0.066927
1.48E+09,-0.330453,-0.421896,-1.077417,0.103983,-0.240994,-0.050413
1.48E+09,-0.48094,-0.555594,-1.168091,0.086821,-0.291539,-0.056675
1.48E+09,-0.372295,-0.708778,-1.255921,0.092419,-0.386384,-0.066151
1.48E+09,0.181808,-0.812301,-1.341837,0.102759,-0.563051,-0.009351
1.48E+09,0.552167,-0.660406,-1.053291,0.138899,-0.783416,0.11113
1.48E+09,0.895181,-0.256492,-0.607502,0.146514,-0.738968,0.199211
1.48E+09,1.209224,0.441442,-1.021932,0.193521,-0.925659,-0.001044
1.48E+09,2.058223,1.158167,-1.814064,-0.04423,-1.3118,0.212566
1.48E+09,3.3217,1.988063,-2.678162,-0.14391,-1.472379,0.015781
1.48E+09,4.648984,3.158881,-3.596152,-0.164725,-1.234721,-0.051917
1.48E+09,3.936354,3.925973,-4.291485,-0.239987,-0.612599,-0.279708
1.48E+09,-0.230017,2.22543,-3.735456,-0.227621,0.203652,-0.661213
1.48E+09,-3.710951,0.538753,-2.43144,-0.218764,1.156432,0.089423
1.48E+09,-2.242477,-2.941878,-0.725208,0.194032,0.68651,-0.295961
1.48E+09,-0.183985,-2.592894,1.43878,0.428115,0.744799,-0.032876
1.48E+09,0.117181,-0.738273,3.155838,0.654791,0.493126,0.338042
1.48E+09,0.421395,0.074212,3.810026,0.454584,0.403088,0.200178
1.48E+09,0.507228,1.761516,3.812217,0.057529,0.551859,0.444748
1.48E+09,0.024975,1.963122,3.465803,0.16122,-0.443161,0.32396
1.48E+09,-0.434737,1.084155,3.249563,0.176987,-0.581004,0.034222
1.48E+09,-0.211645,-0.269374,3.18978,0.216631,-0.600915,-0.25573
1.48E+09,0.342932,-1.022317,2.832749,0.269466,-0.08309,-0.372476
1.48E+09,0.900671,-2.142707,2.350735,0.004486,-0.040259,-0.274776
1.48E+09,1.628525,-3.612346,2.050003,-0.232209,-0.366808,-0.34037
1.48E+09,1.169528,-2.963151,1.292842,-0.266674,-0.207131,-0.205438
1.48E+09,0.482774,-2.615672,1.099226,-0.367481,0.813926,0.298466
1.48E+09,0.817092,-3.008166,0.954919,-0.434675,0.542684,9.66E-04
1.48E+09,0.851276,-2.622965,0.762489,-0.314641,0.494235,-0.161867
1.48E+09,0.638774,-1.627702,0.640825,-0.041363,0.105047,0.103309
1.48E+09,0.518272,-1.112736,0.932099,0.081784,0.391377,0.166625
1.48E+09,0.323998,-0.824348,1.202832,0.096782,0.605602,0.167192
1.48E+09,0.317709,-0.6848,1.221235,0.120493,0.580607,0.10482
1.48E+09,0.351712,-0.574447,0.919382,0.032362,0.41613,0.038582
1.48E+09,0.309967,-0.33668,0.559094,-0.09878,0.396134,0.097115
1.48E+09,0.14042,-0.063289,0.282211,-0.210876,0.526081,0.149767
1.48E+09,0.063368,0.037604,-0.003915,-0.261342,0.600394,0.146764
1.48E+09,0.102246,0.040817,-0.209452,-0.167233,0.398864,0.096559
1.48E+09,0.163476,-0.048861,-0.382438,0.020605,0.185686,0.053525
1.48E+09,0.180558,0.137982,-0.52884,0.103338,0.083601,0.055696
1.48E+09,0.062603,0.186998,-0.559579,0.123658,-0.022695,0.078796
1.48E+09,0.027096,0.201662,-0.564019,0.112751,-0.018673,0.034594
1.48E+09,0.094376,0.43051,-0.669932,0.105265,-0.108505,0.006584
1.48E+09,0.073862,0.724684,-0.812557,0.080474,-0.272214,0.054396
1.48E+09,-0.014573,0.99214,-0.915239,0.121312,-0.351913,0.084755
1.48E+09,-0.204128,1.160426,-0.769962,0.115811,-0.264181,0.030789
1.48E+09,-0.341773,1.085974,-0.254356,0.005617,0.126435,-0.011255
1.48E+09,-0.316227,0.416921,0.203736,-0.219324,0.520108,-0.074806
1.48E+09,-0.337821,0.280149,0.129693,-0.33189,0.466555,-0.00873
1.48E+09,-0.31306,0.32663,0.061811,-0.176662,0.118854,0.032023
1.48E+09,-0.313637,0.238354,-0.028691,-0.108879,0.126894,0.034645
1.48E+09,-0.273442,0.252862,-0.106849,-0.069383,0.080629,0.062067
1.48E+09,-0.176902,0.18472,-0.169307,-0.026966,0.066862,0.067256
1.48E+09,-0.059676,-0.066893,-0.164594,0.028259,0.050351,0.056264
1.48E+09,0.108328,-0.184752,-7.40E-04,0.069129,0.032573,0.044201
1.48E+09,0.354047,0.216477,0.400764,0.032733,-0.013142,0.065349
1.48E+09,0.443521,0.794858,0.362857,-0.085949,-0.163139,0.143604
1.48E+09,0.358614,0.956871,0.301253,-0.149729,-0.091104,0.176143
1.48E+09,0.123438,0.550528,0.218865,-0.06642,-0.067719,0.120134
1.48E+09,-0.045733,-0.032201,0.12937,0.050566,-0.039142,0.033293
1.48E+09,-0.001496,-0.320944,0.085825,0.137721,0.050031,-0.009846
1.48E+09,0.096608,-0.411984,0.099816,0.034159,0.077133,0.017799
1.48E+09,0.09978,-0.353242,0.028962,-0.042263,0.029115,0.058272
1.48E+09,0.056233,-0.289059,0.012532,-0.066931,0.005972,0.04414
1.48E+09,0.067563,-0.280594,0.043214,-0.070963,0.010489,0.034396
1.48E+09,0.092682,-0.264377,0.04453,-0.075861,0.011748,0.052413
1.48E+09,0.12519,-0.227091,0.045596,-0.068582,0.003221,0.061452
1.48E+09,0.132805,-0.227285,0.073917,-0.051549,0.009033,0.044614
1.48E+09,0.096687,-0.285546,0.064568,-0.057561,0.021801,0.051408
1.48E+09,0.085205,-0.415316,0.046969,-0.058444,0.035248,0.05535
1.48E+09,0.059055,-0.462148,0.009362,-0.042967,0.034399,0.070204
1.48E+09,0.031374,-0.478151,-0.018976,-0.029933,0.028501,0.086179
1.48E+09,0.027301,-0.458864,-0.108891,-0.023985,0.008356,0.067398
1.48E+09,0.047615,-0.467568,-0.088828,-0.008509,-0.028575,0.055724
1.48E+09,0.112089,-0.471033,-0.071895,0.051043,0.013181,0.033576
1.48E+09,0.213462,-0.505118,-0.063724,0.05236,-0.021289,0.020884
1.48E+09,0.27789,-0.509446,-0.090929,0.037511,0.011268,0.031102
1.48E+09,0.26306,-0.551243,-0.130911,0.010862,0.053511,0.028777
1.48E+09,0.235474,-0.578336,-0.163966,0.001233,0.067926,0.036806
1.48E+09,0.139879,-0.487166,-0.191414,0.002523,0.073809,0.058465
1.48E+09,-0.062977,-0.401973,-0.173705,-0.001122,0.072343,0.065596
1.48E+09,-0.212476,-0.354535,-0.186475,-0.014411,0.073885,0.075561
1.48E+09,-0.219813,-0.386396,-0.226521,-0.015723,0.083293,0.057286
1.48E+09,-0.1972,-0.380806,-0.286385,0.002747,0.097751,0.021943
1.48E+09,-0.230231,-0.364631,-0.321475,-2.17E-04,0.071804,0.001065
1.48E+09,-0.319891,-0.23021,-0.340983,-7.92E-04,0.007217,0.027338
1.48E+09,-0.39536,-0.262992,-0.32067,0.008505,-0.039507,0.022458
1.48E+09,-0.426791,-0.414373,-0.283001,0.029782,-0.051129,0.018274
1.48E+09,-0.432213,-0.507521,-0.239808,0.055404,-0.030793,0.030252
1.48E+09,-0.449666,-0.389158,-0.21017,0.02853,-0.017441,0.031869
1.48E+09,-0.475729,-0.296776,-0.18513,-0.019053,-0.004371,0.029121
1.48E+09,-0.526536,-0.261489,-0.153345,-0.050635,-0.030438,0.022646
1.48E+09,-0.580144,-0.336244,-0.125875,-0.029518,-0.015738,-0.025012
1.48E+09,-0.629515,-0.463951,-0.121979,-0.028995,-0.004499,-0.032636
1.48E+09,-0.658945,-0.562994,-0.129322,-0.059365,-0.014782,-0.020607
1.48E+09,-0.724147,-0.622384,-0.172186,-0.107986,-0.034779,-0.009842
1.48E+09,-0.77978,-0.765603,-0.239253,-0.125069,-0.042109,-0.018249
1.48E+09,-0.773609,-0.899727,-0.314167,-0.096374,-0.051524,-0.021928
1.48E+09,-0.773035,-0.970972,-0.370599,-0.077769,-0.068902,-0.025524
1.48E+09,-0.796611,-1.018101,-0.37137,-0.058871,-0.075481,-0.025252
1.48E+09,-0.804116,-0.888183,-0.38471,-0.048094,-0.087026,-0.019487
1.48E+09,-0.855323,-0.806054,-0.335325,-0.03581,-0.056367,0.006755
1.48E+09,-0.954329,-0.741814,-0.251987,0.029408,-0.070329,0.125155
1.48E+09,-0.935663,-0.700296,-0.176378,0.062996,-0.09258,0.224418
1.48E+09,-0.78075,-0.504294,-0.138204,0.036186,-0.071794,0.253905
1.48E+09,-0.748047,-0.337835,-0.057143,-0.03451,-0.052322,0.158319
1.48E+09,-0.742078,-0.435718,-0.030875,-0.032068,-0.117338,0.071245
1.48E+09,-0.851787,-0.584308,0.05958,-0.078997,-0.133034,-0.048894
1.48E+09,-0.960779,-0.82602,0.048596,-0.127667,-0.165513,-0.144307
1.48E+09,-0.993861,-0.94462,0.010874,-0.12441,-0.182423,-0.086597
1.48E+09,-0.925987,-0.914098,-0.040173,-0.11431,-0.215875,-0.005718
1.48E+09,-0.818326,-0.943313,-0.018502,-0.097697,-0.243177,0.028346
1.48E+09,-0.6558,-1.028174,0.041694,-0.031325,-0.213337,0.112438
1.48E+09,-0.534753,-1.137881,0.085766,-0.00239,-0.121731,0.090312
1.48E+09,-0.47596,-1.224663,0.007134,-0.079759,-0.023312,-0.008623
1.48E+09,-0.464702,-1.23552,-0.162998,-0.199151,0.016471,-0.052897
1.48E+09,-0.503529,-1.149358,-0.288885,-0.216319,0.0236,-0.075131
1.48E+09,-0.609126,-1.219629,-0.389792,-0.111536,-0.04513,-0.03566
1.48E+09,-0.695933,-1.26316,-0.422198,0.018308,-0.100167,-0.066621
1.48E+09,-0.785723,-1.101114,-0.345284,0.135396,-0.173831,-0.057172
1.48E+09,-0.797939,-0.846491,-0.192773,0.233966,-0.256821,0.049818
1.48E+09,-0.695918,-0.643614,0.01866,0.391861,-0.293149,0.198261
1.48E+09,-0.690465,-0.527382,0.170083,0.5259,-0.236077,0.168922
1.48E+09,-0.770905,-0.137962,0.273955,0.184776,-0.014729,0.235271
1.48E+09,-0.859731,0.481388,0.38241,-3.08E-04,0.003262,0.287586
1.48E+09,-0.957842,0.585285,0.456507,-0.044334,-0.034133,0.066166
1.48E+09,-0.954686,0.373929,0.445403,-0.047595,-0.031974,0.057139
1.48E+09,-0.931287,0.152008,0.382032,-0.026045,-0.085103,-0.191072
1.48E+09,-0.862662,-0.041261,0.326188,-0.037164,-0.190017,-0.309229
1.48E+09,-0.701463,-0.263138,0.355564,-0.047586,-0.278409,-0.191374
1.48E+09,-0.591574,-0.127362,0.318064,-0.03163,-0.290934,0.062604
1.48E+09,-0.53622,0.155099,0.152203,-0.207927,-0.183456,0.212124
1.48E+09,-0.52592,0.26106,0.059806,-0.359545,-0.076424,0.178574
1.48E+09,-0.61218,0.147624,-0.04132,-0.438865,-0.045298,0.017746
1.48E+09,-0.661581,0.016623,-0.086428,-0.425406,-0.078251,-0.158573
1.48E+09,-0.806398,-0.180421,-0.140382,-0.344033,-0.198855,-0.422922
1.48E+09,-1.016283,-0.450532,-0.228384,-0.188606,-0.340555,-0.463248
1.48E+09,-1.211553,-0.657665,-0.295161,-0.046703,-0.437864,-0.299847
1.48E+09,-1.385498,-0.700662,-0.306759,0.053323,-0.500531,-0.008064
1.48E+09,-1.641405,-0.487669,-0.376598,0.054518,-0.493728,-0.023864
1.48E+09,-2.04875,-0.434853,-0.477807,0.018612,-0.44523,-0.005275
1.48E+09,-2.615867,-0.741205,-0.629224,-0.080846,-0.287743,-0.046464
1.48E+09,-3.203611,-1.28141,-0.78067,-0.190102,-0.079234,-0.016162
1.48E+09,-3.619339,-1.969998,-0.811841,-0.256588,0.202516,0.10535
1.48E+09,-3.778645,-2.911008,-0.643723,-0.283344,0.520274,0.128915
1.48E+09,-3.24861,-3.413715,-0.631265,-0.319066,0.674198,-0.016364
1.48E+09,-2.571686,-1.595525,-1.790334,-0.475256,0.473759,-0.164369
1.48E+09,-2.640175,-1.007142,-1.807387,0.252124,1.68356,0.698153
1.48E+09,-2.448392,-0.411829,-1.727589,1.02945,2.969482,0.680736
1.48E+09,-1.955264,-0.46575,-1.726919,0.667293,2.574995,0.29624
1.48E+09,-1.885682,-0.216872,-0.838484,0.26792,1.084738,-0.490971
1.48E+09,-1.943708,-0.674316,-0.018461,0.527158,0.055453,-0.697771
1.48E+09,-1.775731,-0.627791,0.302056,-0.007819,-0.651444,-0.615048
1.48E+09,-1.515033,-0.086721,0.556695,-0.318244,-0.715188,-0.111244
1.48E+09,-1.13276,0.119968,0.662973,-0.009043,-0.619307,0.456058
1.48E+09,-0.739221,-0.266564,0.440926,-0.041557,-0.487331,0.171778
1.48E+09,-0.089096,0.381563,-0.278104,0.171801,-0.012798,0.163815
1.48E+09,0.401351,0.971552,-0.816944,0.5034,0.39799,0.200039
1.48E+09,0.577456,0.922588,-0.751026,0.436736,0.30264,0.181995
1.48E+09,0.924562,0.969381,-0.626612,0.297027,-0.029957,0.047407
1.48E+09,1.312385,0.846781,-0.476675,0.213319,-0.034637,-0.218356
1.48E+09,1.483046,0.438104,-0.287024,0.159961,-0.020839,-0.417344
1.48E+09,1.52337,0.348104,8.41E-04,0.111725,-0.11916,-0.518707
1.48E+09,1.526624,0.740543,0.391634,0.158659,-0.339065,-0.415736
1.48E+09,1.447925,0.976626,0.787563,0.223578,-0.582505,-0.304496
1.48E+09,1.408414,1.206922,1.164532,0.235035,-0.727423,-0.249535
1.48E+09,1.436621,1.340635,1.458257,0.259791,-0.805992,-0.183247
1.48E+09,1.551105,1.145121,1.699916,0.292205,-0.817418,-0.140026
1.48E+09,1.63257,0.976175,1.993387,0.330857,-0.800327,-0.207809
1.48E+09,1.632228,1.177517,2.166593,0.371485,-0.772532,-0.251248
1.48E+09,1.749875,1.555604,1.997564,0.06247,-0.585782,-0.364209
1.48E+09,1.830735,1.762135,1.470322,-0.238588,-0.332961,-0.431252
1.48E+09,1.70788,1.298895,0.885218,-0.397269,-0.049095,-0.484415
1.48E+09,1.767476,0.503514,0.36845,-0.466595,0.188108,-0.450138
1.48E+09,2.126677,0.273193,0.075816,-0.531323,0.219148,-0.338643
1.48E+09,2.575628,0.615953,-0.066983,-0.39921,0.047469,-0.242957
1.48E+09,2.92118,1.088553,-0.136201,-0.141411,-0.165257,-0.193703
1.48E+09,3.100987,1.600376,-0.136113,0.12062,-0.373799,-0.132101
1.48E+09,2.979248,1.947469,-0.028443,0.300397,-0.508612,-0.03886
1.48E+09,2.638121,1.959944,0.008121,0.414062,-0.382721,0.152052
1.48E+09,2.472749,1.811586,0.03154,0.312203,-0.022123,0.26238
1.48E+09,2.278412,1.633384,-0.092129,0.281702,0.356965,0.312178
1.48E+09,1.797527,1.323009,6.05E-04,0.157053,0.5384,0.494363
1.48E+09,1.181519,1.038401,0.312941,-0.028416,0.467243,0.712064
1.48E+09,0.680548,0.587344,0.502197,-0.103298,0.248126,0.713793
1.48E+09,0.629813,0.194749,0.533847,-0.180736,-0.005826,0.385568
1.48E+09,0.828487,-0.146474,0.371998,0.019894,-0.248525,-0.248208
1.48E+09,1.041299,-0.235299,0.206093,0.18293,-0.066724,-0.099713
1.48E+09,1.024533,-0.198231,0.197866,0.404293,-0.00233,0.065701
1.48E+09,0.70529,-0.084622,0.282097,0.595408,-0.023583,0.207548
1.48E+09,0.29439,0.23452,0.272004,0.545703,-0.145043,0.299462
1.48E+09,-0.076113,0.683332,0.165869,0.384191,-0.207618,0.362082
1.48E+09,-0.299638,1.085824,0.084713,0.288721,-0.218645,0.290193
1.48E+09,-0.476998,1.275656,0.031116,0.303399,-0.358561,0.078048
1.48E+09,-0.12652,0.902412,-0.184417,0.344828,-0.473895,-0.041395
1.48E+09,-0.603549,0.027947,-0.068615,0.405712,-0.477617,-0.205413
1.48E+09,1.098815,-4.249239,1.091498,0.8218,0.106819,0.522239
1.48E+09,-3.610437,-5.726364,0.435221,0.035146,2.978422,-0.526652
1.48E+09,-3.857112,1.130875,-0.901963,-1.843406,4.140391,1.741746
1.48E+09,-3.310591,3.002558,-0.877837,-3.709065,3.688164,2.741872
1.48E+09,-2.543581,-1.875805,-0.509688,-0.70824,0.868615,-1.170582
1.48E+09,-1.787905,-3.301339,0.57145,2.043595,-0.285594,-1.973808
1.48E+09,-1.433273,-0.210923,0.385812,0.249098,-1.229295,0.009535
1.48E+09,-0.295845,1.711281,-0.461751,-0.825454,-1.330852,-0.201245
1.48E+09,0.144438,1.634754,-0.457783,-0.478851,-1.025981,-0.423901
1.48E+09,0.28876,0.818232,-0.024922,0.039763,-0.266295,-0.171175
1.48E+09,0.515702,0.477549,0.20732,0.041804,0.410373,-0.020412
1.48E+09,0.375867,0.435887,0.208458,-0.189856,0.996102,0.081008
1.48E+09,0.322039,0.090024,0.122761,-0.549707,1.092248,-0.066131
1.48E+09,0.403162,0.185355,0.021754,-0.74994,0.483343,-0.032372
1.48E+09,0.38619,0.524231,0.005977,-0.674373,-0.046868,0.198158
1.48E+09,0.456528,0.290791,0.021971,-0.423068,-0.177957,0.340054
1.48E+09,0.651054,-0.115708,0.117493,-0.055898,-0.186717,0.213567
1.48E+09,0.818155,-0.142723,0.213571,0.12257,-0.251713,0.131507
1.48E+09,0.954756,-0.300315,0.228015,0.113446,-0.362228,0.104552
1.48E+09,0.953708,-0.603357,0.234342,-0.001294,-0.389677,-0.087202
1.48E+09,0.829624,-0.57189,0.227114,-0.096164,-0.366683,-0.135318
1.48E+09,0.652867,-0.165739,0.185804,-0.202273,-0.358525,0.029369
1.48E+09,0.470913,0.121255,0.191823,-0.058467,-0.20839,0.17335
1.48E+09,0.259302,0.054433,0.192349,-0.060098,-0.209662,0.176545
1.48E+09,0.097003,-0.424714,0.288852,0.195915,-0.22342,0.061425
1.48E+09,-0.020328,-0.984188,0.410663,0.162627,-0.253911,-0.008407
1.48E+09,0.026174,-0.811203,0.461151,0.028045,-0.238232,0.074647
1.48E+09,0.02692,-0.191761,0.476461,-0.109481,-0.269696,0.239776
1.48E+09,-0.168261,0.168877,0.538689,-0.188371,-0.315491,0.195412
1.48E+09,-0.259261,0.17335,0.529941,-0.12104,-0.345221,0.031518
1.48E+09,-0.188668,0.172363,0.404652,0.010656,-0.353923,-0.141327
1.48E+09,-0.029071,0.098264,0.214428,0.119733,-0.313108,-0.185825
1.48E+09,0.189047,0.103346,-0.084217,0.160164,-0.245359,-0.101917
1.48E+09,0.447632,0.380896,-0.401594,0.136208,-0.21307,0.059674
1.48E+09,0.608736,0.555628,-0.621753,-0.001761,-0.171968,0.155898
1.48E+09,0.62177,0.353965,-0.748165,-0.164011,-0.11809,0.101311
1.48E+09,0.535321,-0.013314,-0.810668,-0.25579,-0.060176,-0.020352
1.48E+09,0.364269,-0.234523,-0.804498,-0.381146,-0.043622,-0.266332
1.48E+09,0.055183,-0.123525,-0.696773,-0.360769,-0.13998,-0.318218
1.48E+09,-0.306009,0.03114,-0.525536,-0.269058,-0.28425,-0.357399
1.48E+09,-0.841758,-0.201483,-0.307356,-0.151683,-0.416433,-0.389139
1.48E+09,-1.664895,-0.645867,-0.113052,-0.016992,-0.500887,-0.287542
1.48E+09,-2.697814,-1.238735,-0.05786,0.093383,-0.417063,-0.097847
1.48E+09,-3.724825,-1.817267,-0.230945,0.17808,-0.109663,0.099949
1.48E+09,-4.305002,-2.362011,-0.425131,0.166119,0.31819,0.308797
1.48E+09,-4.390005,-2.757241,-0.544785,0.101246,0.654328,0.384259
1.48E+09,-4.242659,-2.726728,-0.684215,0.007551,0.79925,0.299473
1.48E+09,-4.108971,-2.71646,-0.779348,-0.086773,0.688191,0.15165
1.48E+09,-4.147279,-3.46989,-0.478966,-0.15647,0.479599,-0.192092
1.48E+09,-4.413089,-4.009506,0.258498,-0.302842,0.326147,-0.69121
1.48E+09,-3.30532,-2.035874,0.3258,-0.511997,0.270195,-0.687935
1.48E+09,-2.0109,1.106633,-0.522926,-0.476054,0.343068,0.136554
1.48E+09,-1.88405,0.905934,-0.536104,-0.011736,0.887709,1.213692
1.48E+09,-1.957863,-0.716787,-0.562515,0.225976,0.474125,-0.115352
1.48E+09,-1.936972,-1.048334,-0.387366,0.089345,-0.17459,-0.563861
1.48E+09,-1.665743,-0.419105,-0.167178,0.041582,-0.485405,-0.416403
1.48E+09,-0.951105,0.568847,-0.372224,0.150411,-0.341442,-0.221493
1.48E+09,-0.173927,1.624041,-0.587314,0.363405,-0.034602,0.144714
1.48E+09,0.552773,2.392125,-0.814229,0.362009,-0.187185,0.256906
1.48E+09,0.96186,2.69611,-0.7877,0.290846,-0.235542,0.16225
1.48E+09,1.365225,2.381299,-0.710334,0.287064,-0.087754,-0.029082
1.48E+09,1.721676,1.811132,-0.594994,0.18364,0.135086,-0.139507
1.48E+09,1.977964,1.155437,-0.38154,-0.037909,0.282184,-0.14448
1.48E+09,2.308804,0.905314,-0.254802,-0.251482,0.168726,-0.187775
1.48E+09,2.688368,0.877891,0.040583,-0.16442,-0.080927,-0.243973
1.48E+09,2.970551,1.148812,0.376132,0.106463,-0.292705,-0.18256
1.48E+09,3.254025,1.265833,0.632125,0.320889,-0.527989,-0.03815
1.48E+09,3.50028,1.325865,1.019773,0.381761,-0.644937,0.001389
1.48E+09,3.701135,1.533051,1.522021,0.376882,-0.782944,0.036855
1.48E+09,3.894987,1.794731,1.863809,0.259269,-1.166559,-0.151856
1.48E+09,4.109626,1.949168,1.887604,0.113538,-1.116076,-0.306689
1.48E+09,4.365561,1.957311,1.546527,-0.098259,-0.942455,-0.364209
1.48E+09,4.544496,1.823739,1.237393,-0.288525,-0.766569,-0.330375
1.48E+09,4.612552,1.720309,1.378711,-0.386394,-0.581332,-0.224729
1.48E+09,4.195284,1.387526,1.680012,-0.354045,-0.189492,-0.19889
1.48E+09,3.299157,0.600897,1.639881,-0.353696,0.279132,-0.200165
1.48E+09,2.73419,-0.296941,0.949028,-0.391967,0.736616,-0.241646
1.48E+09,2.503201,-1.154153,-0.066378,-0.419241,0.91083,-0.325662
1.48E+09,2.282633,-1.555671,-0.561951,-0.314655,0.776437,-0.365619
1.48E+09,1.896687,-1.067839,-0.613777,-0.092806,0.28042,-0.088764
1.48E+09,1.352147,-0.213052,-0.593142,0.043684,-0.165956,0.275687
1.48E+09,0.740306,0.987184,-0.378172,0.165329,-0.471077,0.544622
1.48E+09,0.181352,1.679829,0.086516,0.370998,-0.710017,0.654124
1.48E+09,-0.353987,0.749246,0.653759,0.660208,-0.878339,0.514123
1.48E+09,-0.751842,-1.15405,1.109403,1.31,-0.535046,-0.215971
1.48E+09,-0.898288,-2.696244,1.160304,1.437079,-0.043714,-0.383715
1.48E+09,-1.05077,-2.411735,0.459127,1.375025,0.433019,-0.295274
1.48E+09,-1.062279,-1.047071,0.085158,0.947457,0.547039,0.179553
1.48E+09,-1.346193,0.431977,-0.116838,0.116284,0.408213,0.89004
1.48E+09,-1.275159,2.593236,-0.454003,-0.379449,1.13852,1.484009
1.48E+09,-1.49645,4.600234,-1.328745,-0.918347,2.581966,1.503967
1.48E+09,-3.129312,4.085145,-2.706213,-1.723094,3.86534,0.785771
1.48E+09,-2.586928,4.520679,-2.201663,-1.1488,-0.159198,-1.298467
1.48E+09,-2.4558,3.024014,-1.051073,0.171208,-1.266408,-1.265915
1.48E+09,-1.553334,-2.779101,-0.034962,0.170656,-1.261209,-1.287825
1.48E+09,0.314288,-5.864786,0.442686,0.656951,-1.572625,-0.885972
1.48E+09,0.682621,-5.217658,0.662747,0.377196,-2.051165,-0.915888
1.48E+09,0.823623,-2.942728,0.53317,-0.481832,-2.193444,-0.020461
1.48E+09,0.776726,-2.027681,-0.074105,-1.031047,-1.488879,-0.33053
1.48E+09,0.363256,-1.026942,-0.25518,-1.20407,-0.631511,-1.104015
1.48E+09,0.580697,-0.570316,0.156019,-0.819794,0.240631,0.022943
1.48E+09,1.159416,-1.233244,0.576615,-0.318251,1.145888,0.836467
1.48E+09,1.476346,-1.968975,0.208503,0.253949,1.687746,0.869191
1.48E+09,1.387599,-0.888886,-0.349424,0.546848,1.600483,0.789499
1.48E+09,1.17158,0.529677,-0.224408,0.977393,0.705509,0.751362
1.48E+09,0.435354,1.134394,0.274771,0.957425,-0.21158,0.491163
1.48E+09,-0.239077,1.447791,0.609284,0.592423,-0.79329,0.17696
1.48E+09,-0.901486,1.426273,1.072269,0.212898,-0.911845,0.334506
1.48E+09,-1.743751,1.245015,0.994487,-0.552184,-0.460512,0.382271
1.48E+09,-2.502074,0.240654,0.478025,-0.609778,-0.07397,0.162638
1.48E+09,-3.290888,-0.58573,0.097933,-0.590474,0.30609,0.149007
1.48E+09,-4.085423,-1.148141,0.084919,-0.468579,0.457432,0.317003
1.48E+09,-4.819526,-1.24424,0.250099,-0.128105,0.481068,0.260761
1.48E+09,-5.171062,-1.238,-0.006504,0.323449,0.395568,0.165082
1.48E+09,-4.920813,-1.702156,-0.218271,0.473012,0.213289,-0.205695
1.48E+09,-4.407766,-2.301446,-0.349149,0.47907,0.038447,-0.7024
1.48E+09,-3.876659,-3.523809,-0.637272,0.370174,-0.193951,-1.01044
1.48E+09,-4.389815,-4.197805,-0.708127,-0.198279,-0.538262,-1.075261
1.48E+09,-5.014259,-3.212157,0.011904,-0.370297,-0.604875,-0.170174
1.48E+09,-3.862469,-1.559614,-0.379565,-0.683946,-0.295087,0.763735
1.48E+09,-2.451607,0.814516,-0.513334,-1.124116,1.135268,0.916396
1.48E+09,-2.365354,-0.5464,-0.966206,-0.145232,3.541216,0.447125
1.48E+09,-2.227626,-2.919369,-1.911456,-0.609931,4.424649,-0.329425
1.48E+09,-1.98362,-3.232636,-1.983591,-0.183512,1.887495,-0.225247
1.48E+09,-1.402125,-1.76698,-2.179,0.611278,-0.481155,-0.085912
1.48E+09,-0.585236,-0.180574,-2.15474,0.62302,-0.474074,-0.091729
1.48E+09,0.632613,0.653488,-2.083783,0.755157,-0.896503,-0.257719
1.48E+09,1.829588,1.416002,-2.048713,0.624796,-1.040353,-0.233869
1.48E+09,2.759008,2.230226,-2.468488,0.027916,-0.90039,-0.153687
1.48E+09,3.323944,2.467968,-2.540385,-0.448187,-0.56205,-0.024536
1.48E+09,3.538218,2.259053,-2.397629,-0.372195,-0.212319,-0.101525
1.48E+09,3.618663,1.498062,-2.14201,-0.105136,0.030742,-0.220065
1.48E+09,3.63207,0.676671,-1.373682,-0.033052,0.190324,-0.426497
1.48E+09,3.725273,0.412193,-0.451711,0.091269,0.417241,-0.435214
1.48E+09,4.044886,0.331107,0.00438,0.260344,0.587454,-0.252398
1.48E+09,4.586148,0.12985,0.059744,0.441246,0.624568,-0.20077
1.48E+09,4.290739,-0.132691,0.330957,0.56037,0.251386,-0.323152
1.48E+09,3.777446,-0.372738,1.295271,0.656123,-0.340936,-0.32686
1.48E+09,2.916546,-0.508417,1.808828,0.696373,-0.76763,0.141148
1.48E+09,3.039377,-2.878576,2.126563,0.771972,-0.806585,0.030241
1.48E+09,1.400377,-5.08366,1.850682,-0.375682,0.963772,-0.739255
1.48E+09,-0.804032,-6.649944,1.530099,-0.948532,2.512603,0.292409
1.48E+09,-0.716846,-3.600561,1.326575,-1.355691,3.374577,2.15485
1.48E+09,1.209872,0.451646,1.568071,-0.691605,1.948383,1.846923
1.48E+09,3.142494,3.600434,2.037079,0.309102,0.370044,0.617296
1.48E+09,2.995001,5.199012,2.711949,0.716167,-0.750998,-0.244435
1.48E+09,1.366269,5.248837,2.679009,0.898872,-1.297872,-0.233604
1.48E+09,-0.180656,2.894931,2.22668,1.048735,-1.202275,-0.436753
1.48E+09,-0.762125,-1.215802,2.551365,1.077946,-0.977544,-0.866388
1.48E+09,-0.393549,-3.552892,2.643969,0.924137,-0.796128,-0.778681
1.48E+09,0.484311,-3.382138,1.797696,0.284761,-0.564665,-0.274222
1.48E+09,1.608769,-2.860038,0.673099,-0.52185,0.035922,-0.187063
1.48E+09,2.153346,-2.637747,0.366915,-1.053334,0.55951,-0.540683
1.48E+09,2.157982,-1.646232,0.112313,-1.102824,0.439002,-0.384569
1.48E+09,1.959186,-0.550641,-0.45605,-1.097045,0.212018,-0.140218
1.48E+09,1.740643,0.1109,-0.748777,-0.826033,0.184254,-0.013267
1.48E+09,1.610644,0.371511,-0.802885,-0.407066,0.096712,0.004925
1.48E+09,1.661078,0.26175,-0.656809,-0.126829,0.057278,0.038542
1.48E+09,1.678284,0.044813,-0.582991,0.057973,0.088243,-0.001461
1.48E+09,1.562242,-0.245781,-0.522117,0.101998,0.138749,0.029699
1.48E+09,1.558343,-0.358076,-0.407444,0.033541,0.125249,0.079839
1.48E+09,1.567623,-0.389972,-0.285353,-0.004138,0.060885,0.132506
1.48E+09,1.469861,-0.320943,-0.182455,-0.040434,0.116352,0.15479
1.48E+09,1.074765,-0.727982,0.14127,-0.074625,0.115085,0.166363
1.48E+09,0.937041,-1.412174,0.226871,0.130647,-0.141452,-0.289384
1.48E+09,1.122064,-2.429405,0.440493,0.180264,-0.347774,-0.675798
1.48E+09,1.260232,-2.747351,0.55333,0.235762,-0.468365,-0.679604
1.48E+09,1.476207,-2.459442,0.588381,0.12942,-0.399098,-0.554001
1.48E+09,1.689048,-1.83802,0.520868,0.076541,-0.067399,-0.479789
1.48E+09,1.768733,-1.315302,0.331679,0.017882,0.137076,-0.337176
1.48E+09,1.406834,-0.563259,0.202152,0.049927,-0.055893,-0.085492
1.48E+09,1.048065,-0.022394,0.040668,0.145094,0.047278,0.140657
1.48E+09,0.776668,0.229919,-0.010435,0.187895,0.163475,0.24275
1.48E+09,0.350425,0.285794,-0.048193,0.247104,0.354041,0.381645
1.48E+09,-0.011558,0.220797,-0.078077,0.249449,0.544215,0.538868
1.48E+09,-0.279744,0.126295,-0.061957,0.147723,0.553686,0.52165
1.48E+09,-0.443374,0.069193,-0.006938,0.028548,0.389302,0.388782
1.48E+09,-0.486371,0.079738,0.031509,-0.085548,0.245906,0.243672
1.48E+09,-0.429123,0.16364,-0.051253,-0.186419,0.132474,0.103284
1.48E+09,-0.283815,0.158376,-0.056425,-0.221286,-0.033147,-0.19802
1.48E+09,-0.089127,-0.003425,-0.087677,-0.137738,-0.022173,-0.345534
1.48E+09,0.103009,-0.299008,-0.094631,-0.089874,-0.097695,-0.419772
1.48E+09,0.161907,-0.5239,-0.074041,-0.031004,-0.128741,-0.357825
1.48E+09,0.218565,-0.646999,-0.10058,-0.02853,-0.098523,-0.254261
1.48E+09,0.224907,-0.654113,-0.132256,-0.035643,-0.074845,-0.168908
1.48E+09,0.223881,-0.543843,-0.157435,-0.046661,-0.054297,-0.103485
1.48E+09,0.225969,-0.360477,-0.196067,-0.061414,-0.032777,-0.071671
1.48E+09,0.225805,-0.204522,-0.212193,-0.05874,-0.02434,-0.067237
1.48E+09,0.234653,-0.065913,-0.218085,-0.038214,-0.060405,-0.07885
1.48E+09,0.251272,0.051695,-0.221057,-0.022449,-0.059689,-0.08167
1.48E+09,0.28123,0.094943,-0.195599,-0.006454,-0.03053,-0.085946
1.48E+09,0.272934,0.037791,-0.170225,0.03269,-0.007726,-0.08362
1.48E+09,0.229898,-0.087664,-0.135614,0.073564,0.026033,-0.055433
1.48E+09,0.165536,-0.228181,-0.090019,0.113512,0.04969,-0.025876
1.48E+09,0.094523,-0.329304,-0.028015,0.12265,0.089135,0.016531
1.48E+09,0.042672,-0.318728,4.93E-04,0.052816,0.066283,0.027072
1.48E+09,-0.020388,-0.189284,0.00353,-0.004965,0.027735,0.032204
1.48E+09,-0.035901,-0.011219,-0.005832,-0.018008,-0.001674,0.013436
1.48E+09,-0.029814,0.152183,-0.020767,-0.022076,-8.79E-04,-0.010582
1.48E+09,-0.028673,0.300891,-0.056375,-0.023356,2.19E-04,-0.035727
1.48E+09,-0.019501,0.401306,-0.078788,-0.016929,-4.93E-04,-0.066761
1.48E+09,0.009188,0.436429,-0.116987,-0.013688,0.002103,-0.089394
1.48E+09,0.028952,0.345092,-0.123745,0.007164,0.013226,-0.097518
1.48E+09,0.043084,0.188741,-0.050994,0.037765,0.019851,-0.09257
1.48E+09,0.037168,0.014915,0.026669,0.034701,-0.007067,-0.069223
1.48E+09,0.027305,-0.142773,0.09419,-0.004673,-0.029534,-0.047145
1.48E+09,-0.010283,-0.171754,0.13093,-0.028696,-0.06607,-0.034515
1.48E+09,-0.020765,-0.125128,0.166786,-0.055363,-0.121829,-0.019284
1.48E+09,0.034581,-0.100013,0.161028,-0.060829,-0.109253,-0.030893
1.48E+09,0.10135,-0.089152,0.094354,-0.041324,0.008927,-0.050248
1.48E+09,0.155064,-0.030215,0.036491,-0.015471,0.170434,0.017667
1.48E+09,0.209053,0.004818,0.026867,-0.005578,0.092132,0.049486
1.48E+09,0.248583,-0.040441,-0.003686,-0.015683,0.047968,0.064412
1.48E+09,0.260795,-0.143595,-0.07664,-0.022564,0.079818,0.048796
1.48E+09,0.18533,-0.328987,-0.142069,-0.017769,0.051247,0.02316
1.48E+09,0.092145,-0.493278,-0.084224,-0.015173,-0.014212,0.024547
1.48E+09,0.047167,-0.410551,-0.100988,-0.033704,0.188099,-0.003314
1.48E+09,0.109018,-0.265496,-0.100091,-0.059913,0.173662,-0.007876
1.48E+09,0.170882,-0.128673,-0.149339,-0.044063,0.042528,-0.015545
1.48E+09,0.147631,0.06319,-0.187254,-0.033885,-0.020194,0.011551
1.48E+09,0.115903,0.209536,-0.258873,-0.01091,-0.043526,0.026201
1.48E+09,0.08279,0.24603,-0.210909,-3.30E-05,-0.047518,0.016835
1.48E+09,0.050621,0.18326,-0.123235,0.045102,-0.09834,-0.002245
1.48E+09,0.023583,0.10837,-0.061039,0.081367,-0.115922,-0.017577
1.48E+09,0.108423,0.074915,-0.138969,0.089547,-0.174564,-0.017989
1.48E+09,0.260943,0.100012,-0.219363,0.066969,-0.088465,-0.026026
1.48E+09,0.341696,0.111537,-0.20858,0.055965,-0.038489,0.004935
1.48E+09,0.215226,0.139706,-0.121335,0.05077,-0.051232,4.99E-04
1.48E+09,0.1232,0.130993,-0.034212,0.004023,0.016675,-0.071574
1.48E+09,0.086476,0.152332,0.048297,-0.033102,-0.03808,-0.100209
1.48E+09,0.036413,0.252698,0.135411,-0.04713,-0.077323,-0.033381
1.48E+09,-0.048634,0.308457,0.208055,-0.044583,-0.134792,0.018149
1.48E+09,-0.116436,0.265827,0.228646,-0.04743,-0.125418,0.022309
1.48E+09,-0.118387,0.187589,0.120773,-0.040326,-0.053852,0.01406
1.48E+09,-0.010286,0.09033,1.03E-04,-0.035138,0.093983,-0.00279
1.48E+09,0.191839,-0.051877,-0.003163,-0.012031,0.135634,-0.004424
1.48E+09,0.326376,0.007652,-0.07336,-0.00947,0.101686,-0.008549
1.48E+09,0.345009,0.042403,-0.074905,-0.019601,0.04384,0.027704
1.48E+09,0.309452,-0.070678,-0.035492,-0.030857,9.94E-04,-0.024325
1.48E+09,0.367441,-0.188386,0.032334,-0.063979,-0.044513,-0.097469
1.48E+09,0.443188,-0.308807,0.140935,-0.116227,-0.113845,-0.105238
1.48E+09,0.460422,-0.386168,0.234474,-0.169492,-0.21751,-0.053179
1.48E+09,0.515194,-0.427233,0.303412,-0.170279,-0.104764,-0.021909
1.48E+09,0.521377,-0.412365,0.304477,-0.146508,-0.01931,0.008152
1.48E+09,0.442016,-0.301258,0.270794,-0.117674,0.073912,0.053928
1.48E+09,0.345811,-0.142097,0.245869,-0.055501,0.145345,0.085585
1.48E+09,0.25798,0.060902,0.161455,0.013661,0.218294,0.106344
1.48E+09,0.177237,0.173934,0.045547,0.090451,0.239281,0.105865
1.48E+09,0.090871,0.209095,-0.078939,0.156289,0.210684,0.085952
1.48E+09,-0.067596,0.143147,0.002059,0.148634,-0.035514,0.030404
1.48E+09,-0.186355,0.024967,0.145835,0.074085,-0.297105,-0.060147
1.48E+09,-0.203214,-0.053833,0.238906,0.098164,-0.234259,-0.091442
1.48E+09,-0.182424,-0.114524,0.264759,0.149207,-0.010065,-0.086907
1.48E+09,-0.161949,-0.147558,0.237404,0.188662,0.109511,-0.06397
1.48E+09,-0.197744,-0.224215,0.355921,0.138081,0.015199,-0.055203
1.48E+09,-0.322381,-0.11931,0.438202,0.125282,-0.001649,-0.066095
1.48E+09,-0.401698,-0.008494,0.438866,0.095107,0.063793,-0.050902
1.48E+09,-0.428143,-0.012663,0.474121,0.004865,0.031576,-0.084599
1.48E+09,-0.388754,-0.026742,0.558326,-0.03982,-0.08789,-0.073596
1.48E+09,-0.230567,-0.19775,0.56595,-0.045976,-0.0136,-0.059095
1.48E+09,-0.229636,-0.306243,0.527322,-0.052599,0.10121,0.004769
1.48E+09,-0.239936,-0.154796,0.452256,-0.152921,-0.053704,0.057698
1.48E+09,-0.212524,0.010852,0.333342,-0.171646,-0.086808,0.034053
1.48E+09,-0.208824,-0.12946,0.257271,-0.185932,-0.014147,0.004599
1.48E+09,-0.226263,-0.032144,0.143769,-0.112498,0.018674,-0.00611
1.48E+09,-0.278607,0.018892,0.067338,-0.027523,0.150203,0.01612
1.48E+09,-0.220429,-0.137303,0.007039,-0.019742,0.135788,0.01085
1.48E+09,-0.195958,-0.189116,0.009493,0.013886,0.14239,-0.007067
1.48E+09,-0.216589,-0.262232,0.15883,-0.002831,0.088518,0.009678
1.48E+09,-0.382005,-0.269383,0.155337,-0.065501,-0.065851,-0.005168
1.48E+09,-0.403552,0.009319,0.086545,-0.052508,0.108561,0.004875
1.48E+09,-0.338108,0.189431,0.185019,-0.029368,0.099176,-0.022853
1.48E+09,-0.378841,0.219166,0.149588,0.014716,0.102512,-0.057205
1.48E+09,-0.382382,0.329348,0.132959,0.066484,-0.021932,-0.041659
1.48E+09,-0.331428,0.282629,0.136936,0.08727,0.017219,-0.091022
1.48E+09,-0.264428,0.268702,0.076816,0.081329,0.048047,-0.065801
1.48E+09,-0.133538,0.172398,0.005518,0.104731,0.084479,-0.072373
1.48E+09,-0.024877,0.028423,-0.001522,0.056342,0.017425,-0.071442
1.48E+09,-0.108235,0.180436,0.096505,0.01744,-0.05736,-0.033871
1.48E+09,-0.141534,0.249564,0.233446,-0.039946,-0.056481,-0.07152
1.48E+09,-0.032262,0.206452,0.43689,-0.025814,-0.028697,-0.159335
1.48E+09,0.05959,0.107974,0.448463,-0.089837,-0.01542,-0.140788
1.48E+09,0.066318,0.054113,0.388147,-0.067787,-0.075844,-0.093215
1.48E+09,0.063153,-0.160731,0.346349,-0.026673,-0.137529,-0.087118
1.48E+09,-0.026738,-0.291514,0.24669,0.010032,-0.019416,-0.093037
1.48E+09,-0.186719,-0.224224,0.072767,0.083565,0.106525,-0.069776
1.48E+09,-0.196848,-0.104165,-0.092524,0.027663,0.034536,-0.043452
1.48E+09,-0.140187,-0.222552,-0.092147,0.014818,-0.011756,-0.064257
1.48E+09,-0.220011,-0.335565,-0.092618,0.012751,-0.050071,-0.109137
1.48E+09,-0.316312,-0.305068,-0.111694,-0.106621,-0.106519,-0.058667
1.48E+09,-0.260066,-0.353316,0.076354,-0.086724,-0.044935,-0.119442
1.48E+09,-0.260911,-0.279141,-0.067179,-0.086731,-0.044761,-0.117446
1.48E+09,-0.168281,-0.408287,0.353332,-0.139134,-0.213446,-0.164995
1.48E+09,-0.166815,-0.832358,0.488063,-0.250931,-0.472654,-0.111523
1.48E+09,-0.077891,-1.178657,0.409341,-0.141047,-0.267116,-0.202792
1.48E+09,-0.048924,-1.289749,0.55145,-0.023563,0.189626,-0.03011
1.48E+09,-0.169886,-1.015221,0.758472,-0.104233,0.177332,-0.044837
1.48E+09,-0.193476,-0.937636,0.634176,-0.039928,0.356847,0.068534
1.48E+09,0.094686,-0.580609,0.298714,-0.075851,0.378141,0.068442
1.48E+09,0.195853,-0.188266,0.18685,-0.031346,0.145526,0.107747
1.48E+09,0.031823,-0.205522,0.209302,0.04059,0.055454,0.135184
1.48E+09,-0.073847,-0.264838,0.129059,0.041185,0.012795,0.096348
1.48E+09,-0.059776,-0.08424,0.571416,0.0675,0.047756,0.053789
1.48E+09,0.416817,0.105844,1.244731,0.111132,0.016714,0.054975
1.48E+09,0.712991,0.302889,1.11445,0.245227,-0.60542,0.127444
1.48E+09,0.86492,0.83258,1.175157,0.117041,-0.430882,0.103599
1.48E+09,0.890596,1.207411,1.179011,0.051875,-0.080716,0.148262
1.48E+09,1.070093,1.17968,1.076596,0.106294,0.17213,0.235497
1.48E+09,1.253473,0.840414,0.81883,0.051868,-0.041898,0.085743
1.48E+09,1.306102,0.602379,0.780682,0.043101,-0.037878,0.096999
1.48E+09,1.071668,0.679372,0.722033,-0.097803,0.090111,0.020593
1.48E+09,0.758665,0.92511,0.68761,0.009345,0.206457,0.041468
1.48E+09,0.497997,0.952185,0.517819,-0.025948,0.318331,0.113951
1.48E+09,0.184317,0.798192,0.079272,0.063977,0.523386,0.020417
1.48E+09,-0.043683,0.410808,-0.192206,0.158067,0.462479,0.019251
1.48E+09,-0.309098,-0.004362,-0.276107,0.25575,0.366763,0.020797
1.48E+09,-0.407182,-0.20693,-0.374673,0.30895,0.262765,0.026193
1.48E+09,-0.416861,-0.404226,-0.448749,0.34922,0.395858,0.08304
1.48E+09,-0.398977,-0.577777,-0.53264,0.240389,0.434719,0.08923
1.48E+09,-0.309455,-0.578527,-0.672377,0.174162,0.454577,0.064493
1.48E+09,-0.358391,-0.629827,-0.782598,0.032521,0.474762,0.103707
1.48E+09,-0.512053,-0.689479,-0.857397,-0.043353,0.324192,0.111221
1.48E+09,-0.713601,-0.743167,-0.794398,0.021357,0.186397,0.065918
1.48E+09,-1.013004,-0.734198,-0.752267,0.022035,-0.054842,-0.049626
1.48E+09,-1.267914,-0.619648,-0.733351,0.0304,-0.058198,-0.060335
1.48E+09,-1.073197,-0.347226,-0.637023,0.014304,-0.173806,-0.085067
1.48E+09,-0.45801,0.064947,-0.680478,0.094634,-0.073169,-0.081778
1.48E+09,-0.145601,0.139827,-0.830539,0.04589,0.160824,-0.028082
1.48E+09,-0.13201,0.02774,-0.873829,-0.219189,0.024294,-0.016956
1.48E+09,-0.320537,-0.226364,-0.93849,-0.009612,-0.162905,-0.047525
1.48E+09,-0.540471,-0.348997,-0.924878,0.128687,-0.097777,-0.029798
1.48E+09,-0.622119,-0.259252,-0.920213,0.138426,-0.099989,-0.035487
1.48E+09,-0.717203,-0.086355,-0.960071,0.091158,-0.048605,-0.063896
1.48E+09,-0.770959,-0.014572,-1.004985,0.051496,-0.071423,-0.081747
1.48E+09,-0.572854,0.024035,-0.896075,0.081902,-0.091865,-0.100835
1.48E+09,0.021874,0.055681,-0.85123,0.138536,-0.089882,-0.073889
1.48E+09,0.31257,0.030655,-0.901802,0.024271,-0.024568,0.026485
1.48E+09,0.178435,0.187492,-0.971388,-0.173739,-0.057892,0.070517
1.48E+09,0.077611,0.0317,-0.900306,-0.146531,-0.185225,0.071876
1.48E+09,0.033626,-0.241393,-0.664531,-0.034876,-0.183776,-0.024202
1.48E+09,0.196927,0.177695,-0.385937,0.109529,-0.105973,-0.096499
1.48E+09,0.349442,0.787462,-0.288554,0.168833,-0.073238,-0.074372
1.48E+09,0.294622,1.135127,-0.200777,0.115942,-0.203314,-0.023233
1.48E+09,0.275565,1.159013,-0.114377,0.070301,-0.244123,0.008395
1.48E+09,0.342248,1.19488,-0.067415,0.006665,-0.124677,-0.04506
1.48E+09,0.504044,1.479257,0.053992,-0.032826,-0.079941,0.014386
1.48E+09,0.581117,1.752108,0.016158,-0.033528,0.011938,0.035759
1.48E+09,0.486117,1.620494,-0.135072,-0.049665,0.135295,0.013036
1.48E+09,0.434745,1.152812,-0.145089,-0.027387,0.325437,-0.083731
1.48E+09,-0.336634,0.770701,-0.549599,0.08623,0.381701,-0.108461
1.48E+09,0.388213,0.397713,-0.383211,-0.026007,0.336321,-0.196792
1.48E+09,0.796926,1.387713,0.26581,0.235925,0.290686,-0.10374
1.48E+09,0.7037,3.056832,0.389594,0.626256,0.393806,0.360796
1.48E+09,0.521817,2.921764,0.438307,0.547001,0.180737,0.320639
1.48E+09,0.244606,1.419188,0.24504,0.444999,0.134334,-0.06649
1.48E+09,0.188834,0.115742,-0.231703,0.243628,-0.121698,-0.341684
1.48E+09,0.686293,0.369341,-0.617588,-0.041742,-0.320009,-0.415717
1.48E+09,0.797029,1.517563,-0.755564,-0.445653,-0.081022,-0.243644
1.48E+09,0.794874,1.597851,-0.891861,-0.586021,0.358726,0.157123
1.48E+09,0.401926,0.612141,-1.014578,-0.374275,0.535,0.257183
1.48E+09,0.228377,-0.322031,-1.079807,-0.218149,0.108461,-0.193895
1.48E+09,0.64483,-0.81675,-0.923175,-0.080832,0.040257,0.088942
1.48E+09,1.218911,-0.845312,-0.647038,-0.014209,0.033732,0.14316
1.48E+09,1.744558,0.712569,-0.382437,0.011617,0.017531,0.190691
1.48E+09,2.12509,0.666121,-0.468143,0.014876,-0.067547,0.440748
1.48E+09,2.680237,-0.561015,-0.759519,-0.118596,-0.034351,0.204519
1.48E+09,2.644658,-0.301292,-1.079615,-0.047559,-0.159142,0.413035
1.48E+09,2.242151,0.322453,-1.275017,-0.269648,-0.139716,-0.213839
1.48E+09,1.919984,-0.059865,-1.043868,-0.248344,-0.176433,0.068714
1.48E+09,1.883916,-0.499312,-0.726678,-0.00404,-0.115211,0.151198
1.48E+09,1.908229,-0.491894,-0.417386,0.106467,0.188101,0.072476
1.48E+09,1.810671,-0.296073,-0.24549,0.110398,0.194634,0.09061
1.48E+09,1.83376,0.102419,-0.116974,-0.049741,0.340788,0.190186
1.48E+09,3.166877,0.202511,-0.035643,-0.201335,0.323576,0.286667
1.48E+09,4.623802,-1.029188,0.560539,-0.114526,0.235119,0.151251
1.48E+09,2.5305,1.123013,0.774846,-0.251961,0.648074,-0.68727
1.48E+09,1.022879,2.665307,0.2659,-0.119625,0.34757,1.946356
1.48E+09,0.990839,0.819839,-0.297013,-0.474367,0.094743,1.434063
1.48E+09,2.385082,-1.008031,-0.60906,-0.561322,0.163511,0.413558
1.48E+09,2.769472,-0.204717,-0.566787,-0.714585,0.569789,-1.154825
1.48E+09,2.96786,1.440461,-0.767077,-0.522505,0.473841,-0.557938
1.48E+09,3.099542,1.930694,-1.026101,-0.525022,0.357208,-0.324849
1.48E+09,3.233655,1.590005,-1.296819,-0.630617,0.296385,-0.361083
1.48E+09,3.368603,1.292849,-1.596468,-0.688049,0.367198,-0.323258
1.48E+09,3.340916,1.38522,-1.863341,-0.681034,0.426922,-0.197414
1.48E+09,3.031571,1.766938,-2.034916,-0.651243,0.488271,-0.051421
1.48E+09,2.49817,1.785907,-2.171715,-0.592259,0.444298,0.098145
1.48E+09,1.943141,1.261849,-2.308244,-0.425004,0.119149,0.092153
1.48E+09,1.438225,0.338963,-2.627417,-0.411076,0.132086,0.103631
1.48E+09,1.012847,-0.590178,-3.027509,-0.378147,0.02389,0.058954
1.48E+09,0.743767,-1.355539,-3.526226,-0.364099,-5.06E-04,0.061165
1.48E+09,0.570709,-1.711688,-4.088109,-0.343756,-0.050173,0.046966
1.48E+09,0.475338,-1.713933,-4.620504,-0.289248,-0.146146,-0.037735
1.48E+09,0.418987,-1.548519,-5.063182,-0.203391,-0.161585,-0.081034
1.48E+09,0.410777,-1.252141,-5.457089,-0.1015,-0.136339,-0.109457
1.48E+09,0.392249,-0.923012,-5.783017,-0.004038,-0.067654,-0.113446
1.48E+09,0.377309,-0.426015,-6.068801,0.088833,0.008115,-0.088985
1.48E+09,0.485377,0.294525,-6.378659,0.168819,0.080559,-0.055876
1.48E+09,0.683657,0.957446,-6.683789,0.262825,0.142181,0.005
1.48E+09,0.888461,1.464158,-6.938356,0.286631,0.180711,0.015469
1.48E+09,1.026471,1.823906,-7.11782,0.379079,0.145193,0.051889
1.48E+09,1.048869,2.147663,-7.072677,0.464408,0.159669,0.087998
1.48E+09,1.093071,2.062935,-6.674464,0.567431,0.151409,0.136839
1.48E+09,0.965741,1.803174,-6.319925,0.667824,0.141025,0.102703
1.48E+09,0.811165,1.474541,-6.02962,0.807553,0.216483,0.093538
1.48E+09,0.800184,1.176291,-5.866529,0.795968,0.18669,0.192441
1.48E+09,0.707949,1.059442,-5.715034,0.747608,0.186575,0.228608
1.48E+09,0.494453,1.083957,-5.549279,0.634502,0.207147,0.273043
1.48E+09,0.293579,1.119086,-5.313613,0.609727,0.260202,0.29503
1.48E+09,0.379541,1.294995,-4.996464,0.594564,0.274631,0.27734
1.48E+09,0.920471,3.689526,-4.653781,0.559302,0.288084,0.237616
1.48E+09,1.235059,5.423912,-4.207559,0.381485,0.489781,-0.090513
1.48E+09,1.467867,5.167679,-3.721556,0.305987,0.368543,-0.01969
1.48E+09,1.580088,4.545339,-3.314513,0.269811,0.253038,0.133646
1.48E+09,1.500026,4.233515,-2.911808,0.212458,0.305044,0.171415
1.48E+09,1.30628,3.776611,-2.543861,0.14757,0.36138,0.150668
1.48E+09,1.09785,3.25252,-2.284148,0.120875,0.283339,0.184937
1.48E+09,0.913078,2.890334,-2.142112,0.09703,0.264375,0.235536
1.48E+09,0.789176,2.490863,-2.080741,0.051408,0.298438,0.226619
1.48E+09,0.852981,2.13185,-2.136308,-0.075401,0.341338,0.129713
1.48E+09,1.033748,1.553193,-2.16563,-0.239332,0.257499,0.012636
1.48E+09,1.286226,1.029225,-2.030495,-0.352756,0.155972,-0.121583
1.48E+09,1.439613,0.869351,-1.734912,-0.31167,0.107494,-0.135414
1.48E+09,1.461237,1.039684,-1.389163,0.021129,0.071683,-0.040993
1.48E+09,1.428038,1.264217,-1.057384,0.114596,0.084703,0.033126
1.48E+09,1.40263,1.172988,-0.817052,0.156353,0.076693,0.063168
1.48E+09,1.341091,0.307326,-0.715023,0.155162,0.072398,0.048038
1.48E+09,1.237151,-1.008182,-0.386477,0.1078,0.104869,-0.139054
1.48E+09,0.872698,-1.181891,-0.139837,0.050442,0.038113,-0.177031
1.48E+09,0.254441,-0.964002,-0.023663,-0.026924,-0.054204,0.139363
1.48E+09,-0.358025,-0.401447,0.139514,0.018512,-0.010727,0.298051
1.48E+09,-0.763594,0.051013,0.307536,0.002412,-0.009211,0.384619
1.48E+09,-0.911655,0.393138,0.544914,-0.01771,-0.00785,0.328197
1.48E+09,-0.785107,0.683512,0.809206,-0.046403,0.019245,0.226649
1.48E+09,-0.338054,0.846337,0.884046,-0.087939,0.023659,0.109246
1.48E+09,0.24895,0.612174,0.91487,-0.120523,-0.015741,0.001707
1.48E+09,0.726579,0.04559,0.985293,-0.15278,-0.025696,-0.082843
1.48E+09,1.076098,-0.613805,0.972035,-0.141819,0.004102,-0.14503
1.48E+09,1.334036,-1.228862,0.769059,-0.131689,-7.41E-04,-0.180042
1.48E+09,1.510907,-1.845259,0.374835,-0.184597,-0.011714,-0.124837
1.48E+09,1.591997,-2.217878,-0.105833,-0.190162,0.015243,-0.081212
1.48E+09,1.63237,-2.134615,-0.562896,-0.169564,-5.06E-04,0.030286
1.48E+09,1.560941,-1.831221,-0.954155,-0.12495,0.021517,0.169169
1.48E+09,1.362169,-1.512635,-1.03967,-0.058686,0.057201,0.24391
1.48E+09,0.906423,-0.794863,-0.694109,0.046163,0.047063,0.268588
1.48E+09,0.343345,0.366934,-0.140511,0.168799,0.040239,0.314659
1.48E+09,-0.02937,1.013979,0.438016,0.264133,0.014894,0.340654
1.48E+09,-0.125548,0.958636,0.917105,0.251325,-0.072771,0.223524
1.48E+09,-0.111637,0.53468,0.90116,0.157178,-0.074812,0.099649
1.48E+09,-0.082042,0.151695,0.585494,-0.050184,-0.048841,0.059517
1.48E+09,-0.064725,-0.132311,0.255716,-0.171485,-0.024956,0.049458
1.48E+09,-0.039747,-0.415648,-0.001601,-0.158602,-0.027561,0.039378
1.48E+09,0.092669,-0.69066,-0.143448,-0.099375,-0.01365,-0.002042
1.48E+09,0.283307,-0.835659,-0.263347,-0.058954,-0.011221,-0.054139
1.48E+09,0.527513,-1.027933,-0.311766,-0.04438,0.008928,-0.074144
1.48E+09,0.733933,-1.211814,-0.210018,-0.023292,0.054198,-0.138066
1.48E+09,0.787473,-1.104018,-0.0504,0.04326,0.015873,-0.075809
1.48E+09,0.688965,-0.942834,0.122066,0.074909,0.005061,0.04127
1.48E+09,0.517107,-0.780347,0.234582,0.09258,0.042619,0.103247
1.48E+09,0.385384,-0.593645,0.290851,0.081113,0.049827,0.11993
1.48E+09,0.599958,-0.578534,0.265485,0.04858,0.008775,0.09347
1.48E+09,0.694025,-0.508446,0.233772,-0.007952,-0.010063,0.051509
1.48E+09,0.618263,-0.375128,0.208352,-0.101718,-0.105548,0.005908
1.48E+09,0.426626,-0.427489,0.121844,-0.079541,-0.096644,0.014779
1.48E+09,0.196441,-0.40831,0.029892,-0.026918,-0.029933,0.033985
1.48E+09,-0.022081,-0.425896,-0.093162,0.007869,-0.00255,0.019728
1.48E+09,-0.135147,-0.503913,-0.160933,0.007852,0.020933,-0.06632
1.48E+09,-0.21751,-0.616858,-0.171253,-0.003934,0.026115,-0.118972
1.48E+09,-0.351354,-0.763543,-0.176842,-0.008791,0.053476,-0.127362
