Elapsed Time, accel x, accel y, accel z, gyro x, gyro y, gyro z
0,0.007893,-0.031232,0.078488,-0.245544,-0.168366,0.03111
0.00999999,-0.02168,-0.029279,0.082804,-0.230397,-0.035436,-0.029785
0.019999981,-0.016948,-0.016531,0.071877,-0.154869,0.122754,-0.109858
0.029999971,-0.019031,-0.004462,0.063495,-0.05966,0.066692,-0.139425
0.039999962,-0.032423,-0.030265,0.045738,0.029862,-0.050539,-0.105493
0.049999952,-0.029731,-0.001753,0.017453,0.083839,-0.140053,-0.011218
0.059999943,0.002081,0.037084,0.013928,0.086745,-0.17976,0.006664
1.48E+09,0.054276,-0.231295,-0.064069,-0.014729,0.007225,0.032626
1.48E+09,-0.040187,-0.268542,-0.113862,-0.034327,-0.023648,0.025374
1.48E+09,-0.155245,-0.256853,-0.11572,-0.032632,-0.024581,0.025596
1.48E+09,-0.237863,-0.200446,-0.117865,-0.035101,-0.010647,0.023196
1.48E+09,-0.288423,-0.060763,-0.146709,-0.021077,0.003206,0.013408
1.48E+09,-0.294663,0.069151,-0.158803,-0.02347,-0.00946,0.009485
1.48E+09,-0.287549,0.121109,-0.155898,-0.024604,-0.025606,0.026414
1.48E+09,-0.251182,0.152141,-0.143633,-0.030723,-0.027277,0.018278
1.48E+09,-0.265635,0.216225,-0.127753,-0.022744,-0.014451,0.002472
1.48E+09,-0.328262,0.29862,-0.117783,-0.022502,-0.013246,-0.0023
1.48E+09,-0.397354,0.399404,-0.0935,-0.027813,-0.018822,0.012402
1.48E+09,-0.464176,0.525156,-0.095361,-0.02896,-0.014104,0.033967
1.48E+09,-0.540763,0.747647,-0.137016,-0.029448,-0.017592,0.029247
1.48E+09,-0.562389,0.76365,-0.143731,-0.043909,-0.015113,0.03248
1.48E+09,-0.497577,0.580981,-0.139711,-0.059942,-0.033863,0.064526
1.48E+09,-0.302044,0.317073,-0.234228,-0.033071,-0.012982,-0.017347
1.48E+09,-0.02599,0.062709,-0.521524,0.011308,0.011738,-0.04158
1.48E+09,0.185765,-0.319783,-0.619939,-0.002382,0.111492,-0.043584
1.48E+09,0.295928,-0.63649,-0.673098,-0.035286,0.230949,-0.047614
1.48E+09,0.26228,-0.832971,-0.714419,0.026049,0.089086,-0.058994
1.48E+09,0.131182,-0.862265,-0.707232,0.016515,0.019906,-0.028797
1.48E+09,-0.083749,-0.833143,-0.648278,0.018654,-0.030908,0.019525
1.48E+09,-0.300293,-0.613111,-0.499359,0.013751,-0.111234,0.066407
1.48E+09,-0.692903,-0.025271,-0.099182,0.014577,-0.116258,0.068982
1.48E+09,-1.001421,0.747064,0.187487,-0.017501,-0.155339,0.108381
1.48E+09,-1.071896,1.274881,0.165295,-0.039131,-0.171134,0.132406
1.48E+09,-0.864463,1.366323,0.029383,-0.073067,-0.077125,0.135849
1.48E+09,-0.550943,0.88743,-0.145671,-0.090568,0.080752,0.068218
1.48E+09,-0.270438,0.42733,-0.376692,-0.118383,0.133474,-0.029781
1.48E+09,-0.095768,0.21178,-0.646484,-0.161978,0.098755,-0.096599
1.48E+09,-0.088379,0.196764,-0.912264,-0.16774,0.071215,-0.052732
1.48E+09,-0.143387,0.112417,-1.067395,-0.237329,0.016851,0.103755
1.48E+09,-0.202981,-0.004104,-1.077327,-0.267044,0.002294,0.160296
1.48E+09,-0.303945,-0.150845,-1.053005,-0.275923,0.029836,0.195131
1.48E+09,-0.320164,-0.451554,-1.040804,-0.252938,0.084686,0.230007
1.48E+09,0.227294,-1.377551,-1.266239,-0.10888,0.133372,0.062837
1.48E+09,-0.099588,-0.966627,-1.102512,-0.115648,0.130948,0.064573
1.48E+09,0.468452,-1.53385,-1.475975,-0.088198,0.172003,-0.084973
1.48E+09,0.495581,-1.486326,-1.66526,-0.081148,0.17131,-0.164672
1.48E+09,0.299026,-1.144768,-1.833302,-0.079994,0.135592,-0.182322
1.48E+09,-0.00644,-0.750804,-1.841909,-0.05189,0.09515,-0.134812
1.48E+09,-0.380396,-0.71416,-1.616127,-0.016309,0.045844,-0.037592
1.48E+09,-0.666331,-0.768763,-1.359325,0.043092,0.038205,0.042592
1.48E+09,-0.77076,-0.776707,-1.07984,0.135059,0.088055,0.062183
1.48E+09,-0.74604,-0.820828,-0.817504,0.192555,0.040079,0.051416
1.48E+09,-0.594386,-0.938077,-0.591347,0.225904,-0.009394,0.019947
1.48E+09,-0.405913,-1.087765,-0.45119,0.245676,-0.050177,-0.050995
1.48E+09,-0.290754,-0.966167,-0.41724,0.220639,-0.113677,-0.138798
1.48E+09,-0.303912,-0.770679,-0.4379,0.190004,-0.134997,-0.082984
1.48E+09,-0.470744,-0.488023,-0.492912,0.193257,-0.138308,-0.081943
1.48E+09,-1.065277,0.571514,-0.590515,0.096354,-0.198269,0.03476
1.48E+09,-0.77564,-0.029012,-0.588461,0.103032,-0.189627,0.029967
1.48E+09,-1.347724,0.941657,-0.544424,0.038063,-0.222329,0.112312
1.48E+09,-1.507158,1.125358,-0.445578,0.029061,-0.180454,0.152824
1.48E+09,-1.485707,1.150075,-0.282567,0.029682,-0.035814,0.156146
1.48E+09,-1.304162,0.928599,-0.140071,0.029234,0.049742,0.140075
1.48E+09,-0.977572,0.573123,-0.134262,0.055096,0.038743,0.105389
1.48E+09,-0.493546,0.263445,-0.167425,0.071225,0.002233,0.035515
1.48E+09,0.009294,-0.033619,-0.216474,0.04691,-0.007115,-0.039873
1.48E+09,0.392129,-0.341815,-0.350466,0.035142,0.013634,-0.105367
1.48E+09,0.516241,-0.539995,-0.517033,0.02407,0.012938,-0.138191
1.48E+09,0.404721,-0.51733,-0.644123,0.008519,-0.001302,-0.145094
1.48E+09,0.181131,-0.237877,-0.653295,-0.012867,-0.026695,-0.114814
1.48E+09,-0.147763,0.106838,-0.558388,0.062402,-0.004456,0.108583
1.48E+09,-0.468071,0.344935,-0.425989,0.114783,-7.61E-04,0.1291
1.48E+09,-0.714545,0.522707,-0.27311,0.108885,-0.007042,0.131783
1.48E+09,-0.831162,0.592195,-0.091998,0.133583,-0.023728,0.129112
1.48E+09,-0.810385,0.556034,0.103918,0.149077,-0.025596,0.107433
1.48E+09,-0.616908,0.407861,0.214688,0.141991,-0.016606,0.049851
1.48E+09,-0.264145,0.227183,0.18849,0.117396,1.20E-05,-0.02062
1.48E+09,-0.103317,0.301199,0.032576,0.110324,0.008433,-0.085351
1.48E+09,-0.183663,-0.623691,-0.185997,0.104602,-0.001626,-0.122749
1.48E+09,-0.058775,-0.915378,-0.408617,0.111343,-0.007221,0.085215
1.48E+09,0.041499,-0.575507,-0.604234,0.121709,-0.106912,-0.175057
1.48E+09,0.085514,-0.288644,-0.713916,-0.022583,-0.135692,-0.162181
1.48E+09,0.131745,0.039828,-0.770304,-0.111271,-0.047807,-0.132182
1.48E+09,0.109517,0.262359,-0.778061,-0.113525,0.008528,-0.200759
1.48E+09,0.05728,0.320847,-0.712348,-0.089639,-0.005324,-0.189831
1.48E+09,-0.028577,0.330578,-0.608276,-0.035355,-0.030475,-0.171554
1.48E+09,-0.203757,0.165095,-0.468197,0.096867,0.021919,0.070301
1.48E+09,-0.393472,-0.205919,-0.307696,0.110696,0.012432,0.082576
1.48E+09,-0.530164,-0.442557,-0.207558,0.113893,0.007469,0.084097
1.48E+09,-0.553315,-0.532027,-0.173268,0.115077,-0.039303,0.052356
1.48E+09,-0.457695,-0.490584,-0.179946,0.119641,-0.044165,0.053716
1.48E+09,-0.269717,-0.331928,-0.235101,0.082591,-0.047491,-0.010866
1.48E+09,-0.049519,-0.106179,-0.304414,0.019819,-0.042753,-0.062224
1.48E+09,0.131142,0.164883,-0.349307,-0.032539,-0.02818,-0.082995
1.48E+09,0.221961,0.315315,-0.378744,-0.070227,-0.008424,-0.090356
1.48E+09,0.248078,0.364693,-0.349766,-0.094112,0.011543,-0.076864
1.48E+09,0.215347,0.220528,-0.288935,-0.078808,0.028611,-0.049848
1.48E+09,0.047426,0.074629,-0.265594,-0.025259,0.024607,0.005856
1.48E+09,-0.178616,-0.068017,-0.229655,0.022563,0.017105,0.077212
1.48E+09,-0.32866,-0.230201,-0.168987,0.045073,0.01398,0.161351
1.48E+09,-0.441091,-0.364724,-0.135225,0.054821,-0.001161,0.209661
1.48E+09,-0.463677,-0.519556,-0.121901,0.022643,0.018653,0.198693
1.48E+09,-0.428202,-0.663298,-0.062545,0.001459,0.02799,0.155444
1.48E+09,-0.301328,-0.710422,0.043104,0.006711,0.033935,0.109878
1.48E+09,-0.162505,-0.68786,0.10605,2.31E-04,0.047222,0.096826
1.48E+09,-0.032154,-0.714311,0.109605,-0.024237,0.071129,0.079266
1.48E+09,0.110499,-0.70479,0.10905,-0.07303,0.093775,0.057075
1.48E+09,0.19216,-0.663014,0.053107,-0.080016,0.104729,0.037574
1.48E+09,0.155774,-0.70207,-0.033837,-0.071113,0.076638,0.042817
1.48E+09,0.082673,-0.837484,0.132964,-0.090612,0.123008,0.17723
1.48E+09,-0.032189,-0.945871,0.437296,-0.048576,0.112548,0.223034
1.48E+09,-0.155433,-1.118987,0.639578,0.001315,0.096903,0.249143
1.48E+09,-0.245252,-1.367883,0.760222,0.048464,0.132272,0.268199
1.48E+09,-0.296941,-1.6402,0.898983,0.093655,0.167924,0.27759
1.48E+09,-0.312337,-1.846084,1.250548,0.142059,0.16695,0.279742
1.48E+09,-0.246391,-1.973194,1.557807,0.163203,0.138079,0.262577
1.48E+09,3.09E-04,-2.267747,1.76012,0.179459,0.169304,0.268241
1.48E+09,0.446463,-2.83752,1.892692,0.201132,0.219096,0.285614
1.48E+09,0.99477,-3.40564,1.90284,0.211379,0.223888,0.258106
1.48E+09,1.390572,-4.16083,1.844035,0.217058,0.239486,0.21541
1.48E+09,1.374034,-5.121005,1.894345,0.22764,0.263553,0.171687
1.48E+09,0.99525,-5.920899,2.327959,0.241242,0.268674,0.222932
1.48E+09,0.485241,-6.010896,2.953738,0.322103,0.2057,0.284464
1.48E+09,0.165202,-5.5859,3.650834,0.383927,0.203415,0.347716
1.48E+09,0.044317,-5.410891,4.218889,0.439049,0.328641,0.420028
1.48E+09,0.225365,-5.681584,4.623442,0.431919,0.219349,0.215747
1.48E+09,0.651709,-6.273861,4.916774,0.424132,0.184506,0.070183
1.48E+09,1.060603,-6.902693,5.133204,0.387029,0.151102,-0.073687
1.48E+09,1.198192,-7.290279,5.29136,0.326051,0.141662,-0.13953
1.48E+09,0.971903,-7.236852,5.538614,0.281086,0.158988,-0.102221
1.48E+09,0.53999,-6.669583,5.715337,0.167865,0.162029,-0.015779
1.48E+09,0.15928,-5.517891,5.548131,-0.017587,0.146225,0.010538
1.48E+09,-0.073016,-4.07002,4.97579,-0.23005,0.09815,-0.004595
1.48E+09,0.048682,-2.96682,4.175221,-0.397486,0.128886,-0.03798
1.48E+09,0.392412,-2.239016,3.467592,-0.517203,0.198958,-0.140778
1.48E+09,0.641562,-1.7143,3.454973,-0.588069,0.272602,-0.250203
1.48E+09,0.691495,-1.24781,3.312909,-0.579581,0.268095,-0.31111
1.48E+09,0.58941,-1.101999,3.54568,-0.442323,-0.136658,-0.319782
1.48E+09,0.756267,-1.241567,3.643655,-0.567185,-0.097567,-0.249082
1.48E+09,1.103064,-1.720369,3.769578,-0.471332,-0.382634,-0.236329
1.48E+09,1.679871,-2.756449,4.005118,-0.302588,-0.078128,-0.202623
1.48E+09,2.363308,-3.916393,3.75616,-0.18564,-0.122834,-0.271519
1.48E+09,2.991574,-4.747341,3.170936,-0.126624,0.063632,-0.273126
1.48E+09,3.598252,-5.492691,3.122368,-0.196986,0.513014,-0.257269
1.48E+09,4.205148,-5.943651,3.358277,-0.230959,0.447849,-0.327336
1.48E+09,4.486509,-5.929445,3.195302,-0.170278,0.036515,-0.329603
1.48E+09,4.336136,-5.558397,2.790723,-0.286171,-0.08548,-0.21548
1.48E+09,3.912705,-4.876582,2.440731,-0.464999,0.051718,-0.031128
1.48E+09,3.475018,-4.142447,2.181635,-0.536931,0.167645,0.135128
1.48E+09,3.111641,-3.506654,2.051596,-0.556768,0.166532,0.217516
1.48E+09,2.963699,-2.912567,2.180474,-0.576522,0.096671,0.22265
1.48E+09,2.954065,-2.527842,2.305071,-0.572562,0.053152,0.173822
1.48E+09,3.092731,-2.635865,2.308896,-0.491825,-0.02663,0.125095
1.48E+09,3.326306,-2.922628,2.166255,-0.450719,-0.002087,0.051518
1.48E+09,3.400022,-3.032239,1.727646,-0.470468,0.012717,-0.005266
1.48E+09,-0.330043,-3.24045,1.317961,-0.517258,0.022291,-0.012913
1.48E+09,-3.032093,-1.422027,2.252722,-0.524196,0.082097,0.019829
1.48E+09,-1.465034,-0.360248,2.405822,0.150977,-0.539708,3.398513
1.48E+09,-0.306664,0.080523,2.584355,-0.20356,-0.145459,-0.034862
1.48E+09,0.00112,0.61152,2.018119,-0.328583,0.171562,-0.751043
1.48E+09,0.185175,-0.104705,0.567254,0.62753,0.318106,0.242976
1.48E+09,0.402584,-0.388495,-0.375318,-0.525882,0.281285,-0.194239
1.48E+09,0.840207,-0.849685,-0.220173,-0.319525,0.191541,0.113608
1.48E+09,1.135309,-1.139588,0.343338,-0.024868,0.062101,-0.053749
1.48E+09,0.723149,-1.14196,1.059809,0.204973,-0.211095,-0.185024
1.48E+09,0.463793,-1.142037,1.76005,0.098649,-0.118245,-0.193803
1.48E+09,0.5526,-0.816797,2.407089,0.089804,-0.151775,0.147803
1.48E+09,0.610928,-0.791135,2.77666,0.09478,-0.083331,0.05884
1.48E+09,0.856518,-0.998149,2.717472,0.045791,-0.153283,-0.072505
1.48E+09,1.24515,-1.180642,2.055293,-0.052329,-0.228169,-0.046504
1.48E+09,1.325704,-1.48925,1.609104,-0.117158,-0.229645,-0.034352
1.48E+09,0.892457,-1.108679,1.33887,-0.085559,-0.059047,-0.092159
1.48E+09,0.520535,0.05274,1.197381,0.158653,-0.161396,0.005282
1.48E+09,0.370936,0.269686,1.320337,0.209982,-0.361602,0.108309
1.48E+09,0.490302,-0.052809,1.51883,0.18789,-0.432,-0.034344
1.48E+09,0.44856,-0.172645,1.62082,0.114569,-0.167829,-0.146552
1.48E+09,0.407057,-0.195017,1.604654,-0.026111,-0.242232,-0.070465
1.48E+09,0.303137,-0.142177,1.716322,-0.088469,-0.330279,0.057507
1.48E+09,0.233043,0.098987,1.95653,-8.20E-04,-0.184124,0.025164
1.48E+09,0.160547,0.313727,2.102712,0.049209,-0.132014,-0.028162
1.48E+09,0.107997,0.270574,2.195893,0.088037,-0.086571,0.029313
1.48E+09,-0.045391,0.337258,2.244064,0.045044,-0.028583,0.038951
1.48E+09,-0.2407,0.710368,2.293816,-0.026788,-0.081908,0.052156
1.48E+09,-0.334924,0.931289,2.278914,-0.032683,-0.021356,0.068919
1.48E+09,-0.135845,0.832021,2.168177,-0.025913,0.124309,0.100302
1.48E+09,0.26759,-0.084183,1.998141,-0.063918,0.188627,0.067213
1.48E+09,0.105944,-0.524433,1.883047,-0.158794,0.292057,-0.099733
1.48E+09,-0.032887,-0.433965,1.615828,-0.230143,0.411428,-0.331156
1.48E+09,-0.138557,-0.368652,1.421872,-0.014398,0.329431,0.061588
1.48E+09,-0.221937,-0.120976,1.176102,-0.044561,0.258267,0.062977
1.48E+09,-0.111335,0.176768,0.851342,-0.079369,0.28264,0.111988
1.48E+09,0.063871,-0.105058,-0.499055,-0.143072,0.237265,0.04305
1.48E+09,1.141542,-1.122418,-3.721332,-0.106748,0.304605,-0.128666
1.48E+09,0.806354,-1.577951,-4.345199,-0.99893,0.210957,-0.313447
1.48E+09,-0.936825,-1.70926,-1.180595,-2.358243,-0.885748,-0.978599
1.48E+09,0.40675,0.375542,-1.65999,1.25561,0.044759,0.548815
1.48E+09,0.597398,0.247943,-1.644046,3.120138,0.850384,0.980305
1.48E+09,0.058115,-0.34038,-1.774357,0.246642,-0.443688,-0.414815
1.48E+09,-0.035189,-0.340858,-1.638333,0.169253,-8.68E-04,-0.035651
1.48E+09,0.167764,-0.390599,-1.315686,-0.004652,0.233672,0.159419
1.48E+09,0.024973,-0.483104,-1.008346,0.063632,0.086545,0.015287
1.48E+09,-0.417761,-0.379142,-0.749125,0.204725,0.044848,-0.077037
1.48E+09,-0.644138,-0.177232,-0.511738,0.098029,0.089608,0.019879
1.48E+09,-0.633121,-0.655917,-0.200564,-0.111853,0.070311,0.111183
1.48E+09,-0.610781,-1.24606,0.283131,0.066465,-0.148321,-0.089923
1.48E+09,-0.75306,-1.176527,1.170308,0.147509,-0.282154,-0.080919
1.48E+09,-0.073498,-0.564553,1.527913,0.251129,-0.536911,0.181776
1.48E+09,0.344041,0.171763,1.327731,0.17477,-0.611862,0.050624
1.48E+09,0.458671,0.728871,1.045256,-0.22757,-0.316008,-0.280353
1.48E+09,0.104669,0.304958,0.762764,-0.303194,-0.407972,-0.036506
1.48E+09,0.552869,-0.697248,0.412084,0.005051,-0.643794,0.073163
1.48E+09,1.091299,-1.576694,0.378286,0.15878,-0.750302,0.282117
1.48E+09,1.300824,-1.562797,0.346736,0.335157,-0.463932,-0.358749
1.48E+09,1.544226,-1.233952,0.386398,0.209757,-0.321669,-0.206039
1.48E+09,1.47512,-0.632248,-0.035619,0.062901,-0.196182,0.099239
1.48E+09,0.840247,0.187823,-0.798179,0.050355,-0.085591,0.058788
1.48E+09,0.579854,-0.457744,-0.542071,-0.276237,-0.259775,-0.027047
1.48E+09,0.42095,-0.650196,0.311269,-0.658534,-0.194275,-0.203217
1.48E+09,0.194766,-0.118808,1.070473,-0.162935,0.573008,-0.165121
1.48E+09,0.196799,0.356076,1.07107,0.104659,1.294783,0.252241
1.48E+09,0.259969,0.394844,0.335456,0.140492,1.38256,0.074566
1.48E+09,0.187454,0.263842,-0.017825,-0.040505,1.097322,-0.086108
1.48E+09,0.120651,0.422063,0.234868,-0.25564,0.197046,5.09E-04
1.48E+09,0.288613,0.761002,0.635075,-0.01968,0.029174,0.102421
1.48E+09,0.244965,0.854941,0.755504,0.04031,-0.191645,0.13248
1.48E+09,0.138121,0.623843,0.515025,-0.097915,-0.244854,0.202998
1.48E+09,2.81E-04,0.31167,0.192046,-0.075199,-0.016686,0.161163
1.48E+09,-0.055447,-0.1186,-0.00386,0.075863,0.06617,-0.035495
1.48E+09,-0.065308,-0.282118,0.022061,0.138382,0.052027,-0.112532
1.48E+09,-0.091801,-0.152043,-0.023443,0.104384,0.020299,-0.082685
1.48E+09,-0.312894,-0.155395,-0.076863,-0.012368,-0.002368,0.036658
1.48E+09,-0.318826,-0.200996,-0.099482,-0.006797,-0.006324,0.049028
1.48E+09,-0.203557,-0.094093,-0.082452,-0.020327,0.029091,-0.023324
1.48E+09,-0.128027,-0.068682,-0.108772,0.032584,0.018587,0.067127
1.48E+09,-0.404244,-0.11489,-0.105848,0.047409,0.027966,-0.012375
1.48E+09,-0.403744,0.362906,-0.304007,0.162309,0.061534,0.052368
1.48E+09,-0.24573,0.120784,0.069071,-0.011137,-0.074304,-0.087766
1.48E+09,-0.026555,0.336745,1.154001,0.267987,-0.083692,0.070032
1.48E+09,-0.082466,0.573793,1.598074,0.283532,-0.606395,-0.026516
1.48E+09,-0.249427,0.453221,0.530684,0.491626,-1.41035,-0.001083
1.48E+09,-0.116269,0.675444,-0.497686,0.335262,-1.038432,-0.011726
1.48E+09,0.1499,0.784143,-1.023054,0.291528,-1.004712,0.044535
1.48E+09,0.087069,1.390737,-0.412388,0.284179,-1.177054,-0.019554
1.48E+09,-0.257617,1.905873,1.450414,0.194723,-0.719677,-0.002253
1.48E+09,-0.380987,2.584853,2.669757,0.083319,0.073387,0.131407
1.48E+09,-0.375708,3.396343,2.645096,0.248511,0.499928,0.176508
1.48E+09,-0.097881,2.947692,2.374596,0.317043,0.428188,0.181869
1.48E+09,-0.291665,1.385782,2.821291,-0.00242,0.697408,-0.127638
1.48E+09,-0.173514,0.445735,2.635274,-0.00643,0.11243,-0.353795
1.48E+09,0.315524,0.245843,2.346454,-0.035361,0.369249,-0.330982
1.48E+09,0.502192,-0.791259,1.695786,-0.103,0.217521,-0.060872
1.48E+09,0.408825,-1.593707,1.028527,-0.509576,0.624047,-0.319381
1.48E+09,0.398495,-2.353955,0.402229,-0.57702,0.61783,-0.204744
1.48E+09,-0.076563,-3.220006,-1.932536,-0.386466,0.439567,-0.165312
1.48E+09,0.94082,-4.782829,-2.705832,0.0068,-0.114415,-0.141527
1.48E+09,1.100485,-4.236713,-1.367326,0.80406,-1.995753,-0.639461
1.48E+09,0.432057,-2.96862,-0.444201,0.491237,-0.491522,0.031945
1.48E+09,-0.248475,-1.65391,0.22286,-0.283315,1.208926,0.405396
1.48E+09,-0.263318,-0.301541,0.129909,-0.791176,1.504,0.387478
1.48E+09,-0.090758,-0.272885,-0.064317,-0.550229,0.770354,0.33588
1.48E+09,0.088804,-0.412866,0.091492,-0.271462,0.101611,0.132112
1.48E+09,0.044325,-0.229713,0.190781,-0.010967,-0.029152,0.026724
1.48E+09,0.683156,-0.335698,0.163772,0.10788,0.067343,-0.024736
1.48E+09,1.160798,-1.037471,0.28063,0.150965,0.058657,0.038798
1.48E+09,1.164139,-0.680515,0.480697,0.174275,-0.284994,-0.076585
1.48E+09,1.053453,0.245182,0.468379,0.215338,-0.386793,0.043375
1.48E+09,1.00418,0.909998,0.201342,0.099375,-0.11373,0.130274
1.48E+09,0.877868,0.976822,-0.331438,0.093991,-0.012248,0.011349
1.48E+09,0.518618,0.678775,-0.877365,0.120851,-0.026788,-0.041207
1.48E+09,-0.115377,0.651106,-0.981714,0.162652,0.042614,-0.086454
1.48E+09,-0.168909,0.952049,-1.216914,-0.012589,0.452953,-0.030385
1.48E+09,0.225221,0.242581,-1.272835,-0.214485,0.619477,-0.012614
1.48E+09,0.290759,-0.005335,-1.157323,-0.147667,0.201253,0.013489
1.48E+09,0.288815,0.241282,-0.928488,0.016164,0.225996,0.11201
1.48E+09,0.261975,0.308349,-0.689623,-0.069925,0.27864,0.138385
1.48E+09,0.230212,0.252254,-0.221855,-0.143781,0.18734,0.089418
1.48E+09,0.100287,-0.024526,-0.049808,-0.12374,0.113583,0.04136
1.48E+09,-0.050083,-0.013409,-0.009241,-0.038073,0.095261,-0.029134
1.48E+09,-0.130478,0.07176,-0.047406,0.009909,-0.058964,-0.086393
1.48E+09,-0.03836,0.350083,-0.136626,-0.099577,-0.036848,-0.074805
1.48E+09,0.134027,0.83987,-0.168161,-0.157325,0.029654,-0.033488
1.48E+09,0.43321,1.429778,-0.103892,-0.129001,-0.004767,0.023057
1.48E+09,0.258056,0.992763,0.119264,0.035719,-0.002212,0.065212
1.48E+09,0.268584,0.001296,0.37899,0.187862,0.036474,0.040205
1.48E+09,0.250735,-0.111881,0.441966,0.28497,0.08589,-0.103848
1.48E+09,0.149465,-0.080789,0.495169,0.20111,0.03242,0.044011
1.48E+09,0.166737,-0.029114,0.538699,0.0138,0.062505,-0.016137
1.48E+09,0.196366,0.050021,0.561093,-0.133302,0.196933,-0.017012
1.48E+09,0.204842,0.080389,0.485889,-0.1387,0.181339,0.030842
1.48E+09,0.184951,0.172557,0.394515,-0.074994,0.109817,0.037861
1.48E+09,0.14736,0.271708,0.342014,-0.002373,0.043269,0.042827
1.48E+09,0.108367,0.238977,0.236529,0.05642,-0.037761,0.034595
1.48E+09,0.017925,0.032546,0.161441,0.12475,-0.103143,0.014553
1.48E+09,-0.139137,-0.208993,0.095796,0.075371,-0.058244,-0.016152
1.48E+09,-0.249408,-0.455265,0.038265,0.068586,-0.001092,-0.009783
1.48E+09,-0.375202,-0.655024,0.02633,0.059787,0.069636,-0.017201
1.48E+09,-0.472442,-0.798988,0.017545,0.036518,0.164272,-0.028752
1.48E+09,-0.494446,-0.749104,-0.04739,-0.009878,0.220222,-0.017761
1.48E+09,-0.468659,-0.68128,-0.152412,-0.048009,0.163671,0.037955
1.48E+09,-0.26662,-0.524786,-0.088362,-0.014014,0.008538,0.054031
1.48E+09,-0.092953,-0.031603,-0.081915,0.045374,-0.186424,0.067545
1.48E+09,0.01008,0.162357,-0.131534,0.024497,-0.361351,0.113778
1.48E+09,-0.009021,0.044443,-0.094252,-0.013937,-0.209287,0.047821
1.48E+09,-0.156989,-0.202177,0.008344,0.036054,-0.03953,0.024118
1.48E+09,-0.144504,-0.176701,0.075549,-0.01155,-0.020803,-0.018546
1.48E+09,-0.036777,-0.219157,0.054518,-0.134904,0.02674,-0.018118
1.48E+09,-0.085004,-0.186525,0.109688,-0.160195,-0.002911,-0.016464
1.48E+09,-0.003134,-0.295175,0.147045,-0.119248,-0.052256,0.019076
1.48E+09,0.164333,-0.383935,0.087185,-0.123743,-0.078863,-0.024279
1.48E+09,0.279021,-0.508532,-0.013304,-0.072387,-0.026739,-0.01768
1.48E+09,0.376208,-0.636755,0.009887,-0.007012,-0.01083,0.015175
1.48E+09,0.351923,-0.730566,0.117821,0.047228,-0.04065,0.011131
1.48E+09,0.284067,-0.767022,0.139533,0.058495,-0.029856,0.014486
1.48E+09,0.24601,-0.749889,0.133788,-0.012707,-0.007552,-0.011131
1.48E+09,0.232145,-0.757144,0.104275,-0.085011,-0.007074,-0.033767
1.48E+09,0.238855,-0.813219,0.013334,-0.067573,0.009757,-0.046944
1.48E+09,0.211594,-0.87967,-0.044807,-0.027533,0.023707,-0.0619
1.48E+09,0.1219,-0.86965,0.02241,0.023998,0.055069,-0.063793
1.48E+09,0.077106,-0.671647,-0.025731,0.020751,0.079388,-0.071806
1.48E+09,0.0549,-0.458574,-0.084839,-0.064559,0.054906,-0.061038
1.48E+09,-0.001605,-0.359752,-0.111852,-0.049468,0.061697,-0.014528
1.48E+09,-0.052581,-0.310559,-0.115871,0.01523,0.06511,-0.001163
1.48E+09,-0.10632,-0.239128,-0.115424,0.05459,0.058493,-0.009928
1.48E+09,-0.133579,-0.156525,-0.104947,0.071218,0.048838,-0.00259
1.48E+09,-0.153078,-0.093686,-0.091572,0.0784,0.038886,0.012091
1.48E+09,-0.157199,-0.054298,-0.072673,0.082312,0.031793,0.010749
1.48E+09,-0.149932,-0.017305,-0.054796,0.084745,0.020148,0.004175
1.48E+09,-0.140059,0.011034,-0.035509,0.07359,0.007257,0.003072
1.48E+09,-0.119906,0.018511,-0.027985,0.058886,3.79E-04,0.004066
1.48E+09,-0.065462,0.004032,-0.031861,0.031418,-0.01005,-7.71E-04
1.48E+09,-0.018561,-0.014223,-0.033329,0.024017,-0.023147,0.001838
1.48E+09,0.043559,-0.038614,-0.029568,0.014923,-0.038762,0.008706
1.48E+09,0.091706,-0.052091,-0.010249,0.001576,-0.040983,0.009587
1.48E+09,0.139703,-0.050634,-0.002222,-0.0089,-0.071094,0.007658
1.48E+09,0.199259,-0.070134,0.006326,-0.024366,-0.070012,0.003436
1.48E+09,0.246256,-0.09716,0.018499,-0.028577,-0.067594,-2.97E-04
1.48E+09,0.281926,-0.130344,0.019574,-0.026357,-0.062448,-0.002572
1.48E+09,0.312394,-0.146295,0.026415,-0.02119,-0.049116,-0.006837
1.48E+09,0.317479,-0.148801,0.03389,-0.017426,-0.029087,-0.002396
1.48E+09,0.307338,-0.143966,0.039794,-0.003713,-0.004304,0.006403
1.48E+09,0.271866,-0.131859,0.04521,0.00566,0.025376,0.022375
1.48E+09,0.212457,-0.126119,0.055293,0.022556,0.044528,0.037575
1.48E+09,0.156911,-0.128983,0.061898,0.025305,0.05784,0.049901
1.48E+09,0.10011,-0.134235,0.057487,0.025307,0.066876,0.062445
1.48E+09,0.059603,-0.126928,0.042062,0.015626,0.072041,0.065596
1.48E+09,0.022771,-0.106047,0.032592,-0.013193,0.069943,0.056099
1.48E+09,-1.71E-04,-0.085052,0.019642,-0.028102,0.062167,0.047002
1.48E+09,-0.011561,-0.083817,0.012092,-0.020523,0.049648,0.015376
1.48E+09,-0.016482,-0.098668,0.009819,-0.023925,0.030099,0.002543
1.48E+09,-0.009986,-0.119593,0.002907,-0.028693,0.018544,-0.010809
1.48E+09,-0.010976,-0.149315,0.007074,-0.0226,0.005232,-0.022635
1.48E+09,0.003114,-0.171453,0.002745,-0.021482,-0.004097,-0.030331
1.48E+09,0.020892,-0.182438,-0.001719,-0.018793,-0.011298,-0.030908
1.48E+09,0.041076,-0.179824,-0.003924,-0.014666,-0.012412,-0.03431
1.48E+09,0.051081,-0.169798,-0.012535,-0.011087,-0.008135,-0.037345
1.48E+09,0.064861,-0.158492,-0.023565,-6.20E-04,-0.002531,-0.038376
1.48E+09,0.072246,-0.137401,-0.026267,0.017323,0.002999,-0.037424
1.48E+09,0.058136,-0.116292,-0.04645,0.033746,0.004719,-0.035729
1.48E+09,-0.102418,-0.110536,-0.110188,0.052103,0.003469,-0.033793
1.48E+09,-0.186894,-0.007202,-0.251741,0.064431,0.005622,-0.02621
1.48E+09,-0.007769,0.163115,-0.229954,-0.011521,-0.003201,0.015994
1.48E+09,0.180375,0.742296,-0.146258,-0.075812,-0.023222,0.041462
1.48E+09,0.084578,0.46207,0.018981,0.024622,0.017762,-0.079637
1.48E+09,0.097542,-0.258598,0.138035,0.104769,0.002981,-0.122207
1.48E+09,0.128949,-0.650958,0.200302,0.276205,0.018475,-0.123923
1.48E+09,0.137588,-0.630962,0.181692,0.217148,0.041555,-0.110728
1.48E+09,0.073469,-0.392194,0.125225,0.072575,0.055055,-0.018101
1.48E+09,0.003977,-0.116456,0.080321,-0.018618,0.045935,0.008003
1.48E+09,-0.020901,0.117336,0.055165,-0.042497,0.005636,-0.002242
1.48E+09,-0.029325,0.211255,0.057138,-0.017662,-6.29E-04,-0.021686
1.48E+09,-0.057028,0.201217,0.054454,0.02097,0.007932,-0.010485
1.48E+09,-0.069082,0.134533,0.034556,0.036442,0.013673,-0.002274
1.48E+09,-0.056075,0.090261,0.014642,0.038476,0.020052,0.004301
1.48E+09,-0.01938,0.080749,-0.004291,0.030429,0.016082,1.17E-04
1.48E+09,0.008287,0.092179,-0.020029,0.022851,0.004802,-0.015631
1.48E+09,0.038428,0.108623,-0.041947,0.016072,0.003529,-0.032187
1.48E+09,0.035669,0.132242,-0.05833,0.011365,0.008473,-0.045221
1.48E+09,0.01922,0.135823,-0.054949,0.014545,0.010873,-0.03907
1.48E+09,-0.011269,0.155401,-0.052041,0.022724,0.016607,-0.013333
1.48E+09,-0.047834,0.151267,-0.02797,0.023939,0.020648,0.003205
1.48E+09,-0.066486,0.121296,-0.006883,0.023729,0.019791,0.009614
1.48E+09,-0.066214,0.093921,0.013206,0.029871,0.015583,0.010365
1.48E+09,-0.051979,0.056868,0.017716,0.02799,0.011562,0.001037
1.48E+09,-0.035154,0.012431,0.019936,0.018379,0.01138,-0.019187
1.48E+09,-0.015891,-0.023271,0.014684,0.013113,0.012464,-0.032515
1.48E+09,-0.004569,-0.019411,0.004971,0.005823,0.012735,-0.03531
1.48E+09,-0.006076,0.006616,-0.002849,6.12E-04,0.009765,-0.036043
1.48E+09,-0.015003,0.016427,5.36E-04,-0.005877,0.004322,-0.027858
1.48E+09,-0.022468,0.004004,0.001864,-0.008332,0.003107,-0.012835
1.48E+09,-0.022254,-0.019505,0.00349,-0.002791,0.003428,-0.006934
1.48E+09,-0.013193,-0.044157,3.58E-04,0.007702,0.004022,-0.010286
1.48E+09,-0.01566,-0.050377,0.00288,0.012141,0.008305,-0.013263
1.48E+09,-0.01315,-0.049085,-0.002007,0.010917,0.011359,-0.009048
1.48E+09,-0.015623,-0.0541,0.004177,0.009054,0.010695,-0.007664
1.48E+09,-0.013047,-0.059064,0.007979,0.008117,0.010463,-0.004454
1.48E+09,-0.024387,-0.061647,0.012765,0.005975,0.00951,-4.59E-04
1.48E+09,-0.026856,-0.067856,0.014061,0.003807,0.008376,0.005583
1.48E+09,-0.024328,-0.067852,0.015324,-2.68E-04,0.007932,0.005601
1.48E+09,-0.017958,-0.073988,0.014293,-0.001866,0.003178,0.00196
1.48E+09,-0.002719,-0.083741,0.008546,-0.004101,0.001613,-0.004623
1.48E+09,0.006107,-0.08242,0.004972,-0.004443,-0.001487,-0.014551
1.48E+09,0.011185,-0.084874,0.006312,-0.004874,-0.003407,-0.01304
1.48E+09,0.01872,-0.079893,0.007563,-0.003834,-0.001137,-0.016935
1.48E+09,0.027575,-0.081088,0.008938,-0.002399,-7.39E-04,-0.019403
1.48E+09,0.013649,-0.07747,0.009902,0.003047,0.003191,-0.018832
1.48E+09,0.014822,-0.067568,0.009752,0.008671,0.009361,-0.015266
1.48E+09,0.005905,-0.058984,0.011931,0.012542,0.012773,-0.009955
1.48E+09,0.001959,-0.041692,0.011582,0.013893,0.013782,-0.006527
1.48E+09,-7.58E-04,-0.020672,0.009962,0.010262,0.006813,-0.002449
1.48E+09,0.005404,-0.004505,0.003647,0.006619,0.008899,-0.004326
1.48E+09,0.006554,0.007881,0.002229,0.005492,0.008859,-0.008532
1.48E+09,0.00765,0.02644,0.001931,0.003294,0.009321,-0.011134
1.48E+09,0.00633,0.032627,5.82E-04,0.006523,0.008506,-0.008994
1.48E+09,0.00258,0.028852,0.005497,0.006147,0.009634,-0.008024
1.48E+09,0.003853,0.027633,0.004309,0.00845,0.007741,-0.002256
1.48E+09,3.50E-05,0.03129,0.007872,0.006056,0.008695,0.00162
1.48E+09,-0.002479,0.030028,0.009083,-8.84E-04,0.007321,0.0047
1.48E+09,-0.003731,0.028784,0.009086,-0.002853,0.007429,0.006171
1.48E+09,3.70E-05,0.027562,0.01404,-0.007108,0.007703,0.00571
1.48E+09,-0.003637,0.013987,0.008084,-0.01021,0.00679,0.006799
1.48E+09,0.005283,0.005382,0.008358,-0.008511,0.009543,0.003352
1.48E+09,0.009169,-0.005695,0.004921,-0.007588,0.006859,0.003455
1.48E+09,0.009186,-0.006973,0.009849,-0.01002,0.008124,0.004038
1.48E+09,0.004138,-0.008199,0.004891,-0.009226,0.00826,0.004243
1.48E+09,0.004173,-0.01191,0.004953,-0.007738,0.010743,0.00104
1.48E+09,0.006776,-0.020542,0.003909,-0.006867,0.009696,2.23E-04
1.48E+09,0.005447,-0.013139,0.004991,-0.005003,0.007839,0.001996
1.48E+09,0.005399,-0.007007,0.011019,-0.002568,0.007433,0.002369
1.48E+09,3.85E-04,-0.010779,0.01469,7.08E-04,0.006363,0.002435
1.48E+09,-8.60E-04,-0.013228,0.011034,0.00411,0.008608,2.18E-04
1.48E+09,-0.003454,-0.005823,0.010871,-4.30E-05,0.012969,0.002237
1.48E+09,-0.005955,-0.008332,0.01333,-4.80E-05,0.014491,-9.19E-04
1.48E+09,-0.01095,-0.014556,0.01459,0.002375,0.013696,-2.90E-04
1.48E+09,-0.0109,-0.019534,0.018354,0.004055,0.011038,0.002062
1.48E+09,-0.00334,-0.018201,0.012308,0.001189,0.006713,2.27E-04
1.48E+09,0.002948,-0.015659,0.008677,-0.003244,0.001558,-0.003069
1.48E+09,0.009186,-0.006964,0.00862,-0.002171,0.004241,-0.004997
1.48E+09,0.010409,-0.003205,0.003668,-0.002016,0.004702,-0.008822
1.48E+09,0.007887,-0.003251,0.007312,-4.72E-04,0.0073,-0.007796
1.48E+09,3.44E-04,-0.007016,0.008493,0.004261,0.009945,-0.010456
1.48E+09,-0.009723,-0.010808,0.010864,-2.61E-04,0.013454,-0.005535
1.48E+09,-0.016012,-0.01335,0.014496,-1.17E-04,0.011911,-0.003408
1.48E+09,-0.022393,-0.005977,0.015506,0.003111,0.012664,0.001514
1.48E+09,-0.014915,0.005199,0.015425,0.00341,0.011617,0.003488
1.48E+09,-0.021376,0.021239,0.015061,7.12E-04,0.007456,0.004889
1.48E+09,-0.010065,0.027501,0.013892,-7.39E-04,0.002751,0.008563
1.48E+09,-0.005035,0.030004,0.013923,-0.00519,0.001338,0.004788
1.48E+09,-0.001215,0.026337,0.011587,-0.006443,0.001378,-4.88E-04
1.48E+09,0.01014,0.027651,0.010502,-0.010641,0.003722,1.07E-04
1.48E+09,0.008918,0.022717,0.008115,-0.011766,0.003464,0.001205
1.48E+09,0.020346,0.01658,0.010836,-0.009909,8.90E-04,-1.70E-04
1.48E+09,0.024127,0.017818,0.013323,-0.010879,0.002001,0.003353
1.48E+09,0.017837,0.015287,0.015728,-0.010648,0.003712,0.004791
1.48E+09,0.011565,0.010313,0.014495,-0.0092,0.005938,0.004057
1.48E+09,0.016649,0.007807,0.021969,-0.007254,0.006392,0.004474
1.48E+09,0.005285,0.007718,0.024258,-0.005395,0.008507,0.005843
1.48E+09,0.001538,0.002759,0.023061,-0.00403,0.009862,0.004776
1.48E+09,0.00156,0.001449,0.031668,-0.001947,0.010675,0.003787
1.48E+09,-0.002252,0.0039,0.031572,-0.001269,0.010397,-2.14E-04
1.48E+09,-0.004786,0.005101,0.033968,-0.004169,0.008293,4.09E-04
1.48E+09,-0.008571,0.005048,0.037593,-0.004955,0.006087,0.001507
1.48E+09,-0.014852,0.0013,0.037565,-0.007624,0.007668,-0.002146
1.48E+09,-0.013564,-0.001187,0.040079,-0.008473,0.00652,-0.002463
1.48E+09,-0.012384,0.007509,0.03627,-0.012151,0.005653,-0.007074
1.48E+09,-0.018783,0.01616,0.032352,-0.014239,0.00739,-0.005984
1.48E+09,-0.018795,0.017407,0.031104,-0.019199,0.012323,-0.008952
1.48E+09,-0.018738,0.011213,0.032436,-0.018911,0.011087,-0.009342
1.48E+09,-0.025002,0.006187,0.037336,-0.014044,0.007141,-0.012617
1.48E+09,-0.031256,0.001089,0.050823,-0.013222,0.004059,-0.011759
1.48E+09,-0.032509,-1.45E-04,0.049599,-0.016191,0.005244,-0.014944
1.48E+09,-0.031147,-0.00893,0.065711,-0.019253,0.005436,-0.011775
1.48E+09,-0.033515,-0.026261,0.065968,-0.015717,0.001492,-0.009975
1.48E+09,-0.02458,-0.037287,0.060149,-0.018493,0.002871,-0.009104
1.48E+09,-0.019495,-0.042122,0.050491,-0.019853,0.001699,-0.007549
1.48E+09,-0.005611,-0.041967,0.042102,-0.024569,9.38E-04,-0.007802
1.48E+09,-0.009349,-0.046978,0.047038,-0.029079,0.004033,-0.005402
1.48E+09,0.006066,-0.070678,0.082002,-0.02887,-0.003115,-0.007348
1.48E+09,-0.038528,-0.166292,0.096463,-0.030192,-0.005015,-0.004737
1.48E+09,-0.036014,-0.171104,0.089184,-0.018216,-0.048354,-0.040554
1.48E+09,-0.030818,-0.187142,0.088304,-0.0422,0.025935,0.020736
1.48E+09,-0.030436,-0.229202,0.090246,-0.052406,0.013067,0.013218
1.48E+09,-0.039149,-0.245229,0.078126,-0.056517,0.009878,0.002629
1.48E+09,-0.045343,-0.261188,0.059909,-0.060898,0.017398,5.49E-04
1.48E+09,-0.047845,-0.266015,0.04401,-0.046586,0.021807,0.005043
1.48E+09,-0.051796,-0.249856,0.031416,-0.030886,0.021835,0.01014
1.48E+09,-0.063612,-0.198124,0.047543,-0.025818,0.026208,0.013346
1.48E+09,-0.063372,-0.214815,0.120189,-0.027249,0.026621,0.017633
1.48E+09,-0.12064,-0.170461,0.098989,-0.021,-0.019503,0.007788
1.48E+09,-0.130481,-0.059256,0.103102,-0.0262,0.02845,0.043694
1.48E+09,-0.141488,-0.096592,0.123196,-0.018033,0.027136,0.039842
1.48E+09,-0.166801,-0.0906,0.127633,-0.031281,-0.002499,0.012458
1.48E+09,-0.17311,-0.089514,0.141015,-0.034488,-0.005419,0.011081
1.48E+09,-0.131579,-0.194276,0.274613,-0.042197,-0.012516,0.007052
1.48E+09,-0.149094,-0.230403,0.147419,-0.049465,-0.027339,-0.01333
1.48E+09,-0.110233,-0.071345,0.099854,-0.055482,-0.046122,-0.01668
1.48E+09,-0.061663,-0.135301,0.09305,-0.087754,0.09204,0.020858
1.48E+09,-0.040079,-0.154516,0.040948,-0.072012,0.035605,-0.009229
1.48E+09,-0.006051,-0.150324,0.008255,-0.07301,0.017417,-0.003651
1.48E+09,-8.65E-04,-0.166299,1.40E-05,-0.05189,0.015346,7.27E-04
1.48E+09,-0.022429,-0.155358,0.006877,-0.030521,0.008706,0.005717
1.48E+09,-0.030375,-0.112271,0.024431,-0.021988,9.09E-04,0.026782
1.48E+09,-0.054525,-0.091647,0.054396,-0.028094,0.003275,0.060713
1.48E+09,-0.104846,-0.100259,0.15929,-0.037616,0.014796,0.080485
1.48E+09,-0.136388,-0.111152,0.108733,-0.002099,-0.061245,0.073446
1.48E+09,-0.158747,-0.011235,0.122667,-0.073984,0.070677,0.091831
1.48E+09,-0.166411,-0.140005,0.135768,-0.054126,0.039716,0.104677
1.48E+09,-0.180176,-0.156104,0.128476,-0.073972,0.005186,0.063044
1.48E+09,-0.192906,-0.146222,0.120767,-0.083318,0.024376,0.083721
1.48E+09,-0.208067,-0.147455,0.109531,-0.088123,0.026805,0.081256
1.48E+09,-0.22683,-0.169714,0.096145,-0.09033,0.015557,0.080831
1.48E+09,-0.258209,-0.194481,0.077713,-0.099379,0.027799,0.087837
1.48E+09,-0.29579,-0.232826,0.052062,-0.108464,0.028749,0.095672
1.48E+09,-0.348559,-0.2699,0.011453,-0.11748,0.037252,0.110355
1.48E+09,-0.425222,-0.320605,-0.042762,-0.119546,0.054472,0.126306
1.48E+09,-0.565021,-0.385092,-0.095307,-0.113378,0.064721,0.142937
1.48E+09,-0.787804,-0.482361,-0.158204,-0.091529,0.078563,0.171126
1.48E+09,-1.098882,-0.597258,-0.246607,-0.059956,0.11155,0.195998
1.48E+09,-1.50602,-0.708826,-0.358529,-0.03043,0.151486,0.203716
1.48E+09,-1.996734,-0.80673,-0.536891,-0.016518,0.16505,0.183316
1.48E+09,-2.522828,-0.907079,-0.743931,-0.027267,0.125143,0.134961
1.48E+09,-2.949438,-0.972281,-0.941543,-0.027011,0.07226,0.13172
1.48E+09,-3.187436,-0.937651,-1.111135,0.020537,-0.00314,0.142799
1.48E+09,-3.296265,-0.790257,-1.215763,0.051426,0.018873,0.172368
1.48E+09,-3.284923,-0.649097,-1.22902,0.081613,0.155954,0.262205
1.48E+09,-3.320775,-0.723062,-1.136305,0.068408,0.393724,0.370833
1.48E+09,-3.414669,-0.959645,-1.158196,-0.075909,0.638332,0.314381
1.48E+09,-3.472029,-1.464416,-1.173806,-0.194553,0.827338,0.267109
1.48E+09,-3.55703,-1.69313,-1.096358,-0.34154,0.918808,-0.038423
1.48E+09,-3.5644,-2.947691,-0.886413,-0.212091,0.843411,-0.199918
1.48E+09,-3.458651,-4.003452,-0.706399,-0.113875,0.765321,-0.445862
1.48E+09,-3.308355,-4.113111,-0.50124,-0.053467,0.61975,-0.579116
1.48E+09,-3.228666,-3.824531,-0.350428,-0.128673,0.410006,-0.516126
1.48E+09,-3.27498,-3.575971,-0.236327,-0.199582,0.242441,-0.357336
1.48E+09,-3.435449,-3.701216,-0.164168,-0.251698,0.174274,-0.162068
1.48E+09,-3.506891,-4.035989,-0.111717,-0.209748,0.203522,0.050862
1.48E+09,-3.440716,-4.373027,-0.132054,-0.136846,0.20913,-0.066406
1.48E+09,-3.292832,-4.514869,-0.071108,-0.064737,0.169446,-0.215801
1.48E+09,-3.163781,-4.246441,0.012075,-0.059546,0.121739,-0.286294
1.48E+09,-3.15754,-4.075897,0.176084,-0.090228,0.14456,-0.310479
1.48E+09,-3.147238,-4.077115,0.327107,-0.081705,0.093006,-0.290398
1.48E+09,-3.042242,-3.942408,0.412201,-0.036919,0.066987,-0.273958
1.48E+09,-2.885861,-3.606811,0.614837,-0.030343,0.108162,-0.321699
1.48E+09,-2.758453,-3.282372,0.800074,-0.099678,0.12167,-0.331315
1.48E+09,-2.660058,-3.107428,0.948168,0.015756,-0.06693,-0.2306
1.48E+09,-2.624765,-2.812083,0.998882,0.064566,-0.142852,-0.249843
1.48E+09,-2.4839,-2.32401,1.001262,0.081247,-0.166046,-0.276849
1.48E+09,-2.324385,-1.950375,0.949426,0.058478,-0.143466,-0.285013
1.48E+09,-2.177033,-1.777813,0.829674,0.089886,-0.515759,-0.324169
1.48E+09,-2.031997,-1.634575,0.666232,0.055352,-0.598682,-0.309707
1.48E+09,-1.892816,-1.542092,0.504788,-0.05642,-0.400829,-0.303959
1.48E+09,-1.679325,-1.560756,0.378181,-0.14131,-0.31172,-0.28751
1.48E+09,-1.486852,-1.627905,0.266807,-0.176342,-0.196543,-0.330842
1.48E+09,-1.285585,-1.678394,0.238677,-0.16908,-0.20107,-0.35859
1.48E+09,-1.081081,-1.530803,0.187627,-0.148374,-0.196134,-0.37397
1.48E+09,-0.961814,-1.315741,0.140339,-0.109107,-0.174127,-0.377872
1.48E+09,-0.882228,-1.040465,0.109859,-0.119845,-0.262854,-0.366682
1.48E+09,-0.836904,-0.745747,0.095727,-0.101068,-0.257763,-0.360588
1.48E+09,-0.783884,-0.464547,0.077028,-0.065602,-0.252766,-0.347917
1.48E+09,-0.69016,-0.219869,0.01906,0.008416,-0.148559,-0.320381
1.48E+09,-0.638642,0.07685,-0.080869,0.008043,-0.134262,-0.298036
1.48E+09,-0.637909,0.2608,-0.189439,-0.020665,-0.122272,-0.234766
1.48E+09,-0.615951,0.33118,-0.306823,-0.016796,-0.117919,-0.23848
1.48E+09,-0.545562,0.355969,-0.409247,-0.035022,-0.107422,-0.191256
1.48E+09,-0.425918,0.382264,-0.508533,0.011283,-0.09719,-0.152659
1.48E+09,-0.271761,0.364196,-0.601666,0.041055,-0.100103,-0.131015
1.48E+09,-0.119609,0.288015,-0.697526,0.049524,-0.086181,-0.07153
1.48E+09,0.005087,0.176906,-0.777249,0.004952,-0.10612,-0.016845
1.48E+09,0.136424,0.032296,-0.83914,-0.052919,-0.140246,-0.017265
1.48E+09,0.319389,-0.090016,-0.868775,-0.065179,-0.154524,-0.061007
1.48E+09,0.542901,-0.087117,-0.90607,-0.059514,-0.21261,-0.119322
1.48E+09,0.808233,-0.098834,-0.940062,-0.033371,-0.302924,-0.124449
1.48E+09,1.136757,-0.257143,-0.996423,0.016303,-0.384137,-0.054845
1.48E+09,1.575649,-0.336339,-1.116301,0.056309,-0.484652,0.077652
1.48E+09,1.951388,0.012652,-1.170731,0.070392,-0.545287,0.14615
1.48E+09,1.188239,0.836379,-0.413177,0.143562,-0.411296,-0.025559
1.48E+09,-0.570237,0.662952,0.268348,0.382888,-0.233021,-0.032454
1.48E+09,-0.536555,-1.030974,-0.180888,1.267055,0.306695,0.998985
1.48E+09,-0.015366,0.174883,-0.990914,1.108451,2.547835,2.231694
1.48E+09,1.052618,1.387156,-0.856144,-0.020714,2.472651,1.260038
1.48E+09,2.285661,0.142163,-0.601471,-0.826566,0.982852,1.119764
1.48E+09,2.224188,0.388315,-0.505945,0.951783,-0.65113,-0.551701
1.48E+09,1.796095,1.519427,-0.321495,1.429486,-1.178346,-0.682607
1.48E+09,1.674628,2.232802,-0.386802,0.595039,-0.677906,0.225066
1.48E+09,1.943709,2.495072,-0.498953,0.313006,0.267757,0.004902
1.48E+09,2.270291,2.280564,-0.491843,-0.177403,0.368219,-0.249897
1.48E+09,2.183947,2.047706,-0.510009,-0.178875,0.358296,-0.346814
1.48E+09,1.996478,2.239826,-0.549073,-0.141278,0.467678,-0.287474
1.48E+09,1.961633,2.755673,-0.446676,-0.163351,0.599439,-0.065145
1.48E+09,1.97838,3.018033,-0.311048,0.006481,0.514749,-0.140498
1.48E+09,2.023318,3.226721,-0.242787,0.289653,0.306911,-0.27458
1.48E+09,2.055521,3.437174,-0.245875,0.331677,0.097817,-0.328505
1.48E+09,2.095644,3.744469,-0.288503,0.220507,-0.03613,-0.318893
1.48E+09,2.116205,4.120838,-0.323995,0.062427,-0.033888,-0.272494
1.48E+09,2.066204,4.352414,-0.251359,-0.069857,0.046545,-0.294211
1.48E+09,1.943811,4.230875,-0.005784,-0.137166,0.117265,-0.323509
1.48E+09,1.939722,3.865911,0.154851,-0.087081,0.141366,-0.315685
1.48E+09,1.96854,3.492566,0.306291,0.005394,0.128163,-0.295781
1.48E+09,1.986987,3.281601,0.405782,0.010851,0.077283,-0.31243
1.48E+09,1.993807,3.094369,0.469136,-0.02514,-0.033673,-0.347767
1.48E+09,1.98363,2.825739,0.494374,-0.093004,-0.051551,-0.364917
1.48E+09,1.891734,2.512213,0.505698,-0.160011,-0.053607,-0.392532
1.48E+09,1.784534,2.208867,0.472478,-0.177463,-0.053493,-0.398763
1.48E+09,1.662816,1.975841,0.448899,-0.186638,-0.048492,-0.369755
1.48E+09,1.522222,1.877343,0.443626,-0.201469,-0.049342,-0.355011
1.48E+09,1.377491,1.817162,0.437646,-0.167739,-0.057412,-0.294262
1.48E+09,1.27008,1.820311,0.427457,-0.128669,-0.076686,-0.226137
1.48E+09,1.235649,1.846674,0.356608,-0.073852,-0.101407,-0.167898
1.48E+09,1.181684,1.79868,0.29041,-0.019265,-0.101651,-0.149943
1.48E+09,1.068968,1.833706,0.309041,0.037521,-0.080892,-0.139652
1.48E+09,0.940571,1.932571,0.371747,0.096935,-0.065377,-0.113565
1.48E+09,0.787198,2.127937,0.439705,0.095028,-0.145009,-0.018353
1.48E+09,0.683701,2.391188,0.384709,0.094922,-0.164671,0.029796
1.48E+09,0.579395,2.465157,0.337803,0.096521,-0.164857,0.118761
1.48E+09,0.500956,2.335064,0.310657,0.160336,-0.032206,0.203242
1.48E+09,0.433526,2.246944,0.300133,0.088056,-0.027055,0.189801
1.48E+09,0.398216,2.235885,0.266695,-0.025032,-0.037495,0.2147
1.48E+09,0.398051,2.115827,0.278531,-0.151504,-0.046038,0.214427
1.48E+09,0.44372,1.820171,0.322202,-0.250693,-0.060563,0.17292
1.48E+09,0.546811,1.460547,0.366554,-0.334258,-0.120779,0.120479
1.48E+09,0.759207,1.162434,0.380785,-0.405259,-0.173472,0.083352
1.48E+09,1.07416,0.975161,0.376229,-0.451333,-0.174401,0.034784
1.48E+09,1.423221,0.931324,0.397952,-0.464705,-0.153364,0.008841
1.48E+09,1.66634,1.019743,0.498085,-0.42728,-0.141236,0.046537
1.48E+09,1.886475,1.11895,0.476286,-0.332464,-0.097706,0.099879
1.48E+09,2.07691,1.1453,0.420947,-0.196474,-0.058096,0.141756
1.48E+09,2.138616,1.159685,0.372537,-0.144817,0.043074,0.09806
1.48E+09,2.08516,0.929047,0.407546,-0.079049,0.151429,0.118321
1.48E+09,1.892921,0.552121,0.532553,-0.098373,0.238338,0.201217
1.48E+09,1.720972,0.291277,0.545512,-0.122033,0.259532,0.210105
1.48E+09,1.672411,0.068681,0.510547,-0.118861,0.22949,0.229515
1.48E+09,1.481808,-0.085854,0.51531,-0.099497,0.384127,0.207911
1.48E+09,1.102618,0.356078,0.485205,-0.14065,0.591297,0.276639
1.48E+09,0.733626,1.054864,0.360154,-0.157203,0.665922,0.552783
1.48E+09,0.345263,1.369618,0.154228,-0.232988,0.782783,0.537016
1.48E+09,-0.086883,1.09437,0.076596,-0.298361,0.978595,0.351173
1.48E+09,-0.48261,0.15685,0.102653,-0.160564,0.888251,0.197109
1.48E+09,-0.830553,-0.88499,0.214559,-0.066266,0.610053,0.011098
1.48E+09,-1.185588,-1.552672,0.386276,-0.023758,0.397766,-0.114185
1.48E+09,-1.519663,-1.895471,0.469412,0.02036,0.285514,-0.056939
1.48E+09,-2.056,-2.110302,0.338971,-0.025172,0.214669,0.096238
1.48E+09,-2.770187,-2.092546,0.070805,-0.088935,0.160857,0.137266
1.48E+09,-3.417558,-1.926806,-0.246725,-0.150691,0.142246,0.254086
1.48E+09,-3.788067,-1.502398,-0.537643,-0.165069,0.142015,0.389642
1.48E+09,-3.899668,-1.346436,-0.779819,-0.163538,0.157995,0.451891
1.48E+09,-3.671518,-1.592394,-0.92568,-0.210603,0.17608,0.379092
1.48E+09,-3.084481,-1.30033,-1.117143,-0.34012,0.439957,-0.060542
1.48E+09,-2.639443,-0.377962,-1.217046,-0.343377,0.573375,-0.29194
1.48E+09,-2.6249,-0.164278,-1.17629,-0.302434,0.536033,-0.452725
1.48E+09,-2.761805,-0.932955,-1.043872,-0.187282,0.310912,-0.721735
1.48E+09,-2.909327,-1.923161,-0.899283,-0.039924,0.06697,-1.012552
1.48E+09,-3.076425,-2.852359,-0.817328,0.109222,-0.057305,-1.07952
1.48E+09,-3.142531,-3.922655,-0.795309,0.161964,-0.113674,-1.019876
1.48E+09,-3.256659,-4.847517,-0.749457,0.113055,0.078198,-1.080726
1.48E+09,-3.49705,-5.215581,-0.682939,0.107054,0.267854,-1.100405
1.48E+09,-3.599839,-4.630789,-0.884395,0.064869,0.267513,-0.96835
1.48E+09,-3.641613,-3.676592,-1.146396,-6.47E-04,0.115468,-0.549763
1.48E+09,-3.643335,-2.651076,-1.185809,-0.171522,0.041046,-0.154533
1.48E+09,-3.462146,-2.659476,-0.795492,-0.243894,0.103911,0.061748
1.48E+09,-3.378185,-3.376762,-0.441217,-0.108961,0.230742,-0.248052
1.48E+09,-3.428894,-3.59485,-0.134107,0.226839,0.044132,-0.917747
1.48E+09,-3.500645,-3.162474,0.160492,0.41593,-0.287461,-0.903879
1.48E+09,-3.405936,-2.864773,0.267214,0.246208,-0.398263,-0.404268
1.48E+09,-3.161197,-2.245242,0.445484,-0.227824,-0.229674,-0.361467
1.48E+09,-2.790132,-1.911548,0.587476,-0.30437,-0.08537,-0.2071
1.48E+09,-2.319977,-1.79753,0.600924,-0.259262,4.76E-04,-0.251013
1.48E+09,-1.879066,-1.677781,0.501019,-0.188154,-0.020513,-0.257605
1.48E+09,-1.378427,-1.614739,0.276609,-0.201233,-0.085781,-0.22522
1.48E+09,-0.840786,-1.589978,0.071777,-0.133771,-0.15055,-0.230629
1.48E+09,-0.326453,-1.492952,-0.067158,-0.086169,-0.10903,-0.256248
1.48E+09,0.182452,-1.211856,-0.187201,0.063329,-0.064212,-0.2868
1.48E+09,0.690076,-0.795547,-0.357377,0.160906,-0.060467,-0.276225
1.48E+09,1.232589,-0.330515,-0.560987,0.193992,-0.111782,-0.226638
1.48E+09,1.771781,0.352753,-0.835783,0.13977,-0.21436,-0.192127
1.48E+09,2.223231,1.101013,-1.108037,0.044123,-0.300414,-0.12035
1.48E+09,2.505509,1.707941,-1.312893,-0.004577,-0.393667,0.027558
1.48E+09,2.658968,1.921468,-1.300791,0.01071,-0.426025,0.244124
1.48E+09,2.435785,1.784835,-0.950941,0.055534,-0.408656,0.74588
1.48E+09,1.451707,1.324211,-0.268106,0.062018,-0.427447,0.764818
1.48E+09,1.607813,0.138236,-0.155074,0.061171,-0.268261,1.15066
1.48E+09,1.499204,-2.017112,-0.542159,0.59593,0.05433,0.792213
1.48E+09,1.900061,-1.387512,-0.711345,-0.369214,1.022637,-0.582945
1.48E+09,2.167548,0.502697,-0.445042,-0.730783,0.992978,0.25748
1.48E+09,2.417158,0.028653,-0.220034,-0.567322,0.719284,-0.251077
1.48E+09,2.631145,0.550666,-0.084714,0.562992,0.467241,-0.610736
1.48E+09,2.430482,1.335664,-0.340021,0.952729,0.069556,-0.471456
1.48E+09,2.297081,2.105032,-0.454277,0.607766,-0.42204,-0.343296
1.48E+09,2.194702,2.411142,-0.312521,0.248669,-0.53909,-0.28034
1.48E+09,2.122086,2.502031,-0.144627,0.13781,-0.339418,-0.292651
1.48E+09,1.998234,2.385245,-0.023024,0.050676,-0.00179,-0.388489
1.48E+09,1.808638,2.264974,0.025327,-0.09301,0.18943,-0.473435
1.48E+09,1.750726,2.393824,0.102035,-0.153905,0.288509,-0.442546
1.48E+09,1.70361,2.729082,0.199944,-0.158495,0.371508,-0.296121
1.48E+09,1.69213,2.878816,0.18008,-0.036191,0.38184,-0.309866
1.48E+09,1.642656,2.752949,0.112809,0.131801,0.29985,-0.330679
1.48E+09,1.609261,2.672472,0.100194,0.167269,0.160451,-0.27876
1.48E+09,1.67074,2.863017,0.132206,0.064178,0.003915,-0.207513
1.48E+09,1.685042,2.822036,0.162539,-0.069072,-0.11459,-0.220576
1.48E+09,1.648692,2.517195,0.210086,-0.19956,-0.147729,-0.28578
1.48E+09,1.506085,2.111387,0.422148,-0.271279,-0.129975,-0.309968
1.48E+09,1.450302,2.162444,0.632657,-0.318995,-0.070434,-0.345535
1.48E+09,1.392514,2.285838,0.769556,-0.212523,-0.031233,-0.20266
1.48E+09,1.333104,2.162302,0.857862,-0.149356,-0.030365,-0.17636
1.48E+09,1.313933,1.909739,0.877792,-0.091253,-0.044558,-0.174923
1.48E+09,1.338436,1.567726,0.831182,-0.070868,-0.054233,-0.227077
1.48E+09,1.270719,1.081987,0.751326,-0.089701,-0.034865,-0.309505
1.48E+09,1.293037,0.828609,0.605071,-0.075043,0.001525,-0.372672
1.48E+09,1.283969,0.69217,0.524967,-0.057902,0.024718,-0.307447
1.48E+09,1.275478,0.642106,0.443518,-0.059203,0.019221,-0.289529
1.48E+09,1.226504,0.740129,0.370021,-0.101669,-0.077385,-0.132149
1.48E+09,1.118486,0.806592,0.330546,-0.091467,-0.091282,-0.028495
1.48E+09,0.944702,0.884838,0.313225,-0.037281,-0.107071,0.059576
1.48E+09,0.799737,0.988064,0.287313,0.033617,-0.140763,0.146081
1.48E+09,0.70945,1.051992,0.26776,0.07398,-0.165802,0.197231
1.48E+09,0.601259,1.146351,0.292814,0.067163,-0.173434,0.222378
1.48E+09,0.485351,1.256691,0.323619,0.034406,-0.173092,0.256153
1.48E+09,0.433318,1.283584,0.32364,-0.015759,-0.163122,0.276759
1.48E+09,0.477033,1.202013,0.348951,-0.085268,-0.150407,0.245006
1.48E+09,0.560603,1.043973,0.378581,-0.155977,-0.138941,0.169867
1.48E+09,0.678524,0.856586,0.393258,-0.22499,-0.157432,0.117591
1.48E+09,0.839761,0.625148,0.383548,-0.319439,-0.148689,0.141712
1.48E+09,1.00702,0.432908,0.422322,-0.364578,-0.14289,0.19385
1.48E+09,1.191884,0.386864,0.441712,-0.384646,-0.156122,0.217823
1.48E+09,1.362689,0.355777,0.437344,-0.334843,-0.198321,0.245726
1.48E+09,1.484661,0.276216,0.426956,-0.254412,-0.179735,0.134249
1.48E+09,1.601811,0.169511,0.40592,-0.236936,-0.094517,0.072437
1.48E+09,1.748257,0.031122,0.350274,-0.21341,-0.005786,0.026783
1.48E+09,1.917461,-0.117744,0.23381,-0.165526,0.090244,0.013757
1.48E+09,2.050898,-0.351603,0.197985,-0.116335,0.211857,0.044755
1.48E+09,1.933233,-0.580499,0.419685,-0.106363,0.360478,0.018344
1.48E+09,1.555715,-0.304253,0.533444,-0.228041,0.445282,0.048504
1.48E+09,1.182931,0.26059,0.451072,-0.320412,0.416358,0.309057
1.48E+09,0.906528,0.773463,0.294929,-0.393184,0.620224,0.418389
1.48E+09,0.686291,0.940466,0.131945,-0.288604,0.88464,0.361224
1.48E+09,0.303696,0.636856,0.080035,-0.061563,0.932833,0.376716
1.48E+09,-0.217291,0.012066,0.179951,0.012585,0.877902,0.275158
1.48E+09,-0.678643,-0.639717,0.297126,0.120905,0.672655,0.217957
1.48E+09,-1.029138,-1.122376,0.382386,0.226937,0.431193,0.187387
1.48E+09,-1.392514,-1.441609,0.436493,0.170073,0.331655,0.231846
1.48E+09,-1.794995,-1.637951,0.408242,0.083337,0.285248,0.251846
1.48E+09,-2.29625,-1.957883,0.30093,-0.1065,0.202273,0.226507
1.48E+09,-2.95141,-2.446539,0.147641,-0.177529,0.197862,0.24411
1.48E+09,-3.675985,-2.820662,-0.144721,-0.210352,0.21688,0.357738
1.48E+09,-4.209298,-2.969965,-0.417267,-0.2905,0.247779,0.504622
1.48E+09,-4.223801,-2.496768,-0.521127,-0.445839,0.298994,0.459234
1.48E+09,-3.772442,-1.162111,-0.673277,-0.505607,0.417702,0.266212
1.48E+09,-3.490266,0.161724,-0.836272,-0.404608,0.507448,-0.012711
1.48E+09,-3.245239,0.874903,-0.763828,-0.332474,0.555855,-0.255376
1.48E+09,-2.963029,0.693787,-0.642636,-0.148027,0.49782,-0.374034
1.48E+09,-2.789291,-0.222713,-0.649186,0.088695,0.335604,-0.629971
1.48E+09,-2.706036,-1.340718,-0.728454,0.186332,0.208754,-0.890634
1.48E+09,-2.807251,-2.185774,-0.897166,0.170488,0.133629,-0.9702
1.48E+09,-3.070358,-2.8732,-1.102763,0.118681,0.072891,-0.908345
1.48E+09,-3.442015,-3.56528,-1.274282,0.0298,0.147263,-0.784398
1.48E+09,-3.631032,-4.047983,-1.360846,-0.06171,0.435914,-0.726368
1.48E+09,-3.522497,-4.15738,-1.216391,-0.107332,0.597621,-0.675599
1.48E+09,-3.316896,-3.962139,-1.052374,-0.063958,0.374711,-0.670706
1.48E+09,-3.167604,-3.417766,-0.974783,-0.056103,0.085485,-0.560427
1.48E+09,-3.294884,-2.866077,-0.7897,-0.183875,-0.070496,-0.435883
1.48E+09,-3.519197,-2.888283,-0.517838,-0.136839,-0.07764,-0.369396
1.48E+09,-3.561624,-3.191216,-0.261914,0.01109,-0.029307,-0.422905
1.48E+09,-3.413292,-3.228808,-0.098473,0.079835,0.040076,-0.496887
1.48E+09,-3.263269,-3.045535,-0.020908,0.10305,0.069162,-0.608734
1.48E+09,-3.048577,-2.465178,0.088908,-0.090156,0.086782,-0.578083
1.48E+09,-2.748042,-2.034221,0.085972,-0.261965,-0.029973,-0.432494
1.48E+09,-2.314147,-1.819163,0.116814,-0.280721,-0.179452,-0.36327
1.48E+09,-1.912772,-1.6448,0.11108,-0.164687,-0.208054,-0.410843
1.48E+09,-1.584383,-1.501768,0.102368,-0.050873,-0.24906,-0.428141
1.48E+09,-1.156661,-1.319101,0.011023,-0.027169,-0.368065,-0.418083
1.48E+09,-0.663963,-1.067422,-0.151685,0.01603,-0.427749,-0.415959
1.48E+09,-0.122051,-0.806992,-0.290527,0.019577,-0.439054,-0.416839
1.48E+09,0.40012,-0.596297,-0.411643,0.022168,-0.395827,-0.411442
1.48E+09,0.825025,-0.387309,-0.5464,0.086996,-0.340196,-0.473464
1.48E+09,1.226095,-0.06539,-0.744729,0.107571,-0.351351,-0.403359
1.48E+09,1.605394,0.426034,-0.968311,0.083323,-0.348118,-0.262651
1.48E+09,1.972288,1.040539,-1.1316,0.026424,-0.360758,-0.097839
1.48E+09,2.266222,1.642172,-1.141192,0.006815,-0.398619,0.112953
1.48E+09,2.137763,2.050058,-0.915679,0.036875,-0.449735,0.300533
1.48E+09,1.180791,2.040085,-0.56507,0.11233,-0.481854,0.414317
1.48E+09,0.709392,1.133952,-0.210719,0.139709,-0.310602,0.986831
1.48E+09,0.719709,-0.766861,-0.633497,0.319869,0.038837,1.654496
1.48E+09,0.842762,-1.691933,-0.831961,0.414097,0.715404,0.792504
1.48E+09,1.275025,0.383112,-0.808011,-0.523852,1.191901,0.060204
1.48E+09,1.909456,0.800449,-0.571645,-0.858539,1.045306,0.312345
1.48E+09,2.357941,0.403151,-0.359778,-0.618806,0.598434,-0.369674
1.48E+09,2.313171,0.71166,-0.606017,0.517389,0.053526,-0.525437
1.48E+09,2.422131,1.47536,-0.900647,0.878867,-0.556574,-0.243439
1.48E+09,2.495004,2.220179,-0.890092,-0.058637,-0.413821,-0.142385
1.48E+09,2.389368,2.202551,-0.636217,-0.098758,-0.150045,-0.324725
1.48E+09,2.292553,1.906749,-0.384878,0.031145,0.101876,-0.332725
1.48E+09,2.178974,1.773799,-0.245684,0.059585,0.309936,-0.311687
1.48E+09,2.088643,1.858971,-0.145404,-0.032851,0.369957,-0.295339
1.48E+09,1.977885,2.117782,0.026464,-0.147021,0.344608,-0.258046
1.48E+09,1.919899,2.258751,0.132402,-0.1218,0.264308,-0.214777
1.48E+09,1.92665,2.211729,0.140652,0.008654,0.117388,-0.208741
1.48E+09,1.986994,2.096311,0.085828,0.142515,-0.036164,-0.277715
1.48E+09,2.055705,2.029428,8.71E-04,0.200056,-0.122334,-0.325337
1.48E+09,2.12143,2.157658,-0.053083,0.173215,-0.141274,-0.346741
1.48E+09,2.206069,2.4318,-0.092056,0.094056,-0.106117,-0.334326
1.48E+09,2.142668,2.600706,-0.076199,-0.030554,-0.039884,-0.270948
1.48E+09,1.947859,2.639831,-0.015896,-0.153586,-0.004967,-0.319351
1.48E+09,1.74117,2.453917,0.03209,-0.177198,0.090218,-0.313491
1.48E+09,1.634625,2.234845,0.123781,-0.173658,0.141554,-0.283616
1.48E+09,1.556111,1.981415,0.224948,-0.07135,0.061851,-0.240904
1.48E+09,1.487682,1.879933,0.331149,0.016424,-0.057279,-0.241193
1.48E+09,1.452742,1.706923,0.437813,0.068927,-0.125129,-0.192722
1.48E+09,1.376642,1.751571,0.514454,0.071342,-0.199835,-0.210154
1.48E+09,1.319241,1.960985,0.570186,0.023078,-0.242709,-0.170042
1.48E+09,1.332968,1.99126,0.655725,-0.024066,-0.244181,-0.138301
1.48E+09,1.326101,1.913246,0.663075,-0.028727,-0.205262,-0.152209
1.48E+09,1.320824,1.912353,0.472914,-0.026502,-0.16012,-0.139238
1.48E+09,1.321123,1.707788,0.242119,-0.03113,-0.08765,-0.105371
1.48E+09,1.363752,1.448055,0.130605,-0.121645,-0.014598,-0.130418
1.48E+09,1.389019,1.160509,0.078181,-0.198083,0.021193,-0.146525
1.48E+09,1.431392,0.809248,0.114157,-0.22609,-0.014184,-0.121508
1.48E+09,1.457033,0.501811,0.220286,-0.240403,-0.05836,-0.114567
1.48E+09,1.435176,0.272389,0.28026,-0.20082,-0.108464,-0.08076
1.48E+09,1.309826,0.181567,0.401403,-0.166663,-0.143277,-0.072268
1.48E+09,1.156671,0.087193,0.484183,-0.147847,-0.145237,-0.04746
1.48E+09,1.043542,0.028216,0.504395,-0.009216,-0.153264,0.080315
1.48E+09,0.932327,0.033765,0.500242,0.069694,-0.065698,0.160441
1.48E+09,0.81713,0.193104,0.440699,0.115449,-0.005088,0.231868
1.48E+09,0.751744,0.410932,0.227581,0.13536,0.043392,0.308684
1.48E+09,0.695276,0.758764,0.002585,0.09704,0.076407,0.302948
1.48E+09,0.702632,0.936101,0.095361,0.045033,0.119819,0.29888
1.48E+09,0.770421,0.860015,0.22027,0.06938,0.053359,0.287709
1.48E+09,0.794302,0.617496,0.398865,0.058073,-0.042397,0.175992
1.48E+09,0.697256,0.326692,0.498036,-0.017756,-0.07688,0.032778
1.48E+09,0.504116,0.307311,0.458781,-0.140664,-0.131286,-0.080928
1.48E+09,0.447623,0.265133,0.434149,-0.256953,-0.139944,-0.153797
1.48E+09,0.56048,0.21406,0.412111,-0.343272,-0.127001,-0.257585
1.48E+09,0.759321,0.28404,0.321816,-0.337049,-0.068027,-0.395236
1.48E+09,0.828382,0.170648,0.180006,-0.171449,0.005197,-0.260334
1.48E+09,0.816118,-0.160221,0.105695,-0.031591,0.026511,-0.198956
1.48E+09,0.850042,-0.42672,0.056719,0.008706,0.062963,-0.253406
1.48E+09,0.899705,-0.466277,0.089991,-0.033279,0.049669,-0.267608
1.48E+09,0.924138,-0.222029,0.179431,-0.079573,-0.027877,-0.124199
1.48E+09,0.876739,0.143005,0.265795,-0.09648,-0.101963,0.050155
1.48E+09,0.73031,0.282444,0.3435,-0.10262,-0.118232,0.160512
1.48E+09,0.544229,0.187262,0.352231,-0.05884,-0.085097,0.127201
1.48E+09,0.381333,0.028765,0.260571,-0.039013,-0.025671,-0.002171
1.48E+09,0.282739,0.018153,0.129323,-0.066371,0.046892,-0.101933
1.48E+09,0.220115,0.076082,-0.03813,-0.099319,0.12048,-0.117027
1.48E+09,0.212965,0.158294,-0.113208,-0.116053,0.172435,-0.100347
1.48E+09,0.226047,0.110041,-0.101167,-0.075931,0.141132,-0.069275
1.48E+09,0.194863,-0.061564,-0.011642,0.012972,0.087743,-0.089496
1.48E+09,0.135553,-0.076258,-0.07112,0.070441,0.070713,-0.146895
1.48E+09,0.107642,0.068787,-0.132841,0.025817,0.105921,-0.182361
1.48E+09,0.026541,0.24002,-0.112373,-0.057737,0.070067,-0.151414
1.48E+09,-0.133034,0.30118,-4.23E-04,-0.059913,0.0306,-0.079987
1.48E+09,-0.23227,0.257428,0.130113,0.029434,-0.024582,0.039088
1.48E+09,-0.272699,0.130294,0.218753,0.039984,-0.036139,-0.009301
1.48E+09,-0.249704,-0.030796,0.273315,-0.003772,-0.024621,-0.074142
1.48E+09,-0.139692,-0.181155,0.290933,-0.052758,-0.022736,-0.124758
1.48E+09,0.026888,-0.304957,0.279484,-0.080703,-0.050611,-0.168923
1.48E+09,0.173045,-0.410036,0.233083,-0.098211,-0.081369,-0.21056
1.48E+09,0.270447,-0.438314,0.13685,-0.126486,-0.065657,-0.224698
1.48E+09,0.320573,-0.410973,0.010787,-0.175388,-0.013951,-0.187531
1.48E+09,0.299742,-0.35467,-0.081222,-0.216978,0.017294,-0.13336
1.48E+09,0.242357,-0.299091,-0.11365,-0.201809,-0.009562,-0.094874
1.48E+09,0.193682,-0.225137,-0.11928,-0.152887,-0.042777,-0.088937
1.48E+09,0.15748,-0.131455,-0.10912,-0.083967,-0.041597,-0.09199
1.48E+09,0.108803,-0.053998,-0.09028,-0.014623,-0.008739,-0.08619
1.48E+09,0.042761,-0.010142,-0.05886,0.043233,0.027162,-0.062558
1.48E+09,-0.020083,-0.03816,-0.007783,0.090081,0.054291,-0.036781
1.48E+09,-0.050122,-0.062253,0.041248,0.119262,0.064097,-0.027951
1.48E+09,-0.071823,-0.03063,0.088232,0.084353,0.03007,-0.041702
1.48E+09,-0.088753,0.028462,0.10784,0.044325,0.008185,-0.049977
1.48E+09,-0.080271,0.069265,0.114632,0.006173,0.00213,-0.054613
1.48E+09,-0.050083,0.081915,0.10259,-0.020172,0.00392,-0.072307
1.48E+09,-0.014666,0.073654,0.081165,-0.038687,0.007194,-0.086908
1.48E+09,0.009545,0.045651,0.04642,-0.037804,0.015868,-0.086413
1.48E+09,0.032363,0.031287,0.006519,-0.039175,0.012425,-0.081167
1.48E+09,0.039774,0.046391,-0.019385,-0.040643,0.019897,-0.067812
1.48E+09,0.021825,0.072456,-0.043387,-0.038978,0.023674,-0.05534
1.48E+09,0.006194,0.124332,-0.046941,-0.040046,0.01249,-0.050675
1.48E+09,0.004656,0.15754,-0.026674,-0.049663,-0.00944,-0.048942
1.48E+09,0.005016,0.121446,9.22E-04,-0.067092,-0.030699,-0.054343
1.48E+09,0.006438,0.109938,0.046516,-0.059942,-0.031366,-0.062786
1.48E+09,0.024265,0.098641,0.078852,-0.024793,-0.03992,-0.06549
1.48E+09,0.048299,0.096226,0.089051,-0.02427,-0.031923,-0.071167
1.48E+09,0.025649,0.087383,0.095006,-0.024918,-0.017911,-0.081383
1.48E+09,-0.001691,0.037747,0.095448,-0.026628,0.01382,-0.074583
1.48E+09,-0.026727,0.011677,0.089394,-0.025969,0.016972,-0.072343
1.48E+09,-0.040791,0.027829,0.070522,-0.034098,0.021786,-0.057884
1.48E+09,-0.050035,0.067644,0.035376,-0.048791,0.02047,-0.051314
1.48E+09,-0.04536,0.107376,0.020055,-0.072251,0.019056,-0.04559
1.48E+09,-0.027975,0.139688,0.013628,-0.074164,0.01494,-0.044529
1.48E+09,-0.018384,0.197803,0.021371,-0.072526,0.004338,-0.043939
1.48E+09,-0.032592,0.232351,0.020582,-0.07355,-0.010938,-0.048313
1.48E+09,-0.02592,0.193985,0.028685,-0.085449,-0.019232,-0.058007
1.48E+09,0.009408,0.201438,0.049919,-0.050887,-0.035988,-0.070412
1.48E+09,-0.004939,0.114598,0.072027,-0.014003,-0.02075,-0.096885
1.48E+09,-0.00832,0.068846,0.069071,-0.044591,0.012707,-0.11161
1.48E+09,-0.043428,0.035525,0.036013,-0.003884,0.023571,-0.091651
1.48E+09,-0.087721,0.042789,0.022986,-0.014376,0.03925,-0.095065
1.48E+09,-0.106178,-0.011731,0.022414,0.001596,0.028809,-0.057361
1.48E+09,-0.120061,-0.013049,0.022235,2.04E-04,0.033057,-0.044279
1.48E+09,-0.140559,0.01901,0.018942,-0.00586,0.020677,-0.010391
1.48E+09,-0.129444,0.036696,0.00155,-0.025323,0.015804,-0.035707
1.48E+09,-0.127155,0.063868,0.007257,-0.035444,0.007315,-0.050478
1.48E+09,-0.091714,0.054287,-0.004335,-0.032405,0.00698,-0.050819
1.48E+09,-0.066247,0.032153,-0.00114,-0.042189,0.008559,-0.057005
1.48E+09,-0.039623,0.020035,-0.01159,-0.039618,-0.001745,-0.055008
1.48E+09,-0.025765,0.023849,-0.013907,-0.059427,-0.01889,-0.062656
1.48E+09,0.026007,0.025422,-0.016865,-0.062177,-0.023995,-0.063384
1.48E+09,0.052333,0.04783,-0.015637,-0.067182,-0.034125,-0.074783
1.48E+09,0.044609,0.063864,-0.016019,-0.051709,-0.029484,-0.074144
1.48E+09,0.043431,0.053993,-0.019549,-0.046186,-0.008041,-0.077078
1.48E+09,0.027087,0.046413,-0.012298,-0.035168,-0.002765,-0.087323
1.48E+09,0.014671,0.023983,-0.001061,-0.021898,0.002267,-0.074822
1.48E+09,0.005958,0.011449,0.012516,-0.011107,-0.001098,-0.050845
1.48E+09,-0.007984,0.018663,0.02691,-0.008539,0.001161,-0.047832
1.48E+09,-0.030911,0.041947,0.035993,-0.014473,0.0081,-0.028533
1.48E+09,-0.042426,0.057968,0.034329,-0.019415,0.003034,-0.02776
1.48E+09,-0.061525,0.07514,0.037443,-0.025548,0.008042,-0.031855
1.48E+09,-0.070482,0.086312,0.026087,-0.03032,0.010354,-0.030113
1.48E+09,-0.06042,0.08898,0.010243,-0.037175,0.008307,-0.029733
1.48E+09,-0.024878,0.068292,-0.003617,-0.032806,0.010982,-0.022247
1.48E+09,-0.008204,0.03881,-0.015143,-0.039663,0.005423,-0.0201
1.48E+09,0.007375,-0.008077,-0.01658,-0.042685,-0.002777,-0.017453
1.48E+09,0.025291,-0.033924,-0.018338,-0.048886,-0.008388,-0.024227
1.48E+09,0.046834,-0.042403,-0.024016,-0.053025,-0.015248,-0.027709
1.48E+09,0.058239,-0.046067,-0.021337,-0.05155,-0.013144,-0.032243
1.48E+09,0.060882,-0.058451,-0.01741,-0.046986,-0.007273,-0.032312
1.48E+09,0.061092,-0.080765,-0.010898,-0.033572,-0.004004,-0.032788
1.48E+09,0.0612,-0.093112,-0.013141,-0.025232,0.004394,-0.02952
1.48E+09,0.063883,-0.109247,-0.004245,-0.009454,0.00943,-0.029484
1.48E+09,0.053724,-0.100806,0.013863,0.00881,0.013127,-0.024228
1.48E+09,0.042269,-0.089826,0.023323,0.028037,0.012043,-0.017497
1.48E+09,0.019385,-0.072707,0.030062,0.024286,0.014018,-0.018625
1.48E+09,-0.002408,-0.036999,0.032824,0.023454,0.013729,-0.021487
1.48E+09,-0.00403,0.002602,0.028454,0.010468,0.016357,-0.018046
1.48E+09,-0.018148,0.026091,0.019268,6.30E-04,0.022575,-0.023586
1.48E+09,-0.0196,0.045934,0.011554,-0.00937,0.017082,-0.023029
1.48E+09,-0.012237,0.068334,2.44E-04,-0.017687,0.012065,-0.022844
1.48E+09,-0.020006,0.088151,-0.008788,-0.021772,0.008109,-0.020245
1.48E+09,-0.015027,0.095643,-0.013749,-0.024115,0.005675,-0.017879
1.48E+09,-0.0201,0.096912,-0.021202,-0.028822,0.005431,-0.016674
1.48E+09,-0.014865,0.077133,-0.01834,-0.030374,0.00755,-0.018463
1.48E+09,-0.012277,0.070922,-0.013292,-0.033788,0.002785,-0.020583
1.48E+09,0.004256,0.058651,-0.012846,-0.042756,-0.004126,-0.023261
1.48E+09,0.011994,0.04136,-0.009989,-0.053185,-0.001469,-0.032826
1.48E+09,0.008243,0.037597,-0.006301,-0.050878,-0.003057,-0.03481
1.48E+09,0.009615,0.026421,4.00E-05,-0.053054,-0.002055,-0.031609
1.48E+09,0.015978,0.0215,0.001441,-0.04018,-7.52E-04,-0.025175
1.48E+09,0.012339,0.005368,0.00534,-0.038128,3.64E-04,-0.019422
1.48E+09,0.019897,0.007876,0.006633,-0.037755,0.001359,-0.018687
1.48E+09,0.024918,0.011618,0.006638,-0.031003,-2.99E-04,-0.013368
1.48E+09,0.017362,0.009099,0.006572,-0.029918,-5.00E-06,-0.012315
1.48E+09,0.031277,0.006718,0.005586,-0.026716,0.002234,-0.010761
1.48E+09,0.032607,-6.95E-04,0.005731,-0.026986,0.004723,-0.010905
1.48E+09,0.03654,-0.01674,0.004832,-0.025613,0.007014,-0.011488
1.48E+09,0.034142,-0.031555,1.42E-04,-0.025518,0.007998,-0.011688
1.48E+09,0.025398,-0.041553,0.006316,-0.028855,0.006821,-0.011827
1.48E+09,0.026721,-0.047761,0.01012,-0.028236,0.00286,-0.00885
1.48E+09,0.019333,-0.067667,0.018934,-0.027697,1.35E-04,-0.011048
1.48E+09,0.033397,-0.084982,0.029241,-0.0295,-0.002982,-0.010321
1.48E+09,0.048621,-0.091149,0.03815,-0.026517,-0.005458,-0.012739
1.48E+09,0.060025,-0.094803,0.039603,-0.028432,-0.004846,-0.01333
1.48E+09,0.077712,-0.094719,0.04231,-0.026569,-0.002698,-0.013628
1.48E+09,0.085313,-0.097128,0.040004,-0.013224,-0.001223,-0.011012
1.48E+09,0.094271,-0.110628,0.034228,-0.009178,-0.002387,-0.007599
1.48E+09,0.100575,-0.110507,0.024505,-0.0097,-0.003176,-0.010312
1.48E+09,0.108276,-0.124056,0.023617,-0.011834,-0.002236,-0.010659
1.48E+09,0.123514,-0.133798,0.016642,-0.010713,0.004338,-0.010756
1.48E+09,0.115824,-0.121475,0.016323,-0.010934,0.008068,-0.010343
1.48E+09,0.087873,-0.103129,0.020515,-0.005467,0.010883,-0.004409
1.48E+09,0.063707,-0.083566,0.029648,-0.007763,0.019131,-0.002668
1.48E+09,0.0521,-0.05763,0.025363,-0.004512,0.015252,-0.004996
1.48E+09,0.048222,-0.048932,0.017802,-0.003814,0.018015,-0.002543
1.48E+09,0.035524,-0.041586,0.017494,0.001753,0.021259,0.001242
1.48E+09,0.013927,-0.029272,0.00839,5.51E-04,0.024044,-0.001258
1.48E+09,-0.030637,0.010022,0.009536,0.002184,0.022819,4.21E-04
1.48E+09,-0.043484,0.032303,-0.002064,2.37E-04,0.017132,0.001786
1.48E+09,-0.057447,0.040816,0.00495,-0.00354,0.012824,-0.001215
1.48E+09,-0.098016,0.05784,0.010208,-0.005226,0.015173,0.002096
1.48E+09,-0.114767,0.094815,0.013021,-0.013975,0.019112,-0.00882
1.48E+09,-0.103388,0.095984,0.029108,-0.01895,0.022501,-0.012416
1.48E+09,-0.07937,0.097175,0.05151,-0.016049,0.014489,-0.012124
1.48E+09,-0.046441,0.090978,0.076618,-0.014802,0.006188,-0.003342
1.48E+09,-0.00785,0.014501,0.080919,-0.021165,0.012461,-0.008519
1.48E+09,-0.031472,-0.028834,0.070272,-0.016122,0.013602,-0.013615
1.48E+09,-0.009648,0.080832,0.132511,-0.00327,-0.023339,-0.002594
1.48E+09,0.126819,-0.068913,0.096536,-0.006987,-0.002162,0.005699
1.48E+09,0.011169,0.007161,0.084997,-0.040462,0.032319,-0.064039
1.48E+09,0.023715,-0.140115,-0.03866,0.01219,0.062712,0.043836
1.48E+09,0.034229,-0.174144,0.044238,-0.020655,0.022145,-0.035921
1.48E+09,0.003545,-0.133509,0.043109,0.004869,-0.076161,-0.052216
1.48E+09,0.033962,-0.142144,0.062091,0.031143,0.011741,0.017101
1.48E+09,0.004813,-0.153322,-0.098807,-0.041117,0.068144,-0.048164
1.48E+09,0.095768,-0.145863,-0.03875,-0.014445,0.083852,-0.013024
1.48E+09,0.107458,-0.175821,0.002398,-0.012596,-0.235705,0.02321
1.48E+09,0.030749,-0.365979,-0.086258,-0.015957,0.335841,-0.056586
1.48E+09,-0.062082,-0.290311,-0.033685,-0.045357,0.177595,-0.092959
1.48E+09,-0.026773,-0.012852,-0.042848,0.03399,-0.115815,0.015811
1.48E+09,-0.043721,0.053338,0.014659,0.062608,-0.254142,0.017503
1.48E+09,-0.03443,0.007401,0.042551,0.070374,-0.136967,0.007603
1.48E+09,-0.011856,0.023728,0.02911,0.038402,0.020487,-0.015797
1.48E+09,0.023283,0.045211,-1.80E-04,-0.007667,0.087792,-0.052672
1.48E+09,0.006859,0.043971,-0.011434,9.10E-04,0.069542,-0.033857
1.48E+09,-0.038437,0.025089,-0.004411,0.026531,0.061578,-0.028242
1.48E+09,-0.062653,0.050805,0.008297,0.046205,-0.018288,-0.01165
1.48E+09,-0.058012,0.096574,0.010044,0.035891,-0.061111,0.002251
1.48E+09,-0.063443,0.138585,0.010483,0.011066,-0.027747,0.004612
1.48E+09,-0.085026,0.151979,0.019757,-0.006243,-0.001331,-0.001816
1.48E+09,-0.095021,0.140726,0.027161,-0.007838,-0.015741,-0.011067
1.48E+09,-0.072058,0.111448,-0.003901,-0.002808,-0.042653,-0.011374
1.48E+09,-0.07682,0.079272,-0.004654,0.001617,0.021529,-0.012661
1.48E+09,-0.086869,0.069536,-0.03039,0.018318,0.002568,-0.002881
1.48E+09,-0.048662,0.037458,-0.012127,0.0248,-0.026672,-0.001133
1.48E+09,-0.04904,0.080673,-0.004275,0.019829,0.016682,-0.015896
1.48E+09,-0.020017,0.089179,0.03402,-0.004689,0.069205,-0.002926
1.48E+09,-0.001102,0.088335,0.001193,-0.012143,0.013869,-0.010112
1.48E+09,0.036928,0.06323,-0.073874,-0.025199,0.001756,-0.003563
1.48E+09,0.193966,0.035887,0.053953,0.006648,-0.020007,0.00785
1.48E+09,-0.047812,0.105354,0.148632,0.060484,0.06856,0.003448
1.48E+09,-0.25575,0.191869,0.152755,0.040476,0.024401,0.083824
1.48E+09,-0.158207,0.155693,0.113075,-0.06789,-0.032488,0.011422
1.48E+09,0.00312,0.045964,0.042442,-0.058377,-0.082915,-0.038017
1.48E+09,0.040296,-0.020221,-0.001282,0.007402,0.096305,-0.08391
1.48E+09,0.01381,-0.021801,0.020438,0.012765,0.144162,-0.021326
1.48E+09,-0.01662,0.005541,0.128692,-0.021696,0.049919,0.036696
1.48E+09,-0.058602,0.052636,0.232765,5.06E-04,-0.02177,0.016297
1.48E+09,-0.017379,0.111758,0.290005,0.005612,-0.163032,0.032103
1.48E+09,0.066037,0.1096,0.312095,-0.029947,-0.161632,0.014644
1.48E+09,0.108995,0.108617,0.312732,-0.060007,-0.116491,-0.004916
1.48E+09,0.122936,0.100249,0.288545,-0.077054,-0.086743,0.004991
1.48E+09,0.147377,0.046305,0.250562,-0.079449,-0.032131,0.016247
1.48E+09,0.171179,-0.081551,0.178251,-0.075891,0.044235,0.014507
1.48E+09,0.20305,-0.126336,0.086256,-0.081967,0.123604,0.011022
1.48E+09,0.2508,-0.116284,-0.044455,-0.085913,0.124102,0.03642
1.48E+09,0.269367,-0.089255,-0.15625,-0.070765,0.110368,0.053758
1.48E+09,0.230032,-0.081349,-0.241577,-0.027955,0.096477,0.05837
1.48E+09,0.164251,-0.081103,-0.317344,0.027856,0.063504,0.050274
1.48E+09,0.092299,-0.09929,-0.411287,0.075592,0.029317,0.026088
1.48E+09,0.104922,-0.104984,-0.460066,0.087784,0.076994,0.008031
1.48E+09,0.150127,-0.076595,-0.406009,0.095203,0.141637,-0.002497
1.48E+09,0.20143,-0.009108,-0.307065,0.114291,0.1525,-0.001638
1.48E+09,0.247684,0.045523,-0.299961,0.142387,0.054289,0.025479
1.48E+09,0.367359,0.072785,-0.367375,0.08685,-0.019317,0.028169
1.48E+09,0.27051,-0.10399,-0.298335,0.049265,0.022375,0.002348
1.48E+09,-0.110638,-0.56018,-0.293683,0.176636,-0.290327,0.01092
1.48E+09,-0.327914,-0.60443,-0.625989,0.231853,-0.475255,-0.080331
1.48E+09,-0.372523,-0.040736,-0.923139,0.129782,-0.164702,-0.126673
1.48E+09,-0.168278,0.565065,-0.904661,0.061325,0.050191,-0.049904
1.48E+09,-0.031439,0.693579,-0.649753,0.012223,0.133728,-0.005412
1.48E+09,0.003599,0.352324,-0.340552,-0.084306,0.194854,0.002436
1.48E+09,0.073976,0.003317,-0.112883,-0.211935,0.243613,0.010946
1.48E+09,0.116239,0.094157,-0.003426,-0.300773,0.24128,0.010888
1.48E+09,0.144472,0.19511,0.070092,-0.288753,0.125844,0.020937
1.48E+09,0.159965,0.165081,0.122333,-0.211801,0.072625,0.010989
1.48E+09,0.120452,0.070474,0.167512,-0.111907,0.005835,-0.025188
1.48E+09,0.1162,-0.018106,0.263309,-0.042902,-0.029287,-0.042636
1.48E+09,0.086212,-0.039039,0.37729,-0.014898,-0.045699,-0.065773
1.48E+09,0.040902,0.084262,0.388044,-0.080471,-0.108623,-0.058193
1.48E+09,0.017151,0.191997,0.353995,-0.117476,-0.201424,-0.041522
1.48E+09,0.056829,0.271566,0.332375,-0.086708,-0.288381,-0.047408
1.48E+09,-0.00496,0.393981,0.29017,-0.03464,-0.301665,-0.059612
1.48E+09,-0.105767,0.4978,0.225639,0.026873,-0.353229,-0.052959
1.48E+09,-0.205394,0.479865,0.228183,0.084917,-0.327847,-0.080357
1.48E+09,-0.374019,0.273284,0.261124,0.148495,-0.281623,-0.108063
1.48E+09,-0.495919,-0.220612,0.229681,0.141667,-0.207868,-0.135364
1.48E+09,-0.606624,-0.410523,0.233741,0.085508,0.055409,-0.199901
1.48E+09,-0.540491,-0.045005,0.197865,0.017402,0.357753,-0.117409
1.48E+09,-0.574454,0.358014,0.189345,-0.014446,0.545069,0.016701
1.48E+09,-0.252591,0.361453,0.012418,-0.023269,0.494207,0.113741
1.48E+09,0.181002,0.134762,-0.363829,-0.073464,0.220205,0.073712
1.48E+09,0.088861,0.12795,-0.355232,-0.070122,-0.244801,0.063684
1.48E+09,0.105582,0.105141,-0.278566,-0.184513,-0.778701,0.034194
1.48E+09,0.108866,-0.273571,-0.387412,0.066338,0.050667,0.112319
1.48E+09,0.164109,-0.381714,-0.428942,0.024564,0.078555,0.005459
1.48E+09,0.192407,-0.296319,-0.416484,-0.004376,0.140969,0.054059
1.48E+09,0.133108,-0.29246,-0.330327,-0.015229,0.116847,0.091262
1.48E+09,0.010391,-0.274466,-0.352026,-0.017269,0.116335,0.080192
1.48E+09,-0.222029,-0.138393,-0.376075,-0.004287,0.133397,0.073878
1.48E+09,-0.296635,0.145868,-0.408933,0.018389,0.107441,0.078734
1.48E+09,-0.248964,0.180875,-0.419873,0.042341,0.109884,0.082084
1.48E+09,-0.262593,0.145311,-0.464849,0.040473,0.077052,0.012125
1.48E+09,-0.219768,0.164978,-0.42041,0.02714,-0.025009,0.002621
1.48E+09,-0.159729,0.098107,-0.366903,0.010162,0.066509,0.003556
1.48E+09,-0.039126,0.034348,-0.345689,0.010656,-0.049891,-0.017812
1.48E+09,0.06773,-0.058387,-0.417395,-0.020672,-0.014735,-0.030169
1.48E+09,0.097467,-0.163935,-0.637172,-0.051264,0.078836,-0.026194
1.48E+09,0.109893,-0.31276,-0.869959,-0.060032,0.148702,0.002684
1.48E+09,-0.122151,-0.294445,-0.42351,-0.098786,0.162671,0.00453
1.48E+09,-0.076729,8.04E-04,-0.354251,-0.081038,0.215689,0.029892
1.48E+09,-0.142536,0.156121,-0.34188,0.157715,-0.001482,-0.001454
1.48E+09,-0.152102,0.216649,-0.486535,0.121972,8.70E-04,-0.011827
1.48E+09,-0.068285,0.293443,-0.58719,0.083739,0.044818,-0.036687
1.48E+09,-0.030537,0.185125,-0.474436,0.037077,0.067542,-0.018788
1.48E+09,-4.47E-04,0.088916,-0.179371,-0.007629,-0.058332,-0.025717
1.48E+09,0.054975,-0.021563,-0.090854,-0.023703,-0.018774,-0.021845
1.48E+09,0.105628,-0.175817,-0.093651,-0.103924,-0.003761,-0.00605
1.48E+09,0.052569,-0.192386,-0.219236,-0.134835,0.043455,-0.006705
1.48E+09,0.002949,-0.172889,-0.366229,-0.155425,0.014709,0.009174
1.48E+09,0.00199,-0.03861,-0.160013,-0.067193,-0.008653,6.47E-04
1.48E+09,0.016606,0.023204,-0.147354,0.012674,-0.015651,-0.043505
1.48E+09,-0.005632,-0.026733,-0.107586,0.177903,-0.052049,-0.009778
1.48E+09,-0.050434,0.032734,-0.152162,0.11497,-0.032595,-0.034301
1.48E+09,-0.089897,0.063589,-0.172876,0.030321,-0.007815,-0.060407
1.48E+09,-0.137404,0.012379,-0.146942,-0.036512,0.015387,-0.048229
1.48E+09,-0.180674,-0.092925,-0.155601,-0.026088,0.006245,-0.036121
1.48E+09,-0.200433,-0.288119,-0.193065,-0.023004,0.031278,-0.026403
1.48E+09,-0.196612,-0.462979,-0.424311,-0.065726,0.031329,-0.02265
1.48E+09,-0.258644,-0.451974,-0.4536,-0.113941,-0.004962,-0.012705
1.48E+09,-0.191694,-0.446944,-0.415925,-0.127277,0.013579,0.011527
1.48E+09,-0.168739,-0.464529,-0.367465,0.010745,-0.013632,-0.035982
1.48E+09,-0.182104,-0.217636,-0.179273,0.016586,-0.040815,-0.044169
1.48E+09,-0.288158,0.069079,-0.086301,0.007453,-0.024455,-0.022661
1.48E+09,-0.784206,0.217502,0.287912,0.099884,-0.090423,0.011467
1.48E+09,-1.029027,0.660621,0.650966,0.012365,0.018169,-0.0349
1.48E+09,-0.558962,0.202222,0.499919,-0.048323,0.252428,0.028023
1.48E+09,-0.239733,-0.082475,0.174512,-0.182597,0.225676,-0.086164
1.48E+09,-0.019485,-0.148203,0.061061,-0.101418,-0.201784,-0.122348
1.48E+09,0.081113,-0.248334,-0.017968,0.039601,-0.227871,0.05633
1.48E+09,0.099774,-0.224245,-0.074523,0.067967,-0.071168,0.039238
1.48E+09,0.119345,-0.148963,-0.042397,0.001728,0.007804,0.053898
1.48E+09,0.194421,-0.06822,-0.031639,0.01466,-0.107212,0.034614
1.48E+09,0.238843,0.04132,-0.084357,0.088045,-0.159587,-0.031919
1.48E+09,0.193245,0.194429,-0.088827,0.076461,-0.051231,-0.036098
1.48E+09,0.065934,0.300275,-0.119434,0.033437,0.041447,-0.028564
1.48E+09,0.061183,0.262196,-0.1532,-0.027805,0.227843,-0.031013
1.48E+09,0.170372,0.200998,-0.150591,0.041303,0.177319,-0.044226
1.48E+09,0.28992,0.232573,-0.289214,0.1271,0.048264,-0.01131
1.48E+09,0.437891,0.353379,-0.284211,0.134422,-0.014532,0.069402
1.48E+09,0.694376,0.23099,-0.106739,0.086878,0.200335,0.159751
1.48E+09,1.22472,-0.59747,-0.179534,0.150966,0.054318,0.086995
1.48E+09,1.172597,-0.621215,-0.625088,0.134302,0.08515,0.034687
1.48E+09,0.059851,-0.234625,-0.77523,0.217948,0.17724,0.084284
1.48E+09,-0.799819,-0.540107,-0.507758,0.200161,-0.152844,0.154148
1.48E+09,-0.761848,-0.512444,-0.242763,0.072891,-0.508718,-0.134313
1.48E+09,-0.56314,-0.132986,-0.224224,-0.073963,-0.385181,-0.463377
1.48E+09,-0.409714,0.091237,-0.160792,-0.146961,0.375526,-0.168649
1.48E+09,-0.215002,0.336926,-0.266378,-0.037092,-0.444732,-0.069572
1.48E+09,-0.028173,0.633425,-0.244156,-0.031073,-0.219647,-0.038714
1.48E+09,0.327399,0.692024,-0.339355,-0.031804,-0.004139,-0.024685
1.48E+09,0.354004,0.530956,-0.430689,-0.060093,0.069476,-0.012388
1.48E+09,0.280705,0.251247,-0.456461,-0.061654,-0.178838,0.014149
1.48E+09,0.272961,-0.14837,-0.441241,-0.108401,0.267066,0.00974
1.48E+09,0.141541,-0.26993,-0.345423,-0.096518,0.24756,-0.013805
1.48E+09,-0.037826,-0.250025,-0.195042,-0.046927,0.167909,-0.005174
1.48E+09,-0.222233,-0.227905,-0.017789,-0.064242,0.212094,0.021015
1.48E+09,-0.184763,-0.316955,0.010011,-0.062396,0.270856,-0.010655
1.48E+09,0.022059,-0.440519,-0.14681,-0.101163,0.317918,-0.024345
1.48E+09,0.211896,-0.356738,-0.266902,0.024164,0.196218,0.059133
1.48E+09,0.264477,-0.452381,-0.325851,0.085885,-0.05115,0.104686
1.48E+09,0.234368,-0.764845,-0.395825,0.141629,-0.07975,0.065244
1.48E+09,0.124296,-0.753853,-0.457696,0.162289,-0.025577,0.016094
1.48E+09,-0.189844,-0.371509,-0.414721,0.005476,-6.58E-04,-0.12967
1.48E+09,-0.351041,0.016893,-0.248223,8.65E-04,0.035968,0.060173
1.48E+09,-0.360037,-0.111438,-0.287886,-0.002336,0.109187,0.037812
1.48E+09,-0.429347,-0.250332,-0.1455,0.125612,0.021966,-0.048808
1.48E+09,-0.658967,0.027225,0.064809,0.13741,0.01187,-0.082416
1.48E+09,-0.559722,0.386524,0.202445,0.0519,0.209311,-0.027917
1.48E+09,-0.365579,0.713894,0.235289,-0.154218,0.25849,0.006465
1.48E+09,-0.2815,1.341031,0.277427,-0.200132,0.148008,-0.023412
1.48E+09,-0.06271,1.750541,0.412262,-0.23579,0.040219,0.073851
1.48E+09,0.215712,1.133818,0.42056,-0.290079,-0.062291,0.102426
1.48E+09,0.167462,0.570315,0.191444,-0.269111,-0.039935,0.017622
1.48E+09,0.130475,0.318509,0.109309,-0.041427,0.165217,0.117973
1.48E+09,0.002812,0.045786,0.096125,0.077336,0.514834,0.153953
1.48E+09,-0.145503,-0.174134,0.112414,0.03082,0.563127,0.163388
1.48E+09,-0.110686,-0.398638,0.070101,-0.024147,0.495958,0.156956
1.48E+09,-0.093206,-0.524162,0.009923,-0.066967,0.36098,0.115337
1.48E+09,-0.240786,-0.571774,-0.168014,-0.106183,0.35565,-0.0207
1.48E+09,-0.40845,-0.499198,-0.387515,-0.183904,0.365824,-0.090712
1.48E+09,-0.579033,-0.305346,-0.035126,-0.199172,0.430497,-0.192764
1.48E+09,-0.740739,-0.179187,-0.152424,0.041406,0.083199,-0.246474
1.48E+09,-0.836191,-0.021362,-0.602895,-0.014203,0.090668,-0.201751
1.48E+09,-0.855485,0.320827,-0.427435,-0.144929,0.270467,-0.128183
1.48E+09,-0.797397,0.506435,-0.107172,-0.120267,0.214134,-0.077203
1.48E+09,-0.380926,0.216616,-0.488733,0.097559,-0.390075,-0.024275
1.48E+09,-0.37345,-0.114573,-0.949086,0.020827,-0.24265,-0.045444
1.48E+09,-0.513142,-0.210717,-1.231564,-0.071996,-0.081518,-0.135655
1.48E+09,-0.446902,-0.114933,-1.104674,0.075252,0.022162,-0.11208
1.48E+09,-0.528296,-0.184053,-1.032321,0.174894,0.083775,-0.154293
1.48E+09,-0.594182,0.258262,-1.030927,0.387801,-0.238013,-0.068933
1.48E+09,-0.633376,0.699665,-0.902808,0.26615,-0.134717,-0.091189
1.48E+09,-0.60396,0.678843,-0.759763,0.263047,-0.212188,-0.02472
1.48E+09,-0.595126,0.699901,-0.61159,0.192496,-0.055557,-0.064771
1.48E+09,-0.554947,0.870571,-0.584457,0.061003,-0.110888,-0.105239
1.48E+09,-0.531068,1.168478,-0.552348,0.023979,-0.110778,0.010331
1.48E+09,-0.587612,1.291994,-0.428924,0.043666,-0.158617,0.028825
1.48E+09,-0.668527,1.445726,-0.386083,0.031583,-0.069201,-0.002386
1.48E+09,-0.680932,1.572299,-0.300094,0.086476,-0.062825,-6.24E-04
1.48E+09,-0.640474,1.443013,-0.191852,0.087847,-0.081211,0.010695
1.48E+09,-0.585039,1.464222,-0.018582,0.030606,0.113864,-0.075492
1.48E+09,-0.51656,1.148432,-0.063774,0.0292,0.136665,-0.039822
1.48E+09,-0.442565,0.91704,-0.140972,-0.042809,0.316714,-0.147436
1.48E+09,-0.494257,1.024433,-0.300517,-0.117505,0.370995,-0.152165
1.48E+09,-0.571737,1.195626,-0.418586,-0.145543,0.451197,-0.126723
1.48E+09,-0.446364,0.864696,-0.533835,-0.197342,0.364579,0.185317
1.48E+09,-0.225943,0.761761,-0.780338,-0.135993,0.175051,-0.012164
1.48E+09,0.204873,0.607683,-0.825482,-0.12336,0.105986,-0.108556
1.48E+09,0.760219,-0.007001,-0.569156,7.15E-04,0.124079,4.36E-04
1.48E+09,0.90905,-0.224846,-0.294737,0.167418,-0.034899,0.008536
1.48E+09,0.806858,-0.240208,-0.305765,0.270756,0.101602,-0.190222
1.48E+09,0.744381,-0.458094,-0.322612,0.084492,0.254721,0.033131
1.48E+09,1.494449,-1.991794,-0.490712,0.014373,0.410823,0.115455
1.48E+09,2.372925,-3.218032,0.21722,0.066398,0.313399,0.161037
1.48E+09,1.871871,-1.191402,1.058822,-0.015361,0.544456,0.101419
1.48E+09,0.916963,0.638282,1.177268,0.001442,0.517851,0.175283
1.48E+09,0.446683,0.947844,1.087987,-0.146986,0.203943,0.767651
1.48E+09,1.016858,1.746923,1.178393,-0.103065,-0.234739,0.790683
1.48E+09,1.13534,1.490703,1.143955,-0.022414,0.088148,0.197306
1.48E+09,0.933402,0.460088,0.910694,0.226954,0.210565,-0.310488
1.48E+09,0.365922,0.151437,0.446565,0.374115,0.109497,-0.100237
1.48E+09,-0.046487,2.009509,0.227731,0.286868,0.08097,0.001953
1.48E+09,-0.543106,4.961445,0.163372,-0.03227,-0.104422,0.398849
1.48E+09,0.295211,6.212889,-0.255286,-0.306242,0.11737,0.71455
1.48E+09,1.13456,6.367564,-0.690983,-0.388309,-0.284318,0.749547
1.48E+09,1.420108,5.286831,-1.376281,-0.510315,0.068945,0.047897
1.48E+09,1.312022,3.881665,-1.999236,-0.82313,-0.300988,-0.017863
1.48E+09,0.95665,3.183581,-2.326178,-0.968233,-0.216818,0.210757
1.48E+09,0.557245,2.736825,-2.718094,-0.90161,-0.151689,0.413159
1.48E+09,0.106481,2.097162,-3.147968,-0.878829,-0.073151,0.437162
1.48E+09,-0.267322,1.038103,-3.649371,-0.924201,-0.11166,0.4049
1.48E+09,-0.427113,-0.095387,-4.262941,-0.945454,-0.186716,0.283148
1.48E+09,-0.48154,-0.728511,-4.890795,-0.957896,-0.172391,0.123905
1.48E+09,-0.496083,-0.733689,-5.45754,-0.894826,-0.174786,-0.025973
1.48E+09,-0.450543,0.037172,-5.912644,-0.795991,-0.06223,-0.110431
1.48E+09,-0.36375,1.167427,-6.136516,-0.644099,0.070685,-0.127045
1.48E+09,-0.197194,2.440192,-6.192389,-0.448661,0.191219,-0.11642
1.48E+09,-0.036365,3.515787,-6.188601,-0.24452,0.259235,-0.146201
1.48E+09,-0.037031,4.314354,-6.005859,-0.056102,0.270121,-0.183071
1.48E+09,-0.096025,5.004545,-5.771844,0.101413,0.279627,-0.169019
1.48E+09,-0.131204,5.560977,-5.643156,0.225643,0.270895,-0.092669
1.48E+09,0.029267,6.132251,-5.521705,0.334936,0.259549,-0.019206
1.48E+09,0.160281,6.707157,-5.703675,0.350746,0.237824,0.066999
1.48E+09,0.415084,6.83906,-6.056668,0.344445,0.222538,0.133617
1.48E+09,0.92006,6.429239,-6.223975,0.379675,0.294102,0.116223
1.48E+09,1.558998,5.643554,-6.013841,0.461646,0.376049,0.029193
1.48E+09,2.152896,4.848966,-5.514764,0.566457,0.416968,-0.030597
1.48E+09,2.549808,4.199547,-4.920411,0.653108,0.465428,-0.009583
1.48E+09,2.606498,3.602186,-4.29015,0.677264,0.514298,0.067695
1.48E+09,2.437904,3.182245,-3.742176,0.68626,0.527292,0.162931
1.48E+09,2.220969,3.051895,-3.399701,0.649244,0.491328,0.258609
1.48E+09,1.965014,3.026427,-3.203054,0.5628,0.502607,0.340479
1.48E+09,1.649629,3.231637,-3.418342,0.414102,0.570725,0.369877
1.48E+09,1.266627,3.482721,-3.841424,0.279885,0.546865,0.383578
1.48E+09,1.039044,3.734379,-4.2218,0.010404,0.658492,0.437463
1.48E+09,1.685502,4.092857,-4.911465,-0.15065,0.605369,0.458039
1.48E+09,2.689139,4.942119,-5.32708,-0.180827,0.53558,0.396442
1.48E+09,3.217975,2.422952,-4.648976,-0.491471,0.537745,-0.219825
1.48E+09,2.958515,0.073277,-3.809731,-0.167173,0.276356,-0.623786
1.48E+09,2.454444,-0.126045,-3.266645,0.051763,0.01622,-0.25688
1.48E+09,1.696796,0.606325,-2.815308,0.304942,0.040572,0.294465
1.48E+09,0.985138,1.269246,-2.454119,0.099742,0.19307,0.470512
1.48E+09,0.413539,1.815162,-2.049687,-0.084862,0.192719,0.385982
1.48E+09,0.077994,2.118877,-1.499168,-0.139889,0.170933,0.334101
1.48E+09,-0.125323,1.919335,-0.862206,0.001736,0.207876,0.283275
1.48E+09,-0.151547,1.793749,-0.508472,-0.013037,0.16356,0.110358
1.48E+09,0.166036,1.213322,-0.231628,-0.135766,0.091353,0.157693
1.48E+09,0.23923,0.524721,-0.205457,-0.223334,0.064283,0.193414
1.48E+09,0.226324,0.545058,-0.279573,-0.165279,0.037241,-0.11374
1.48E+09,0.151935,0.539079,-0.210639,-0.130961,0.075202,0.078056
1.48E+09,0.116708,0.671888,-0.147161,-0.08764,0.156072,0.058812
1.48E+09,0.188258,0.731107,-0.079672,0.036067,0.250282,-0.001247
1.48E+09,0.320839,0.595942,-0.087741,0.038373,0.281788,-0.06394
1.48E+09,0.401294,0.355503,-0.11441,0.038263,0.167679,-0.151833
1.48E+09,0.357162,0.211488,-0.079501,0.010216,0.118138,-0.159413
1.48E+09,0.235486,0.133077,0.039032,0.033898,0.089298,-0.125676
1.48E+09,0.101814,0.123869,0.154997,0.032804,0.074884,-0.083616
1.48E+09,0.056447,0.118259,0.201042,0.001358,0.065881,-0.034468
1.48E+09,0.106438,0.173245,0.168947,-0.066038,0.075442,0.006195
1.48E+09,0.170227,0.231275,0.079358,-0.108665,0.112464,0.026786
1.48E+09,0.188511,0.28226,-0.08681,-0.154474,0.166524,0.050071
1.48E+09,0.154761,0.22155,-0.243259,-0.161119,0.199867,0.019824
1.48E+09,0.112688,-0.03356,-0.376923,-0.137992,0.197652,-0.038714
1.48E+09,0.078617,-0.321643,-0.408119,-0.081585,0.170812,-0.116236
1.48E+09,0.045105,-0.375752,-0.321837,-0.02855,0.120841,-0.172398
1.48E+09,0.078884,-0.188281,-0.238662,-0.028813,0.117543,-0.135657
1.48E+09,0.226734,0.094029,-0.175065,-0.03708,0.117154,-0.051513
1.48E+09,0.404696,0.259028,-0.110279,-0.035335,0.10203,-0.006277
1.48E+09,0.53444,0.305204,-0.067486,-0.068225,0.087852,-0.029259
1.48E+09,0.55004,0.257027,-0.062769,-0.086254,0.092498,-0.063245
1.48E+09,0.472432,0.17631,-0.078471,-0.078001,0.102116,-0.071829
1.48E+09,0.383249,0.117818,-0.098395,-0.075127,0.089429,-0.060767
1.48E+09,0.28728,0.110134,-0.135194,-0.031202,0.041295,-0.016399
1.48E+09,0.167272,0.105996,-0.169971,-0.021892,0.048255,0.0101
1.48E+09,0.167541,0.068165,-0.229425,-0.029336,0.041136,0.036472
1.48E+09,0.180317,0.056817,-0.194708,-0.022299,0.038595,0.027238
1.48E+09,0.24436,-0.055366,-0.18217,0.010133,0.027936,0.070758
1.48E+09,0.267655,0.021528,-0.191717,-0.012371,0.033288,0.059312
1.48E+09,0.271147,0.058404,-0.162854,-0.009617,0.028799,0.07111
1.48E+09,0.337181,0.168332,-0.099981,-0.016833,0.030774,0.048565
1.48E+09,0.351762,0.232702,-0.097177,-0.030941,0.026347,0.043358
1.48E+09,0.28518,0.196181,-0.066861,-0.059042,0.018215,0.086683
1.48E+09,0.217078,0.19159,-0.01135,-0.034869,0.021969,0.080251
1.48E+09,0.134425,0.109627,-0.029556,-0.012581,0.024663,0.062281
1.48E+09,0.101847,-0.066956,-0.083463,0.015039,0.008861,0.069271
1.48E+09,-0.021543,-0.254238,-0.106615,0.02245,0.030778,0.046423
1.48E+09,-0.078085,-0.282125,-0.066487,0.033138,0.037687,0.003108
1.48E+09,-0.159736,-0.183047,0.004248,0.02372,0.010293,0.031171
1.48E+09,-0.178347,-0.082838,-0.013656,-0.007656,-0.009986,0.076869
1.48E+09,-0.192351,0.06919,-0.013971,-0.021042,0.003746,0.070453
